"participant","date1","stimulusPresent.t","correctKey","keyRespCorrect","correctKeyPressNum","key_resp_9.rt","key_resp_9.keys","trialCorrect","repetitionNumber","anticipatoryResponse","PreTouchByDate","TrialNum","Block"
6,"2018-03-31",0.0522699914873,"['num_7']",NA,"","[1.1486778655089438]","['num_7']",1,1,NA,1,1,"Block1"
6,"2018-03-31",0.0626371796243,"['num_1']",NA,"","[0.5481883473694324, 1.365320094395429]","['num_4', 'num_1']",0,1,NA,1,2,"Block1"
6,"2018-03-31",0.0691865179688,"['num_4']",NA,"","[0.7588629815727472]","['num_4']",1,1,NA,1,3,"Block1"
6,"2018-03-31",0.0761896008626,"['num_0']",NA,"","[1.4505739081650972]","['num_0']",1,1,NA,1,4,"Block1"
6,"2018-03-31",0.0469735767692,"['num_0']",NA,"","[0.8633016315288842]","['num_0']",1,1,NA,1,5,"Block1"
6,"2018-03-31",0.0494786049239,"['num_4']",NA,"","[1.0784788336604834, 1.4781390591524541]","['num_7', 'num_4']",0,1,NA,1,6,"Block1"
6,"2018-03-31",0.0476369620301,"['num_1']",NA,"","[0.8967051459476352]","['num_1']",1,1,NA,1,7,"Block1"
6,"2018-03-31",0.050267118495,"['num_0']",NA,"","[0.9449398522265255]","['num_0']",1,1,NA,1,8,"Block1"
6,"2018-03-31",0.0491114249453,"['num_7']",NA,"","[1.6595554128289223]","['num_7']",1,2,NA,1,9,"Block1"
6,"2018-03-31",0.0519766579382,"['num_1']",NA,"","[1.9264393243938684]","['num_1']",1,2,NA,1,10,"Block1"
6,"2018-03-31",0.0438515231945,"['num_4']",NA,"","[1.3838271871209145, 2.3509684931486845]","['num_7', 'num_4']",0,2,NA,1,11,"Block1"
6,"2018-03-31",0.0524045554921,"['num_0']",NA,"","[0.8427838711068034]","['num_0']",1,2,NA,1,12,"Block1"
6,"2018-03-31",0.0563405589201,"['num_0']",NA,"","[0.755080824252218]","['num_0']",1,2,NA,1,13,"Block1"
6,"2018-03-31",0.046739730984,"['num_4']",NA,"","[1.1810577898286283]","['num_4']",1,2,NA,1,14,"Block1"
6,"2018-03-31",0.0434917281382,"['num_1']",NA,"","[1.0171934496611357]","['num_1']",1,2,NA,1,15,"Block1"
6,"2018-03-31",0.0453321398236,"['num_0']",NA,"","[0.4835560889914632]","['num_0']",1,2,NA,1,16,"Block1"
6,"2018-03-31",0.0485645527951,"['num_7']",NA,"","[1.0610474348068237]","['num_7']",1,3,NA,1,17,"Block1"
6,"2018-03-31",0.0458892686293,"['num_1']",NA,"","[1.0986384400166571]","['num_1']",1,3,NA,1,18,"Block1"
6,"2018-03-31",0.046839423012,"['num_4']",NA,"","[0.7989237322472036]","['num_4']",1,3,NA,1,19,"Block1"
6,"2018-03-31",0.0480997320265,"['num_0']",NA,"","[0.5788492951542139]","['num_0']",1,3,NA,1,20,"Block1"
6,"2018-03-31",0.0439175744541,"['num_0']",NA,"","[0.717914845328778]","['num_0']",1,3,NA,1,21,"Block1"
6,"2018-03-31",0.0453678322956,"['num_4']",NA,"","[1.1329843141138554, 1.5494445534422994]","['num_7', 'num_4']",0,3,NA,1,22,"Block1"
6,"2018-03-31",0.0430818819441,"['num_1']",NA,"","[0.8691116874106228]","['num_1']",1,3,NA,1,23,"Block1"
6,"2018-03-31",0.0244755074382,"['num_0']",NA,"","[0.4385841549374163]","['num_0']",1,3,NA,1,24,"Block1"
6,"2018-03-31",0.0473428079858,"['num_7']",NA,"","[0.6781974793411791, 1.2787760235369205]","['num_0', 'num_7']",0,4,NA,1,25,"Block1"
6,"2018-03-31",0.0509801441804,"['num_1']",NA,"","[1.1431512972339988]","['num_1']",1,4,NA,1,26,"Block1"
6,"2018-03-31",0.0472476286814,"['num_4']",NA,"","[0.9470305209979415, 1.5971783362329006]","['num_7', 'num_4']",0,4,NA,1,27,"Block1"
6,"2018-03-31",0.0512509136461,"['num_0']",NA,"","[0.5762638575397432]","['num_0']",1,4,NA,1,28,"Block1"
6,"2018-03-31",0.0434884456918,"['num_0']",NA,"","[0.9682678715325892]","['num_0']",1,4,NA,1,29,"Block1"
6,"2018-03-31",0.0483705010265,"['num_4']",NA,"","[1.9960426636971533]","['num_4']",1,4,NA,1,30,"Block1"
6,"2018-03-31",0.0524603505619,"['num_1']",NA,"","[0.6586934635415673]","['num_1']",1,4,NA,1,31,"Block1"
6,"2018-03-31",0.0541013777256,"['num_0']",NA,"","[0.4070120262913406]","['num_0']",1,4,NA,1,32,"Block1"
6,"2018-03-31",0.0491782967001,"['num_7']",NA,"","[0.5930236661806703]","['num_7']",1,5,NA,1,33,"Block1"
6,"2018-03-31",0.0434244456701,"['num_1']",NA,"","[0.0002244105562567711, 0.333302837330848]","['num_4', 'num_1']",0,5,NA,1,34,"Block1"
6,"2018-03-31",0.0482679367997,"['num_4']",NA,"","[0.06288579478859901, 1.029853562824428, 2.5964624378830194]","['num_0', 'num_0', 'num_4']",0,5,NA,1,35,"Block1"
6,"2018-03-31",0.0525021972135,"['num_0']",NA,"","[1.0757818059064448]","['num_0']",1,5,NA,1,36,"Block1"
6,"2018-03-31",0.0450461907312,"['num_0']",NA,"","[0.7327017295174301]","['num_0']",1,5,NA,1,37,"Block1"
6,"2018-03-31",0.0266490476206,"['num_4']",NA,"","[1.0197349903173745]","['num_4']",1,5,NA,1,38,"Block1"
6,"2018-03-31",0.0431311125867,"['num_1']",NA,"","[0.53541828552261]","['num_1']",1,5,NA,1,39,"Block1"
6,"2018-03-31",0.049715322908,"['num_0']",NA,"","[0.579003962688148]","['num_0']",1,5,NA,1,40,"Block1"
6,"2018-03-31",0.0517739909701,"['num_7']",NA,"","[1.091029818635434]","['num_7']",1,6,NA,1,41,"Block1"
6,"2018-03-31",0.0440623951145,"['num_1']",NA,"","[1.2504408205859363]","['num_1']",1,6,NA,1,42,"Block1"
6,"2018-03-31",0.0445887548849,"['num_4']",NA,"","[0.6990934968926013]","['num_4']",1,6,NA,1,43,"Block1"
6,"2018-03-31",0.0436504972167,"['num_0']",NA,"","[0.8678128146566451]","['num_0']",1,6,NA,1,44,"Block1"
6,"2018-03-31",0.0456878324039,"['num_0']",NA,"","[0.615716197527945]","['num_0']",1,6,NA,1,45,"Block1"
6,"2018-03-31",0.0434761382639,"['num_4']",NA,"","[0.58443822292611]","['num_4']",1,6,NA,1,46,"Block1"
6,"2018-03-31",0.0482978858054,"['num_1']",NA,"","[1.2970033204182982]","['num_1']",1,6,NA,1,47,"Block1"
6,"2018-03-31",0.0493916305713,"['num_0']",NA,"","[0.8960105814039707]","['num_0']",1,6,NA,1,48,"Block1"
6,"2018-03-31",0.047110603191,"['num_7']",NA,"","[0.5798987322486937]","['num_7']",1,7,NA,1,49,"Block1"
6,"2018-03-31",0.0405686483718,"['num_1']",NA,"","[1.920674396213144]","['num_1']",1,7,NA,1,50,"Block1"
6,"2018-03-31",0.0449530626647,"['num_4']",NA,"","[0.8834907761774957]","['num_4']",1,7,NA,1,51,"Block1"
6,"2018-03-31",0.0486806551926,"['num_0']",NA,"","[0.6965843662619591]","['num_0']",1,7,NA,1,52,"Block1"
6,"2018-03-31",0.0459475247189,"['num_0']",NA,"","[0.6484304806217551]","['num_0']",1,7,NA,1,53,"Block1"
6,"2018-03-31",0.0443988055922,"['num_4']",NA,"","[1.7167316651903093]","['num_4']",1,7,NA,1,54,"Block1"
6,"2018-03-31",0.0401440327987,"['num_1']",NA,"","[0.7208551554940641]","['num_1']",1,7,NA,1,55,"Block1"
6,"2018-03-31",0.0576927652583,"['num_0']",NA,"","[0.6527939713560045]","['num_0']",1,7,NA,1,56,"Block1"
6,"2018-03-31",0.0515130679123,"['num_7']",NA,"","[1.1918619009666145]","['num_7']",1,8,NA,1,57,"Block1"
6,"2018-03-31",0.048361885827,"['num_1']",NA,"","[0.9623220204375684]","['num_1']",1,8,NA,1,58,"Block1"
6,"2018-03-31",0.0525280432776,"['num_4']",NA,"","[0.8086595353670418]","['num_4']",1,8,NA,1,59,"Block1"
6,"2018-03-31",0.0472127567045,"['num_0']",NA,"","[0.5802634502761066]","['num_0']",1,8,NA,1,60,"Block1"
6,"2018-03-31",0.0502187078819,"['num_0']",NA,"","[0.5608981009572744]","['num_0']",1,8,NA,1,61,"Block1"
6,"2018-03-31",0.0467331665568,"['num_4']",NA,"","[1.31347348773852]","['num_4']",1,8,NA,1,62,"Block1"
6,"2018-03-31",0.043660343159,"['num_1']",NA,"","[0.5845042746514082]","['num_1']",1,8,NA,1,63,"Block1"
6,"2018-03-31",0.0364582864568,"['num_0']",NA,"","[0.5058490308001637]","['num_0']",1,8,NA,1,64,"Block1"
6,"2018-03-31",0.0497403489426,"['num_7']",NA,"","[0.5764094986952841]","['num_7']",1,9,NA,1,65,"Block1"
6,"2018-03-31",0.0486552193761,"['num_1']",NA,"","[0.3952942732721567, 0.9616024298593402]","['num_4', 'num_1']",0,9,NA,1,66,"Block1"
6,"2018-03-31",0.0449013700709,"['num_4']",NA,"","[0.6491574561223388]","['num_4']",1,9,NA,1,67,"Block1"
6,"2018-03-31",0.049873271957,"['num_0']",NA,"","[0.211579660885036]","['num_0']",1,9,NA,1,68,"Block1"
6,"2018-03-31",0.0468521406874,"['num_0']",NA,"","[0.6642475193366408]","['num_0']",1,9,NA,1,69,"Block1"
6,"2018-03-31",0.0394744942896,"['num_4']",NA,"","[1.753107899799943, 2.3402333045378327]","['num_0', 'num_4']",0,9,NA,1,70,"Block1"
6,"2018-03-31",0.0376824927516,"['num_1']",NA,"","[2.4240200403146446, 3.0906847924925387]","['num_4', 'num_1']",0,9,NA,1,71,"Block1"
6,"2018-03-31",0.0515495808795,"['num_0']",NA,"","[0.8433368969708681]","['num_0']",1,9,NA,1,72,"Block1"
6,"2018-03-31",0.0503380927257,"['num_7']",NA,"","[1.276161867659539]","['num_7']",1,10,NA,1,73,"Block1"
6,"2018-03-31",0.0455110114999,"['num_1']",NA,"","[0.6987837529741228]","['num_1']",1,10,NA,1,74,"Block1"
6,"2018-03-31",0.0475467056967,"['num_4']",NA,"","[0.4628652003593743]","['num_4']",1,10,NA,1,75,"Block1"
6,"2018-03-31",0.0522671197541,"['num_0']",NA,"","[0.039779724553227425, 0.4583490937948227]","['num_0', 'num_0']",0,10,NA,1,76,"Block1"
6,"2018-03-31",0.044286805205,"['num_0']",NA,"","[0.0001936410553753376, 1.3507502367720008]","['num_0', 'num_0']",0,10,NA,1,77,"Block1"
6,"2018-03-31",0.0476878341287,"['num_4']",NA,"","[1.430359737481922]","['num_4']",1,10,NA,1,78,"Block1"
6,"2018-03-31",0.04925624514,"['num_1']",NA,"","[0.4120610561221838]","['num_1']",1,10,NA,1,79,"Block1"
6,"2018-03-31",0.0433596251532,"['num_0']",NA,"","[0.4190686517395079]","['num_0']",1,10,NA,1,80,"Block1"
6,"2018-03-31",0.0336484378204,"['num_7']",NA,"","[1.234720602631569]","['num_7']",1,1,NA,1,81,"Block2"
6,"2018-03-31",0.0439663948491,"['num_1']",NA,"","[0.8174464143812656]","['num_1']",1,1,NA,1,82,"Block2"
6,"2018-03-31",0.04610342253,"['num_4']",NA,"","[0.4646818172186613]","['num_4']",1,1,NA,1,83,"Block2"
6,"2018-03-31",0.0414556241594,"['num_0']",NA,"","[0.00018092337995767593, 0.252974976785481]","['num_0', 'num_0']",0,1,NA,1,84,"Block2"
6,"2018-03-31",0.0530880433507,"['num_0']",NA,"","[0.4084306941367686]","['num_0']",1,1,NA,1,85,"Block2"
6,"2018-03-31",0.0458392170258,"['num_4']",NA,"","[1.6821228158660233]","['num_4']",1,1,NA,1,86,"Block2"
6,"2018-03-31",0.0450937808491,"['num_1']",NA,"","[0.5992616196162999]","['num_1']",1,1,NA,1,87,"Block2"
6,"2018-03-31",0.0445038313046,"['num_0']",NA,"","[0.33388499170541763]","['num_0']",1,1,NA,1,88,"Block2"
6,"2018-03-31",0.0501473229378,"['num_7']",NA,"","[0.0004927180707454681, 0.9588541202247143]","['num_0', 'num_7']",0,2,NA,1,89,"Block2"
6,"2018-03-31",0.0436841384508,"['num_1']",NA,"","[0.9351363573223352]","['num_1']",1,2,NA,1,90,"Block2"
6,"2018-03-31",0.0515495804138,"['num_4']",NA,"","[0.4436971843242645]","['num_4']",1,2,NA,1,91,"Block2"
6,"2018-03-31",0.0461387042888,"['num_0']",NA,"","[0.3317106310278177]","['num_0']",1,2,NA,1,92,"Block2"
6,"2018-03-31",0.045218498446,"['num_0']",NA,"","[0.2819920261390507]","['num_0']",1,2,NA,1,93,"Block2"
6,"2018-03-31",0.0476985005662,"['num_4']",NA,"","[0.2473392798565328, 0.8310484769754112, 1.2141006886959076]","['num_0', 'num_7', 'num_4']",0,2,NA,1,94,"Block2"
6,"2018-03-31",0.0490929633379,"['num_1']",NA,"","[0.9956344580277801, 1.8104970753192902]","['num_0', 'num_1']",0,2,NA,1,95,"Block2"
6,"2018-03-31",0.0494941943325,"['num_0']",NA,"","[1.911044439766556]","['num_0']",1,2,NA,1,96,"Block2"
6,"2018-03-31",0.0468049617484,"['num_7']",NA,"","[0.8285401673056185]","['num_7']",1,3,NA,1,97,"Block2"
6,"2018-03-31",0.0493005532771,"['num_1']",NA,"","[0.7623821636661887, 1.1790844541974366]","['num_4', 'num_1']",0,3,NA,1,98,"Block2"
6,"2018-03-31",0.0518872216344,"['num_4']",NA,"","[1.2405195818282664]","['num_4']",1,3,NA,1,99,"Block2"
6,"2018-03-31",0.0411011618562,"['num_0']",NA,"","[0.8202632367610931]","['num_0']",1,3,NA,1,100,"Block2"
6,"2018-03-31",0.0432705995627,"['num_0']",NA,"","[0.8180515430867672]","['num_0']",1,3,NA,1,101,"Block2"
6,"2018-03-31",0.0508829136379,"['num_4']",NA,"","[1.4433263125829399]","['num_4']",1,3,NA,1,102,"Block2"
6,"2018-03-31",0.054816044867,"['num_1']",NA,"","[1.2061002715490758, 1.8553602914325893, 2.6554491533897817]","['num_4', 'num_0', 'num_1']",0,3,NA,1,103,"Block2"
6,"2018-03-31",0.0476500904188,"['num_0']",NA,"","[1.2136469441466033]","['num_0']",1,3,NA,1,104,"Block2"
6,"2018-03-31",0.0435032155365,"['num_7']",NA,"","[1.1323910825885832]","['num_7']",1,4,NA,1,105,"Block2"
6,"2018-03-31",0.0501165539026,"['num_1']",NA,"","[0.6454712990671396]","['num_1']",1,4,NA,1,106,"Block2"
6,"2018-03-31",0.0467967563309,"['num_4']",NA,"","[0.46437576599419117]","['num_4']",1,4,NA,1,107,"Block2"
6,"2018-03-31",0.0518925557844,"['num_0']",NA,"","[0.3928622710518539]","['num_0']",1,4,NA,1,108,"Block2"
6,"2018-03-31",0.039272647351,"['num_0']",NA,"","[0.43849964207038283]","['num_0']",1,4,NA,1,109,"Block2"
6,"2018-03-31",0.0480566550978,"['num_4']",NA,"","[0.9807470613159239]","['num_4']",1,4,NA,1,110,"Block2"
6,"2018-03-31",0.0474059875123,"['num_1']",NA,"","[0.7272051093168557]","['num_1']",1,4,NA,1,111,"Block2"
6,"2018-03-31",0.0435023945756,"['num_0']",NA,"","[0.7022651913575828]","['num_0']",1,4,NA,1,112,"Block2"
6,"2018-03-31",0.0457210629247,"['num_7']",NA,"","[1.0636981036514044]","['num_7']",1,5,NA,1,113,"Block2"
6,"2018-03-31",0.0503454771824,"['num_1']",NA,"","[0.14452360570430756, 0.6945109288208187]","['num_4', 'num_1']",0,5,NA,1,114,"Block2"
6,"2018-03-31",0.0442494722083,"['num_4']",NA,"","[1.0827024271711707, 2.266651296056807]","['num_7', 'num_4']",0,5,NA,1,115,"Block2"
6,"2018-03-31",0.0431495737284,"['num_0']",NA,"","[1.001782976090908]","['num_0']",1,5,NA,1,116,"Block2"
6,"2018-03-31",0.0475241416134,"['num_0']",NA,"","[0.7305384455248713]","['num_0']",1,5,NA,1,117,"Block2"
6,"2018-03-31",0.0484377834946,"['num_4']",NA,"","[1.8626304510980844]","['num_4']",1,5,NA,1,118,"Block2"
6,"2018-03-31",0.0426145987585,"['num_1']",NA,"","[0.9367187176831067]","['num_1']",1,5,NA,1,119,"Block2"
6,"2018-03-31",0.0557657890022,"['num_0']",NA,"","[2.221437720116228]","['num_0']",1,5,NA,1,120,"Block2"
6,"2018-03-31",0.045378498733,"['num_7']",NA,"","[1.1644050581380725]","['num_7']",1,6,NA,1,121,"Block2"
6,"2018-03-31",0.0445567546412,"['num_1']",NA,"","[1.8833348783664405]","['num_1']",1,6,NA,1,122,"Block2"
6,"2018-03-31",0.0496435277164,"['num_4']",NA,"","[1.1786553259007633]","['num_4']",1,6,NA,1,123,"Block2"
6,"2018-03-31",0.0519134784117,"['num_0']",NA,"","[0.4258575802668929]","['num_0']",1,6,NA,1,124,"Block2"
6,"2018-03-31",0.0537547105923,"['num_0']",NA,"","[0.7408363004215062]","['num_0']",1,6,NA,1,125,"Block2"
6,"2018-03-31",0.0508480421267,"['num_4']",NA,"","[1.3264958574436605]","['num_4']",1,6,NA,1,126,"Block2"
6,"2018-03-31",0.0492406557314,"['num_1']",NA,"","[0.7282163924537599]","['num_1']",1,6,NA,1,127,"Block2"
6,"2018-03-31",0.0511881443672,"['num_0']",NA,"","[0.5602712291292846]","['num_0']",1,6,NA,1,128,"Block2"
6,"2018-03-31",0.0431192149408,"['num_7']",NA,"","[1.051133580505848]","['num_7']",1,7,NA,1,129,"Block2"
6,"2018-03-31",0.0456939861178,"['num_1']",NA,"","[0.631925851572305]","['num_1']",1,7,NA,1,130,"Block2"
6,"2018-03-31",0.0497309127823,"['num_4']",NA,"","[0.5793469366617501]","['num_4']",1,7,NA,1,131,"Block2"
6,"2018-03-31",0.0533317360096,"['num_0']",NA,"","[0.30782425263896585]","['num_0']",1,7,NA,1,132,"Block2"
6,"2018-03-31",0.0432152152061,"['num_0']",NA,"","[0.4023260739631951]","['num_0']",1,7,NA,1,133,"Block2"
6,"2018-03-31",0.043368651066,"['num_4']",NA,"","[1.1851053829304874]","['num_4']",1,7,NA,1,134,"Block2"
6,"2018-03-31",0.0461341915652,"['num_1']",NA,"","[0.4643966886214912]","['num_1']",1,7,NA,1,135,"Block2"
6,"2018-03-31",0.0473645520397,"['num_0']",NA,"","[0.3636556826531887]","['num_0']",1,7,NA,1,136,"Block2"
6,"2018-03-31",0.0433805482462,"['num_7']",NA,"","[0.04920824570581317, 1.7826677192933857]","['num_0', 'num_7']",0,8,NA,1,137,"Block2"
6,"2018-03-31",0.0493772714399,"['num_1']",NA,"","[0.7763862782157958]","['num_1']",1,8,NA,1,138,"Block2"
6,"2018-03-31",0.0612148195505,"['num_4']",NA,"","[0.597109823487699]","['num_4']",1,8,NA,1,139,"Block2"
6,"2018-03-31",0.0434523434378,"['num_0']",NA,"","[0.16765265027061105]","['num_0']",1,8,NA,1,140,"Block2"
6,"2018-03-31",0.0473666032776,"['num_0']",NA,"","[0.028012330643832684, 1.0137768317945302]","['num_0', 'num_0']",0,8,NA,1,141,"Block2"
6,"2018-03-31",0.0502855796367,"['num_4']",NA,"","[1.227871366776526]","['num_4']",1,8,NA,1,142,"Block2"
6,"2018-03-31",0.0426281373948,"['num_1']",NA,"","[0.5855229417793453]","['num_1']",1,8,NA,1,143,"Block2"
6,"2018-03-31",0.0453370627947,"['num_0']",NA,"","[0.6991505222395062]","['num_0']",1,8,NA,1,144,"Block2"
6,"2018-03-31",0.0448074215092,"['num_7']",NA,"","[1.5504796314053237]","['num_7']",1,9,NA,1,145,"Block2"
6,"2018-03-31",0.0435975743458,"['num_1']",NA,"","[1.7188945384696126]","['num_1']",1,9,NA,1,146,"Block2"
6,"2018-03-31",0.0369337741286,"['num_4']",NA,"","[1.6243291278369725]","['num_4']",1,9,NA,1,147,"Block2"
6,"2018-03-31",0.0425091632642,"['num_0']",NA,"","[0.9199827034026384]","['num_0']",1,9,NA,1,148,"Block2"
6,"2018-03-31",0.0378925441764,"['num_0']",NA,"","[0.7395464526489377]","['num_0']",1,9,NA,1,149,"Block2"
6,"2018-03-31",0.0468578841537,"['num_4']",NA,"","[0.9471121616661549]","['num_4']",1,9,NA,1,150,"Block2"
6,"2018-03-31",0.0425953171216,"['num_1']",NA,"","[0.4854572187177837]","['num_1']",1,9,NA,1,151,"Block2"
6,"2018-03-31",0.0541481468827,"['num_0']",NA,"","[0.4081049505621195]","['num_0']",1,9,NA,1,152,"Block2"
6,"2018-03-31",0.0448546009138,"['num_7']",NA,"","[0.0002756929025053978, 0.997702972497791]","['num_0', 'num_7']",0,10,NA,1,153,"Block2"
6,"2018-03-31",0.0523352227174,"['num_1']",NA,"","[2.7925737788900733]","['num_1']",1,10,NA,1,154,"Block2"
6,"2018-03-31",0.0495060919784,"['num_4']",NA,"","[1.4787130081094801]","['num_4']",1,10,NA,1,155,"Block2"
6,"2018-03-31",0.0596640487202,"['num_0']",NA,"","[0.8849086235277355]","['num_0']",1,10,NA,1,156,"Block2"
6,"2018-03-31",0.0410909056664,"['num_0']",NA,"","[0.9700918728485703]","['num_0']",1,10,NA,1,157,"Block2"
6,"2018-03-31",0.0508681447245,"['num_4']",NA,"","[2.3269372936338186]","['num_4']",1,10,NA,1,158,"Block2"
6,"2018-03-31",0.0527409664355,"['num_1']",NA,"","[0.6917617982253432]","['num_1']",1,10,NA,1,159,"Block2"
6,"2018-03-31",0.0537383006886,"['num_0']",NA,"","[0.44356262031942606]","['num_0']",1,10,NA,1,160,"Block2"
6,"2018-03-31",0.0304365376942,"['num_4']",1,"num_4","[0.8655481971800327]","['num_4']",1,NA,NA,1,161,"Block3"
6,"2018-03-31",0.0476927570999,"['num_0']",1,"num_0","[0.7454012269154191]","['num_0']",1,NA,NA,1,162,"Block3"
6,"2018-03-31",0.0415175724775,"['num_1']",0,"num_1","[1.0182453482411802, 1.7353253215551376]","['num_4', 'num_1']",0,NA,NA,1,163,"Block3"
6,"2018-03-31",0.0527914278209,"['num_7']",1,"num_7","[1.4218128588981926]","['num_7']",1,NA,NA,1,164,"Block3"
6,"2018-03-31",0.0516152218916,"['num_1']",1,"num_1","[1.5082560065202415]","['num_1']",1,NA,NA,1,165,"Block3"
6,"2018-03-31",0.0524016837589,"['num_0']",1,"num_0","[0.687332256231457]","['num_0']",1,NA,NA,1,166,"Block3"
6,"2018-03-31",0.0448189084418,"['num_7']",1,"num_7","[0.9982182551175356]","['num_7']",1,NA,NA,1,167,"Block3"
6,"2018-03-31",0.0509493751451,"['num_4']",1,"num_4","[0.7428732248954475]","['num_4']",1,NA,NA,1,168,"Block3"
6,"2018-03-31",0.043415420223,"['num_7']",1,"num_7","[0.9664102289825678]","['num_7']",1,NA,NA,1,169,"Block3"
6,"2018-03-31",0.0499225025997,"['num_4']",1,"num_4","[0.49196266010403633]","['num_4']",1,NA,NA,1,170,"Block3"
6,"2018-03-31",0.0476755262353,"['num_0']",1,"num_0","[1.2107923780567944]","['num_0']",1,NA,NA,1,171,"Block3"
6,"2018-03-31",0.0407930589281,"['num_1']",1,"num_1","[0.7012887806631625]","['num_1']",1,NA,NA,1,172,"Block3"
6,"2018-03-31",0.0489838351496,"['num_4']",1,"num_4","[0.509805956389755]","['num_4']",1,NA,NA,1,173,"Block3"
6,"2018-03-31",0.0468603461049,"['num_7']",1,"num_7","[0.42956917313858867]","['num_7']",1,NA,NA,1,174,"Block3"
6,"2018-03-31",0.041749777738,"['num_0']",1,"num_0","[0.5178876044228673]","['num_0']",1,NA,NA,1,175,"Block3"
6,"2018-03-31",0.0459963455796,"['num_1']",1,"num_1","[0.43028507102280855]","['num_1']",1,NA,NA,1,176,"Block3"
6,"2018-03-31",0.0469251666218,"['num_0']",1,"num_0","[0.7461286121979356]","['num_0']",1,NA,NA,1,177,"Block3"
6,"2018-03-31",0.0455101914704,"['num_4']",1,"num_4","[0.980442650616169]","['num_4']",1,NA,NA,1,178,"Block3"
6,"2018-03-31",0.0452890628949,"['num_1']",1,"num_1","[0.7305868561379611]","['num_1']",1,NA,NA,1,179,"Block3"
6,"2018-03-31",0.0450437292457,"['num_7']",1,"num_7","[0.8314004773274064]","['num_7']",1,NA,NA,1,180,"Block3"
6,"2018-03-31",0.0453555244021,"['num_1']",1,"num_1","[0.7480884087271988]","['num_1']",1,NA,NA,1,181,"Block3"
6,"2018-03-31",0.0483910143375,"['num_4']",1,"num_4","[0.6944793392904103]","['num_4']",1,NA,NA,1,182,"Block3"
6,"2018-03-31",0.0432131639682,"['num_0']",1,"num_0","[0.9323929701931775]","['num_0']",1,NA,NA,1,183,"Block3"
6,"2018-03-31",0.0376648511738,"['num_7']",1,"num_7","[0.6920104138553143]","['num_7']",1,NA,NA,1,184,"Block3"
6,"2018-03-31",0.0481567573734,"['num_0']",1,"num_0","[1.1117847068235278]","['num_0']",1,NA,NA,1,185,"Block3"
6,"2018-03-31",0.0463869096711,"['num_4']",1,"num_4","[2.263446370139718]","['num_4']",1,NA,NA,1,186,"Block3"
6,"2018-03-31",0.0414662905969,"['num_1']",1,"num_1","[0.6509929443709552]","['num_1']",1,NA,NA,1,187,"Block3"
6,"2018-03-31",0.0489030145109,"['num_7']",1,"num_7","[1.361558040138334]","['num_7']",1,NA,NA,1,188,"Block3"
6,"2018-03-31",0.047554500401,"['num_0']",1,"num_0","[0.39484257996082306]","['num_0']",1,NA,NA,1,189,"Block3"
6,"2018-03-31",0.0401276228949,"['num_4']",1,"num_4","[0.5683627226389945]","['num_4']",1,NA,NA,1,190,"Block3"
6,"2018-03-31",0.0324615649879,"['num_1']",1,"num_1","[0.36032850109040737]","['num_1']",1,NA,NA,1,191,"Block3"
6,"2018-03-31",0.0451815752313,"['num_7']",1,"num_7","[0.41331356950104237]","['num_7']",1,NA,NA,1,192,"Block3"
6,"2018-03-31",0.0510490671732,"['num_7']",1,"num_7","[0.724507671315223]","['num_7']",1,NA,NA,1,193,"Block3"
6,"2018-03-31",0.0448591136374,"['num_4']",1,"num_4","[1.0454039350152016]","['num_4']",1,NA,NA,1,194,"Block3"
6,"2018-03-31",0.0573563547805,"['num_1']",1,"num_1","[0.71650315169245]","['num_1']",1,NA,NA,1,195,"Block3"
6,"2018-03-31",0.0438437280245,"['num_0']",1,"num_0","[0.5652021048590541]","['num_0']",1,NA,NA,1,196,"Block3"
6,"2018-03-31",0.0437198304571,"['num_1']",1,"num_1","[1.0320390006527305]","['num_1']",1,NA,NA,1,197,"Block3"
6,"2018-03-31",0.050946503412,"['num_4']",1,"num_4","[0.6904342076741159]","['num_4']",1,NA,NA,1,198,"Block3"
6,"2018-03-31",0.0452525499277,"['num_7']",1,"num_7","[0.5307163326069713]","['num_7']",1,NA,NA,1,199,"Block3"
6,"2018-03-31",0.0481423982419,"['num_0']",1,"num_0","[0.6442138617858291]","['num_0']",1,NA,NA,1,200,"Block3"
6,"2018-03-31",0.0448656780645,"['num_1']",1,"num_1","[0.897791916038841]","['num_1']",1,NA,NA,1,201,"Block3"
6,"2018-03-31",0.0585797401145,"['num_7']",1,"num_7","[1.4676430504769087]","['num_7']",1,NA,NA,1,202,"Block3"
6,"2018-03-31",0.046192037873,"['num_0']",1,"num_0","[0.4295449680648744]","['num_0']",1,NA,NA,1,203,"Block3"
6,"2018-03-31",0.0513711189851,"['num_4']",1,"num_4","[0.8413303317502141]","['num_4']",1,NA,NA,1,204,"Block3"
6,"2018-03-31",0.0465817814693,"['num_4']",1,"num_4","[0.6296608243137598]","['num_4']",1,NA,NA,1,205,"Block3"
6,"2018-03-31",0.051912247669,"['num_7']",1,"num_7","[0.8225980079732835]","['num_7']",1,NA,NA,1,206,"Block3"
6,"2018-03-31",0.0484443474561,"['num_1']",1,"num_1","[0.52832494629547]","['num_1']",1,NA,NA,1,207,"Block3"
6,"2018-03-31",0.0481054754928,"['num_0']",1,"num_0","[0.6781170694157481]","['num_0']",1,NA,NA,1,208,"Block3"
6,"2018-03-31",0.0416291621514,"['num_1']",1,"num_1","[0.6672748038545251]","['num_1']",1,NA,NA,1,209,"Block3"
6,"2018-03-31",0.0455938833766,"['num_7']",1,"num_7","[0.8139358470216393]","['num_7']",1,NA,NA,1,210,"Block3"
6,"2018-03-31",0.0496082459576,"['num_4']",1,"num_4","[0.5600894852541387]","['num_4']",1,NA,NA,1,211,"Block3"
6,"2018-03-31",0.0372767485678,"['num_0']",1,"num_0","[0.6389917037449777]","['num_0']",1,NA,NA,1,212,"Block3"
6,"2018-03-31",0.0506728622131,"['num_7']",1,"num_7","[0.9422703115269542]","['num_7']",1,NA,NA,1,213,"Block3"
6,"2018-03-31",0.0478018852882,"['num_0']",1,"num_0","[1.0960566941648722]","['num_0']",1,NA,NA,1,214,"Block3"
6,"2018-03-31",0.0434092665091,"['num_1']",1,"num_1","[1.0326892575249076]","['num_1']",1,NA,NA,1,215,"Block3"
6,"2018-03-31",0.0472213723697,"['num_4']",1,"num_4","[0.8120384099893272]","['num_4']",1,NA,NA,1,216,"Block3"
6,"2018-03-31",0.0440952153876,"['num_7']",1,"num_7","[0.6988912401720881]","['num_7']",1,NA,NA,1,217,"Block3"
6,"2018-03-31",0.0412082388066,"['num_1']",1,"num_1","[1.0854573007673025]","['num_1']",1,NA,NA,1,218,"Block3"
6,"2018-03-31",0.0612595374696,"['num_0']",1,"num_0","[0.6153633766807616]","['num_0']",1,NA,NA,1,219,"Block3"
6,"2018-03-31",0.0451561398804,"['num_4']",1,"num_4","[1.0303315119817853]","['num_4']",1,NA,NA,1,220,"Block3"
6,"2018-03-31",0.0440037287772,"['num_7']",1,"num_7","[0.8680372247472405]","['num_7']",1,NA,NA,1,221,"Block3"
6,"2018-03-31",0.0477247573435,"['num_0']",1,"num_0","[0.6781876333989203]","['num_0']",1,NA,NA,1,222,"Block3"
6,"2018-03-31",0.0490716299973,"['num_1']",1,"num_1","[0.5768591403029859]","['num_1']",1,NA,NA,1,223,"Block3"
6,"2018-03-31",0.0454260888509,"['num_4']",1,"num_4","[0.5641502062790096]","['num_4']",1,NA,NA,1,224,"Block3"
6,"2018-03-31",0.0418580858968,"['num_1']",1,"num_1","[0.720278334338218]","['num_1']",1,NA,NA,1,225,"Block3"
6,"2018-03-31",0.0438113179989,"['num_0']",1,"num_0","[0.6648637247271836]","['num_0']",1,NA,NA,1,226,"Block3"
6,"2018-03-31",0.0460160374641,"['num_7']",1,"num_7","[0.8306168867275119]","['num_7']",1,NA,NA,1,227,"Block3"
6,"2018-03-31",0.0428599324077,"['num_4']",1,"num_4","[0.8834394942969084]","['num_4']",1,NA,NA,1,228,"Block3"
6,"2018-03-31",0.0446868059225,"['num_0']",1,"num_0","[0.6479853522032499]","['num_0']",1,NA,NA,1,229,"Block3"
6,"2018-03-31",0.0480012702756,"['num_4']",1,"num_4","[1.0451380885206163]","['num_4']",1,NA,NA,1,230,"Block3"
6,"2018-03-31",0.0457912166603,"['num_7']",1,"num_7","[1.1473117107525468]","['num_7']",1,NA,NA,1,231,"Block3"
6,"2018-03-31",0.0417588031851,"['num_1']",1,"num_1","[0.9168052650056779]","['num_1']",1,NA,NA,1,232,"Block3"
6,"2018-03-31",0.0452369600534,"['num_1']",1,"num_1","[0.9633620209060609]","['num_1']",1,NA,NA,1,233,"Block3"
6,"2018-03-31",0.0539606595412,"['num_7']",1,"num_7","[1.071132366079837]","['num_7']",1,NA,NA,1,234,"Block3"
6,"2018-03-31",0.0510740932077,"['num_4']",1,"num_4","[0.9911950696259737]","['num_4']",1,NA,NA,1,235,"Block3"
6,"2018-03-31",0.0472057820298,"['num_0']",1,"num_0","[0.9961333298124373]","['num_0']",1,NA,NA,1,236,"Block3"
6,"2018-03-31",0.04835286038,"['num_7']",1,"num_7","[1.043950805440545]","['num_7']",1,NA,NA,1,237,"Block3"
6,"2018-03-31",0.0427516247146,"['num_0']",1,"num_0","[0.5165456547401845]","['num_0']",1,NA,NA,1,238,"Block3"
6,"2018-03-31",0.0520201451145,"['num_4']",1,"num_4","[0.9567757593467832]","['num_4']",1,NA,NA,1,239,"Block3"
6,"2018-03-31",0.0446400367655,"['num_1']",1,"num_1","[0.48176736989989877]","['num_1']",1,NA,NA,1,240,"Block3"
6,"2018-03-31",0.0369510045275,"['num_7']",NA,"","[1.113902862649411, 2.2630443181842566]","['num_1', 'num_7']",0,1,NA,1,241,"Block4"
6,"2018-03-31",0.0462946020998,"['num_1']",NA,"","[3.2494968199171126]","['num_1']",1,1,NA,1,242,"Block4"
6,"2018-03-31",0.0465768584982,"['num_4']",NA,"","[0.9822494215331972]","['num_4']",1,1,NA,1,243,"Block4"
6,"2018-03-31",0.0418773679994,"['num_0']",NA,"","[0.5840554535388947]","['num_0']",1,1,NA,1,244,"Block4"
6,"2018-03-31",0.0203967345878,"['num_0']",NA,"","[0.8758284109644592]","['num_0']",1,1,NA,1,245,"Block4"
6,"2018-03-31",0.0398744945414,"['num_4']",NA,"","[1.0877567897550762]","['num_4']",1,1,NA,1,246,"Block4"
6,"2018-03-31",0.0541612752713,"['num_1']",NA,"","[0.7066885796375573]","['num_1']",1,1,NA,1,247,"Block4"
6,"2018-03-31",0.0488049630076,"['num_0']",NA,"","[0.5135097545571625]","['num_0']",1,1,NA,1,248,"Block4"
6,"2018-03-31",0.0445760362782,"['num_7']",NA,"","[0.5488554248586297]","['num_7']",1,2,NA,1,249,"Block4"
6,"2018-03-31",0.0439212671481,"['num_1']",NA,"","[0.9002936617471278]","['num_1']",1,2,NA,1,250,"Block4"
6,"2018-03-31",0.0457255761139,"['num_4']",NA,"","[0.6314930310472846]","['num_4']",1,2,NA,1,251,"Block4"
6,"2018-03-31",0.0478543983772,"['num_0']",NA,"","[0.5472763464786112]","['num_0']",1,2,NA,1,252,"Block4"
6,"2018-03-31",0.0376693638973,"['num_0']",NA,"","[0.6910225157625973]","['num_0']",1,2,NA,1,253,"Block4"
6,"2018-03-31",0.0473444489762,"['num_4']",NA,"","[0.9809099328704178]","['num_4']",1,2,NA,1,254,"Block4"
6,"2018-03-31",0.0513411704451,"['num_1']",NA,"","[0.5434761382639408]","['num_1']",1,2,NA,1,255,"Block4"
6,"2018-03-31",0.0469292690977,"['num_0']",NA,"","[0.7806636146269739]","['num_0']",1,2,NA,1,256,"Block4"
6,"2018-03-31",0.0238063782454,"['num_7']",NA,"","[0.939816155936569]","['num_7']",1,3,NA,1,257,"Block4"
6,"2018-03-31",0.0430158302188,"['num_1']",NA,"","[0.8687732256948948]","['num_1']",1,3,NA,1,258,"Block4"
6,"2018-03-31",0.04656291008,"['num_4']",NA,"","[0.6482122237794101]","['num_4']",1,3,NA,1,259,"Block4"
6,"2018-03-31",0.0477058850229,"['num_0']",NA,"","[0.698026008438319]","['num_0']",1,3,NA,1,260,"Block4"
6,"2018-03-31",0.0516410679556,"['num_0']",NA,"","[1.059318202547729]","['num_0']",1,3,NA,1,261,"Block4"
6,"2018-03-31",0.048733167816,"['num_4']",NA,"","[1.0622970769181848]","['num_4']",1,3,NA,1,262,"Block4"
6,"2018-03-31",0.054420968052,"['num_1']",NA,"","[0.49009927408769727]","['num_1']",1,3,NA,1,263,"Block4"
6,"2018-03-31",0.0529924537987,"['num_0']",NA,"","[0.6253806157037616]","['num_0']",1,3,NA,1,264,"Block4"
6,"2018-03-31",0.0442158314399,"['num_7']",NA,"","[1.1156284026801586]","['num_7']",1,4,NA,1,265,"Block4"
6,"2018-03-31",0.046801679302,"['num_1']",NA,"","[0.9649275611154735]","['num_1']",1,4,NA,1,266,"Block4"
6,"2018-03-31",0.0512861958705,"['num_4']",NA,"","[0.5093530332669616]","['num_4']",1,4,NA,1,267,"Block4"
6,"2018-03-31",0.0486388094723,"['num_0']",NA,"","[0.5120779587887228]","['num_0']",1,4,NA,1,268,"Block4"
6,"2018-03-31",0.0511097856797,"['num_0']",NA,"","[0.7259181342087686]","['num_0']",1,4,NA,1,269,"Block4"
6,"2018-03-31",0.0442572669126,"['num_4']",NA,"","[0.9839921919628978]","['num_4']",1,4,NA,1,270,"Block4"
6,"2018-03-31",0.0532254795544,"['num_1']",NA,"","[1.0418404447846115]","['num_1']",1,4,NA,1,271,"Block4"
6,"2018-03-31",0.044977677986,"['num_0']",NA,"","[0.6833105096593499]","['num_0']",1,4,NA,1,272,"Block4"
6,"2018-03-31",0.0460312175564,"['num_7']",NA,"","[0.5796915525570512]","['num_7']",1,5,NA,1,273,"Block4"
6,"2018-03-31",0.0390383908525,"['num_1']",NA,"","[0.5720960590988398]","['num_1']",1,5,NA,1,274,"Block4"
6,"2018-03-31",0.0409333673306,"['num_4']",NA,"","[0.5205329400487244]","['num_4']",1,5,NA,1,275,"Block4"
6,"2018-03-31",0.0470228078775,"['num_0']",NA,"","[0.38014841452240944]","['num_0']",1,5,NA,1,276,"Block4"
6,"2018-03-31",0.0453276271001,"['num_0']",NA,"","[0.6996678560972214]","['num_0']",1,5,NA,1,277,"Block4"
6,"2018-03-31",0.0485333730467,"['num_4']",NA,"","[0.4460434429347515]","['num_4']",1,5,NA,1,278,"Block4"
6,"2018-03-31",0.0458297813311,"['num_1']",NA,"","[0.41470516100525856]","['num_1']",1,5,NA,1,279,"Block4"
6,"2018-03-31",0.0506113232113,"['num_0']",NA,"","[0.3435916663147509, 0.927906402386725]","['num_7', 'num_0']",0,5,NA,1,280,"Block4"
6,"2018-03-31",0.0420833164826,"['num_7']",NA,"","[0.8508515697903931]","['num_7']",1,6,NA,1,281,"Block4"
6,"2018-03-31",0.0412710080855,"['num_1']",NA,"","[0.6696005496196449]","['num_1']",1,6,NA,1,282,"Block4"
6,"2018-03-31",0.0460070120171,"['num_4']",NA,"","[0.448504573199898]","['num_4']",1,6,NA,1,283,"Block4"
6,"2018-03-31",0.0433698818088,"['num_0']",NA,"","[0.38498370070010424]","['num_0']",1,6,NA,1,284,"Block4"
6,"2018-03-31",0.0509222983383,"['num_0']",NA,"","[0.6263746675103903]","['num_0']",1,6,NA,1,285,"Block4"
6,"2018-03-31",0.044589985162,"['num_4']",NA,"","[2.200154420454055]","['num_4']",1,6,NA,1,286,"Block4"
6,"2018-03-31",0.0560012771748,"['num_1']",NA,"","[0.654628639575094]","['num_1']",1,6,NA,1,287,"Block4"
6,"2018-03-31",0.0428189071827,"['num_0']",NA,"","[0.7359480909071863]","['num_0']",1,6,NA,1,288,"Block4"
6,"2018-03-31",0.0447348058224,"['num_7']",NA,"","[0.43202825216576457]","['num_7']",1,7,NA,1,289,"Block4"
6,"2018-03-31",0.0493067074567,"['num_1']",NA,"","[1.0118461633101106]","['num_1']",1,7,NA,1,290,"Block4"
6,"2018-03-31",0.0466925511137,"['num_4']",NA,"","[0.8143050787039101]","['num_4']",1,7,NA,1,291,"Block4"
6,"2018-03-31",0.0466223969124,"['num_0']",NA,"","[0.6481564291752875]","['num_0']",1,7,NA,1,292,"Block4"
6,"2018-03-31",0.0475778849795,"['num_0']",NA,"","[0.6961375968530774]","['num_0']",1,7,NA,1,293,"Block4"
6,"2018-03-31",0.0559705076739,"['num_4']",NA,"","[1.0051495428197086]","['num_4']",1,7,NA,1,294,"Block4"
6,"2018-03-31",0.045717780944,"['num_1']",NA,"","[0.5651467200368643]","['num_1']",1,7,NA,1,295,"Block4"
6,"2018-03-31",0.045856858138,"['num_0']",NA,"","[1.0490839374251664]","['num_0']",1,7,NA,1,296,"Block4"
6,"2018-03-31",0.045201677829,"['num_7']",NA,"","[1.214450637344271]","['num_7']",1,8,NA,1,297,"Block4"
6,"2018-03-31",0.0426630093716,"['num_1']",NA,"","[0.9017919194884598]","['num_1']",1,8,NA,1,298,"Block4"
6,"2018-03-31",0.0481239371002,"['num_4']",NA,"","[0.6973154442384839]","['num_4']",1,8,NA,1,299,"Block4"
6,"2018-03-31",0.0496915280819,"['num_0']",NA,"","[0.5787688852287829]","['num_0']",1,8,NA,1,300,"Block4"
6,"2018-03-31",0.0482531678863,"['num_0']",NA,"","[0.9794408036395907]","['num_0']",1,8,NA,1,301,"Block4"
6,"2018-03-31",0.0516537856311,"['num_4']",NA,"","[1.0260061752051115]","['num_4']",1,8,NA,1,302,"Block4"
6,"2018-03-31",0.0442650620826,"['num_1']",NA,"","[0.5506371697410941]","['num_1']",1,8,NA,1,303,"Block4"
6,"2018-03-31",0.0411069053225,"['num_0']",NA,"","[0.5708082634955645]","['num_0']",1,8,NA,1,304,"Block4"
6,"2018-03-31",0.0524619920179,"['num_7']",NA,"","[0.9404360540211201]","['num_7']",1,9,NA,1,305,"Block4"
6,"2018-03-31",0.0492701944895,"['num_1']",NA,"","[0.9291806598193944]","['num_1']",1,9,NA,1,306,"Block4"
6,"2018-03-31",0.0496377842501,"['num_4']",NA,"","[0.5775504228658974]","['num_4']",1,9,NA,1,307,"Block4"
6,"2018-03-31",0.0533223003149,"['num_0']",NA,"","[0.8078870219178498]","['num_0']",1,9,NA,1,308,"Block4"
6,"2018-03-31",0.0430490607396,"['num_0']",NA,"","[1.468980077188462]","['num_0']",1,9,NA,1,309,"Block4"
6,"2018-03-31",0.0462420894764,"['num_4']",NA,"","[1.0816558618098497]","['num_4']",1,9,NA,1,310,"Block4"
6,"2018-03-31",0.0441436260007,"['num_1']",NA,"","[1.382202569860965]","['num_1']",1,9,NA,1,311,"Block4"
6,"2018-03-31",0.0472353207879,"['num_0']",NA,"","[0.713612072635442]","['num_0']",1,9,NA,1,312,"Block4"
6,"2018-03-31",0.0436492664739,"['num_7']",NA,"","[1.3654669662937522]","['num_7']",1,10,NA,1,313,"Block4"
6,"2018-03-31",0.0499167586677,"['num_1']",NA,"","[0.9125488512217999]","['num_1']",1,10,NA,1,314,"Block4"
6,"2018-03-31",0.04768250091,"['num_4']",NA,"","[0.4969899458810687]","['num_4']",1,10,NA,1,315,"Block4"
6,"2018-03-31",0.0533584025688,"['num_0']",NA,"","[0.6418934497050941]","['num_0']",1,10,NA,1,316,"Block4"
6,"2018-03-31",0.0507717337459,"['num_0']",NA,"","[0.6763874269090593]","['num_0']",1,10,NA,1,317,"Block4"
6,"2018-03-31",0.0499906050973,"['num_4']",NA,"","[1.4271798375993967]","['num_4']",1,10,NA,1,318,"Block4"
6,"2018-03-31",0.0504152206704,"['num_1']",NA,"","[1.011833855882287]","['num_1']",1,10,NA,1,319,"Block4"
6,"2018-03-31",0.0420160344802,"['num_0']",NA,"","[0.5359274144284427]","['num_0']",1,10,NA,1,320,"Block4"
51,"2018-04-03",0.0255310873963,"['num_7']",NA,"","[3.458623777896719]","['num_7']",1,1,NA,1,1,"Block1"
51,"2018-04-03",0.023213137727,"['num_1']",NA,"","[0.37059010075608967, 1.8538928631351155]","['num_4', 'num_1']",0,1,NA,1,2,"Block1"
51,"2018-04-03",0.0232988813532,"['num_4']",NA,"","[1.5373138614613708]","['num_4']",1,1,NA,1,3,"Block1"
51,"2018-04-03",0.0237842148854,"['num_0']",NA,"","[0.603886606721062]","['num_0']",1,1,NA,1,4,"Block1"
51,"2018-04-03",0.0239331380235,"['num_0']",NA,"","[0.5535464835065795]","['num_0']",1,1,NA,1,5,"Block1"
51,"2018-04-03",0.023583599419,"['num_4']",NA,"","[0.0003323078290122794, 1.0203347775732254]","['num_0', 'num_4']",0,1,NA,1,6,"Block1"
51,"2018-04-03",0.0236599071432,"['num_1']",NA,"","[0.837131830618091]","['num_1']",1,1,NA,1,7,"Block1"
51,"2018-04-03",0.0233259582874,"['num_0']",NA,"","[0.3374901897386735]","['num_0']",1,1,NA,1,8,"Block1"
51,"2018-04-03",0.0232525223601,"['num_7']",NA,"","[0.9535868527527782]","['num_7']",1,2,NA,1,9,"Block1"
51,"2018-04-03",0.0243314971631,"['num_1']",NA,"","[0.9363638713293767]","['num_1']",1,2,NA,1,10,"Block1"
51,"2018-04-03",0.0235598045365,"['num_4']",NA,"","[1.3198450542968203]","['num_4']",1,2,NA,1,11,"Block1"
51,"2018-04-03",0.0236882148456,"['num_0']",NA,"","[0.42007155695318943]","['num_0']",1,2,NA,1,12,"Block1"
51,"2018-04-03",0.0244771382477,"['num_0']",NA,"","[0.7364696354761691]","['num_0']",1,2,NA,1,13,"Block1"
51,"2018-04-03",0.0233353941876,"['num_4']",NA,"","[0.9204799673771049]","['num_4']",1,2,NA,1,14,"Block1"
51,"2018-04-03",0.0231938556699,"['num_1']",NA,"","[1.1874314615106414]","['num_1']",1,2,NA,1,15,"Block1"
51,"2018-04-03",0.0223647271232,"['num_0']",NA,"","[0.9879269694047252]","['num_0']",1,2,NA,1,16,"Block1"
51,"2018-04-03",0.0237522148727,"['num_7']",NA,"","[0.9032134987537574]","['num_7']",1,3,NA,1,17,"Block1"
51,"2018-04-03",0.023260727492,"['num_1']",NA,"","[0.8377340872757486, 2.1377383129183727]","['num_4', 'num_1']",0,3,NA,1,18,"Block1"
51,"2018-04-03",0.0235257532422,"['num_4']",NA,"","[1.620738305944542]","['num_4']",1,3,NA,1,19,"Block1"
51,"2018-04-03",0.0235967276294,"['num_0']",NA,"","[0.5872498819499015]","['num_0']",1,3,NA,1,20,"Block1"
51,"2018-04-03",0.0234978557928,"['num_0']",NA,"","[0.5206480084707437]","['num_0']",1,3,NA,1,21,"Block1"
51,"2018-04-03",0.0230974453734,"['num_4']",NA,"","[1.154280678680152]","['num_4']",1,3,NA,1,22,"Block1"
51,"2018-04-03",0.0230346761164,"['num_1']",NA,"","[1.137733800096612]","['num_1']",1,3,NA,1,23,"Block1"
51,"2018-04-03",0.0241944714635,"['num_0']",NA,"","[0.7202841929374699]","['num_0']",1,3,NA,1,24,"Block1"
51,"2018-04-03",0.0235700609519,"['num_7']",NA,"","[1.1866097175843606]","['num_7']",1,4,NA,1,25,"Block1"
51,"2018-04-03",0.0240812406482,"['num_1']",NA,"","[1.1035052732331678]","['num_1']",1,4,NA,1,26,"Block1"
51,"2018-04-03",0.0228878042599,"['num_4']",NA,"","[1.4715300396019302, 1.754879899437583, 2.1214158446819056]","['num_1', 'num_1', 'num_4']",0,4,NA,1,27,"Block1"
51,"2018-04-03",0.070106695428,"['num_0']",NA,"","[0.4584859316873917, 1.0897776778583648]","['num_4', 'num_0', 'num_0']",0,4,NA,1,28,"Block1"
51,"2018-04-03",0.0512041235706,"['num_0']",NA,"","[0.00036512835504254326, 1.9599396758731018]","['num_0', 'num_0']",0,4,NA,1,29,"Block1"
51,"2018-04-03",0.051172123558,"['num_4']",NA,"","[1.026694164798755]","['num_4']",1,4,NA,1,30,"Block1"
51,"2018-04-03",0.0511696620179,"['num_1']",NA,"","[0.17512991800140298, 0.9252163795754313]","['num_7', 'num_1']",0,4,NA,1,31,"Block1"
51,"2018-04-03",0.0603151016676,"['num_0']",NA,"","[0.40016426673355454]","['num_0']",1,4,NA,1,32,"Block1"
51,"2018-04-03",0.0560673050531,"['num_7']",NA,"","[0.7365369175549858]","['num_7']",1,5,NA,1,33,"Block1"
51,"2018-04-03",0.0519548931097,"['num_1']",NA,"","[0.9582732136514096]","['num_1']",1,5,NA,1,34,"Block1"
51,"2018-04-03",0.0478728401522,"['num_4']",NA,"","[0.9477899272987997]","['num_4']",1,5,NA,1,35,"Block1"
51,"2018-04-03",0.0469300705354,"['num_0']",NA,"","[0.00022071803869039286, 0.3974922656379931, 1.3664042528835125]","['num_1', 'num_4', 'num_0']",0,5,NA,1,36,"Block1"
51,"2018-04-03",0.05357950916,"['num_0']",NA,"","[0.0002896411460824311, 0.9086026291697635]","['num_4', 'num_0']",0,5,NA,1,37,"Block1"
51,"2018-04-03",0.0499557128023,"['num_4']",NA,"","[3.244153946319784]","['num_4']",1,5,NA,1,38,"Block1"
51,"2018-04-03",0.0515667903874,"['num_1']",NA,"","[0.0002933334526460385, 3.1933576177871146, 3.677999047384219, 4.544487197737908]","['num_1', 'num_0', 'num_4', 'num_1']",0,5,NA,1,39,"Block1"
51,"2018-04-03",0.0533764321553,"['num_0']",NA,"","[6.2903956063164514]","['num_0']",1,5,NA,1,40,"Block1"
51,"2018-04-03",0.053481047582,"['num_7']",NA,"","[2.57211756804827]","['num_7']",1,6,NA,1,41,"Block1"
51,"2018-04-03",0.0556779715607,"['num_1']",NA,"","[2.10523286368516, 2.6725254041139124]","['num_4', 'num_1']",0,6,NA,1,42,"Block1"
51,"2018-04-03",0.0513674056892,"['num_4']",NA,"","[0.9932635869790829]","['num_4']",1,6,NA,1,43,"Block1"
51,"2018-04-03",0.0504808412243,"['num_0']",NA,"","[0.8774764625541138]","['num_0']",1,6,NA,1,44,"Block1"
51,"2018-04-03",0.0521399188274,"['num_0']",NA,"","[5.844133679644074]","['num_0']",1,6,NA,1,45,"Block1"
51,"2018-04-03",0.051798585353,"['num_4']",NA,"","[1.1931885920766945]","['num_4']",1,6,NA,1,46,"Block1"
51,"2018-04-03",0.05784453655,"['num_1']",NA,"","[0.12019122879610222, 1.686774435600455]","['num_7', 'num_1']",0,6,NA,1,47,"Block1"
51,"2018-04-03",0.0570945875261,"['num_0']",NA,"","[0.7539687195767328]","['num_0']",1,6,NA,1,48,"Block1"
51,"2018-04-03",0.0470539680227,"['num_7']",NA,"","[0.8145521290462057]","['num_7']",1,7,NA,1,49,"Block1"
51,"2018-04-03",0.0403836063106,"['num_1']",NA,"","[1.1717580191816523]","['num_1']",1,7,NA,1,50,"Block1"
51,"2018-04-03",0.0503635078403,"['num_4']",NA,"","[1.278805447715058]","['num_4']",1,7,NA,1,51,"Block1"
51,"2018-04-03",0.0622478204095,"['num_0']",NA,"","[0.5815854693682923]","['num_0']",1,7,NA,1,52,"Block1"
51,"2018-04-03",0.0582371520977,"['num_0']",NA,"","[0.6529881653295888]","['num_0']",1,7,NA,1,53,"Block1"
51,"2018-04-03",0.0495421741707,"['num_4']",NA,"","[0.7446091259935201]","['num_4']",1,7,NA,1,54,"Block1"
51,"2018-04-03",0.0595105885186,"['num_1']",NA,"","[0.8014501749548799]","['num_1']",1,7,NA,1,55,"Block1"
51,"2018-04-03",0.051537251913,"['num_0']",NA,"","[0.6096921475655108]","['num_0']",1,7,NA,1,56,"Block1"
51,"2018-04-03",0.0529177652988,"['num_7']",NA,"","[0.8897135957795399]","['num_7']",1,8,NA,1,57,"Block1"
51,"2018-04-03",0.054324945364,"['num_1']",NA,"","[1.0734909019447514]","['num_1']",1,8,NA,1,58,"Block1"
51,"2018-04-03",0.0645304880127,"['num_4']",NA,"","[0.3956727777112974, 1.296298788225613]","['num_0', 'num_4']",0,8,NA,1,59,"Block1"
51,"2018-04-03",0.0567151001924,"['num_0']",NA,"","[0.3870405690431653]","['num_0']",1,8,NA,1,60,"Block1"
51,"2018-04-03",0.0552361252248,"['num_0']",NA,"","[1.1728423273198132]","['num_0']",1,8,NA,1,61,"Block1"
51,"2018-04-03",0.0478400196262,"['num_4']",NA,"","[1.6300646687450353]","['num_4']",1,8,NA,1,62,"Block1"
51,"2018-04-03",0.0533587911214,"['num_1']",NA,"","[0.9089304241751961]","['num_1']",1,8,NA,1,63,"Block1"
51,"2018-04-03",0.0521669957616,"['num_0']",NA,"","[0.49209456085918646, 1.6425721610557957]","['num_1', 'num_0', 'num_0']",0,8,NA,1,64,"Block1"
51,"2018-04-03",0.0623241281337,"['num_7']",NA,"","[0.6123452768588322]","['num_7']",1,9,NA,1,65,"Block1"
51,"2018-04-03",0.0560738691602,"['num_1']",NA,"","[2.137994723279917]","['num_1']",1,9,NA,1,66,"Block1"
51,"2018-04-03",0.055543817658,"['num_4']",NA,"","[0.00029989755967108067, 1.505669540787494]","['num_0', 'num_4']",0,9,NA,1,67,"Block1"
51,"2018-04-03",0.0557165356786,"['num_0']",NA,"","[0.83996916511569]","['num_0']",1,9,NA,1,68,"Block1"
51,"2018-04-03",0.0606227941025,"['num_0']",NA,"","[0.5497807383708277]","['num_0']",1,9,NA,1,69,"Block1"
51,"2018-04-03",0.0552065867523,"['num_4']",NA,"","[1.2061937256185047]","['num_4']",1,9,NA,1,70,"Block1"
51,"2018-04-03",0.0518182776686,"['num_1']",NA,"","[1.1267742058553267]","['num_1']",1,9,NA,1,71,"Block1"
51,"2018-04-03",0.0567684335474,"['num_0']",NA,"","[1.4550344430917903]","['num_0']",1,9,NA,1,72,"Block1"
51,"2018-04-03",0.0538765349229,"['num_7']",NA,"","[1.088600651733941]","['num_7']",1,10,NA,1,73,"Block1"
51,"2018-04-03",0.0543651505086,"['num_1']",NA,"","[0.8549242481749388]","['num_1']",1,10,NA,1,74,"Block1"
51,"2018-04-03",0.0515544826885,"['num_4']",NA,"","[0.7763510877339286]","['num_4']",1,10,NA,1,75,"Block1"
51,"2018-04-03",0.0493846356458,"['num_0']",NA,"","[0.5787953143772029]","['num_0']",1,10,NA,1,76,"Block1"
51,"2018-04-03",0.0519425854127,"['num_0']",NA,"","[1.3756083592234063]","['num_0']",1,10,NA,1,77,"Block1"
51,"2018-04-03",0.0570420746826,"['num_4']",NA,"","[1.0884041388326295]","['num_4']",1,10,NA,1,78,"Block1"
51,"2018-04-03",0.0809526485955,"['num_1']",NA,"","[1.3140633083330613, 1.797833352957241]","['num_0', 'num_1']",0,10,NA,1,79,"Block1"
51,"2018-04-03",0.0502695590858,"['num_0']",NA,"","[0.0002900514009525068, 0.8780500012526318]","['num_1', 'num_0']",0,10,NA,1,80,"Block1"
51,"2018-04-03",0.0510629953078,"['num_7']",NA,"","[0.0003023590979864821, 1.0744143895044544]","['num_0', 'num_0', 'num_7', 'num_7']",0,1,NA,1,81,"Block2"
51,"2018-04-03",0.0523438163455,"['num_1']",NA,"","[0.808903716473651]","['num_1']",1,1,NA,1,82,"Block2"
51,"2018-04-03",0.056476330863,"['num_4']",NA,"","[0.6050451712999347]","['num_4']",1,1,NA,1,83,"Block2"
51,"2018-04-03",0.0581657674538,"['num_0']",NA,"","[0.3693334848539962]","['num_0']",1,1,NA,1,84,"Block2"
51,"2018-04-03",0.0465169421623,"['num_0']",NA,"","[0.4659936270745675]","['num_0']",1,1,NA,1,85,"Block2"
51,"2018-04-03",0.059693562951,"['num_4']",NA,"","[0.9188024282266269]","['num_4']",1,1,NA,1,86,"Block2"
51,"2018-04-03",0.0528193037208,"['num_1']",NA,"","[0.774994369228807]","['num_1']",1,1,NA,1,87,"Block2"
51,"2018-04-03",0.0582428956877,"['num_0']",NA,"","[0.3858385172661656]","['num_0']",1,1,NA,1,88,"Block2"
51,"2018-04-03",0.0521788932019,"['num_7']",NA,"","[0.9243765843602887]","['num_7']",1,2,NA,1,89,"Block2"
51,"2018-04-03",0.0593432038331,"['num_1']",NA,"","[1.0349005271382339]","['num_1']",1,2,NA,1,90,"Block2"
51,"2018-04-03",0.0548172532581,"['num_4']",NA,"","[0.6406451859056688]","['num_4']",1,2,NA,1,91,"Block2"
51,"2018-04-03",0.0558396126526,"['num_0']",NA,"","[1.6215571780739992]","['num_0']",1,2,NA,1,92,"Block2"
51,"2018-04-03",0.0584168444802,"['num_0']",NA,"","[1.036984220301747]","['num_0']",1,2,NA,1,93,"Block2"
51,"2018-04-03",0.054583407009,"['num_4']",NA,"","[0.9398613086614205]","['num_4']",1,2,NA,1,94,"Block2"
51,"2018-04-03",0.0537793041149,"['num_1']",NA,"","[0.4907119961899298]","['num_1']",1,2,NA,1,95,"Block2"
51,"2018-04-03",0.0526929446951,"['num_0']",NA,"","[0.3761047696843889]","['num_0']",1,2,NA,1,96,"Block2"
51,"2018-04-03",0.052368841998,"['num_7']",NA,"","[1.0407536577458814]","['num_7']",1,3,NA,1,97,"Block2"
51,"2018-04-03",0.0615023842056,"['num_1']",NA,"","[0.8819716438847536]","['num_1']",1,3,NA,1,98,"Block2"
51,"2018-04-03",0.0553358175748,"['num_4']",NA,"","[0.88961472394476]","['num_4']",1,3,NA,1,99,"Block2"
51,"2018-04-03",0.0531093551217,"['num_0']",NA,"","[0.6749126871436602]","['num_0']",1,3,NA,1,100,"Block2"
51,"2018-04-03",0.0514658672691,"['num_0']",NA,"","[1.7439703565014497]","['num_0']",1,3,NA,1,101,"Block2"
51,"2018-04-03",0.056923510534,"['num_4']",NA,"","[1.404981909736307]","['num_4']",1,3,NA,1,102,"Block2"
51,"2018-04-03",0.0521485342142,"['num_1']",NA,"","[0.8755978976823826, 1.5592490499493579]","['num_0', 'num_1']",0,3,NA,1,103,"Block2"
51,"2018-04-03",0.0548451507057,"['num_0']",NA,"","[0.00030646166305814404, 0.9068569874289096]","['num_1', 'num_0']",0,3,NA,1,104,"Block2"
51,"2018-04-03",0.055103202094,"['num_7']",NA,"","[1.1533165757209645]","['num_7']",1,4,NA,1,105,"Block2"
51,"2018-04-03",0.053076124339,"['num_1']",NA,"","[1.074891928161378]","['num_1']",1,4,NA,1,106,"Block2"
51,"2018-04-03",0.0477021734168,"['num_4']",NA,"","[0.9635249081129587]","['num_4']",1,4,NA,1,107,"Block2"
51,"2018-04-03",0.0517440212279,"['num_0']",NA,"","[0.3770134880069236]","['num_0']",1,4,NA,1,108,"Block2"
51,"2018-04-03",0.0523319189051,"['num_0']",NA,"","[1.9916722017114807]","['num_0']",1,4,NA,1,109,"Block2"
51,"2018-04-03",0.0588061779708,"['num_4']",NA,"","[1.1671114531727653]","['num_4']",1,4,NA,1,110,"Block2"
51,"2018-04-03",0.0226244195364,"['num_1']",NA,"","[1.6046509147290635]","['num_1']",1,4,NA,1,111,"Block2"
51,"2018-04-03",0.0246810357658,"['num_0']",NA,"","[0.3368341894711193]","['num_0']",1,4,NA,1,112,"Block2"
51,"2018-04-03",0.028506268105,"['num_7']",NA,"","[0.2316673770928901, 1.1485965737829247]","['num_0', 'num_7']",0,5,NA,1,113,"Block2"
51,"2018-04-03",0.0232615480054,"['num_1']",NA,"","[0.9705919879343128]","['num_1']",1,5,NA,1,114,"Block2"
51,"2018-04-03",0.0223602143014,"['num_4']",NA,"","[1.254443181309398]","['num_4']",1,5,NA,1,115,"Block2"
51,"2018-04-03",0.0243425740882,"['num_0']",NA,"","[0.6516962673631497]","['num_0']",1,5,NA,1,116,"Block2"
51,"2018-04-03",0.0240586765376,"['num_0']",NA,"","[0.7553016431993456]","['num_0']",1,5,NA,1,117,"Block2"
51,"2018-04-03",0.0556078176869,"['num_4']",NA,"","[2.1906622320675524, 3.3037371502523456]","['num_1', 'num_4']",0,5,NA,1,118,"Block2"
51,"2018-04-03",0.0579105878605,"['num_1']",NA,"","[1.503055796125409]","['num_1']",1,5,NA,1,119,"Block2"
51,"2018-04-03",0.048760635389,"['num_0']",NA,"","[0.3455660904874094]","['num_0']",1,5,NA,1,120,"Block2"
51,"2018-04-03",0.0576845364849,"['num_7']",NA,"","[1.0018441033207637]","['num_7']",1,6,NA,1,121,"Block2"
51,"2018-04-03",0.0573366389071,"['num_1']",NA,"","[0.0003072821764362743, 0.07027818267852126]","['num_4', 'num_1']",0,6,NA,1,122,"Block2"
51,"2018-04-03",0.0553403303948,"['num_4']",NA,"","[0.00028717960594804026, 0.1229272299187869, 0.33943398540941416, 0.589423421301035, 0.8069915105606924]","['num_0', 'num_1', 'num_7', 'num_0', 'num_7', 'num_4', 'num_4']",0,6,NA,1,123,"Block2"
51,"2018-04-03",0.0516968417214,"['num_0']",NA,"","[0.00031671807846578304, 0.024579702390838065, 0.1754737130140711, 0.2756932413103641, 0.5920831146995624]","['num_7', 'num_0', 'num_7', 'num_1', 'num_0']",0,6,NA,1,124,"Block2"
51,"2018-04-03",0.0455996084511,"['num_0']",NA,"","[0.23220973629031505]","['num_0']",1,6,NA,1,125,"Block2"
51,"2018-04-03",0.0560184845199,"['num_4']",NA,"","[0.17216745524819999, 0.8724541015199065, 1.1069510182351223, 1.8729472299273766, 1.905380474001504]","['num_0', 'num_0', 'num_4', 'num_1', 'num_0', 'num_1', 'num_0', 'num_4']",0,6,NA,1,126,"Block2"
51,"2018-04-03",0.0541222786142,"['num_1']",NA,"","[0.0003081026898144046, 0.1419569813169801, 0.1893986418053828, 0.5388104774610838]","['num_7', 'num_4', 'num_1', 'num_0', 'num_7', 'num_4', 'num_1', 'num_0', 'num_1']",0,6,NA,1,127,"Block2"
51,"2018-04-03",0.0548406378839,"['num_0']",NA,"","[0.00026871805857808795, 0.1395844675225817, 0.15627698719072214, 0.6231863069479004]","['num_0', 'num_4', 'num_0', 'num_1', 'num_4', 'num_7', 'num_0']",0,6,NA,1,128,"Block2"
51,"2018-04-03",0.0555003304617,"['num_7']",NA,"","[0.00032820526394061744, 0.2860128352876927, 0.30263602159539005, 0.4025728831074957, 0.7523461548098567, 0.7692634950835782, 0.7852774503699038, 1.1871873588461312, 1.6360392352980853, 2.05311181666184, 2.086385266209618, 2.48563014795036, 2.502190154744312, 2.5856166505091096, 2.9685575255625736]","['num_4', 'num_1', 'num_7', 'num_0', 'num_1', 'num_0', 'num_1', 'num_7', 'num_4', 'num_1', 'num_7', 'num_4', 'num_0', 'num_7', 'num_4', 'num_1', 'num_0', 'num_7', 'num_4', 'num_1', 'num_0', 'num_0', 'num_7', 'num_4', 'num_1', 'num_7', 'num_0', 'num_1', 'num_4', 'num_7']",0,7,NA,1,129,"Block2"
51,"2018-04-03",0.0586662804799,"['num_1']",NA,"","[0.0008570259924454149, 0.016973545423752512, 0.45122274921959615, 1.8007014566974249, 2.33503521437342, 2.617621586716268]","['num_0', 'num_1', 'num_7', 'num_4', 'num_1', 'num_0', 'num_7', 'num_7', 'num_0', 'num_1']",0,7,NA,1,130,"Block2"
51,"2018-04-03",0.0567860745796,"['num_4']",NA,"","[0.0004984617426089244, 0.1368197484389384, 0.303515201441769, 0.7704926237911423]","['num_1', 'num_1', 'num_1', 'num_1', 'num_4']",0,7,NA,1,131,"Block2"
51,"2018-04-03",0.053961047779,"['num_0']",NA,"","[0.9896463547265739]","['num_0']",1,7,NA,1,132,"Block2"
51,"2018-04-03",0.0546716121735,"['num_0']",NA,"","[0.48926871354524337]","['num_0']",1,7,NA,1,133,"Block2"
51,"2018-04-03",0.0530962269095,"['num_4']",NA,"","[0.9253099180750723, 1.9758174259750376]","['num_7', 'num_4', 'num_4']",0,7,NA,1,134,"Block2"
51,"2018-04-03",0.0615093585675,"['num_1']",NA,"","[0.7820799105975311]","['num_1']",1,7,NA,1,135,"Block2"
51,"2018-04-03",0.0612738712916,"['num_0']",NA,"","[0.4167328889161581]","['num_0']",1,7,NA,1,136,"Block2"
51,"2018-04-03",0.0499323281783,"['num_7']",NA,"","[0.7753984719583968]","['num_7']",1,8,NA,1,137,"Block2"
51,"2018-04-03",0.0460090445158,"['num_1']",NA,"","[0.8492073227516812]","['num_1']",1,8,NA,1,138,"Block2"
51,"2018-04-03",0.0719446449002,"['num_4']",NA,"","[0.7549406174111937]","['num_4']",1,8,NA,1,139,"Block2"
51,"2018-04-03",0.0607832044243,"['num_0']",NA,"","[0.4320137156992132]","['num_0']",1,8,NA,1,140,"Block2"
51,"2018-04-03",0.0549879199953,"['num_0']",NA,"","[0.4719891167133028]","['num_0']",1,8,NA,1,141,"Block2"
51,"2018-04-03",0.0588767421032,"['num_4']",NA,"","[1.335366291432365]","['num_4']",1,8,NA,1,142,"Block2"
51,"2018-04-03",0.054553458278,"['num_1']",NA,"","[0.5573983825233881]","['num_1']",1,8,NA,1,143,"Block2"
51,"2018-04-03",0.0530802269059,"['num_0']",NA,"","[0.6412220066540613]","['num_0']",1,8,NA,1,144,"Block2"
51,"2018-04-03",0.0533255603386,"['num_7']",NA,"","[0.722972604296956]","['num_7']",1,9,NA,1,145,"Block2"
51,"2018-04-03",0.0541801247928,"['num_1']",NA,"","[0.9073456030128]","['num_1']",1,9,NA,1,146,"Block2"
51,"2018-04-03",0.0557875100658,"['num_4']",NA,"","[0.7888257595186587]","['num_4']",1,9,NA,1,147,"Block2"
51,"2018-04-03",0.0541875094113,"['num_0']",NA,"","[0.45787875194946537]","['num_0']",1,9,NA,1,148,"Block2"
51,"2018-04-03",0.0565091513872,"['num_0']",NA,"","[0.8719876397899498]","['num_0']",1,9,NA,1,149,"Block2"
51,"2018-04-03",0.0509940722022,"['num_4']",NA,"","[1.4585884958305542, 2.2764632929083746]","['num_7', 'num_4', 'num_4']",0,9,NA,1,150,"Block2"
51,"2018-04-03",0.053896637497,"['num_1']",NA,"","[0.0002830770390573889, 0.8569029156533361]","['num_4', 'num_1']",0,9,NA,1,151,"Block2"
51,"2018-04-03",0.0531007397349,"['num_0']",NA,"","[0.0006707695065415464, 0.19103679632280546, 0.5406841192561842, 0.9573443927565677]","['num_0', 'num_1', 'num_1', 'num_4', 'num_1', 'num_0']",0,9,NA,1,152,"Block2"
51,"2018-04-03",0.0474277117646,"['num_7']",NA,"","[2.3468440397318773]","['num_7']",1,10,NA,1,153,"Block2"
51,"2018-04-03",0.0530629961286,"['num_1']",NA,"","[1.37486456404622]","['num_1']",1,10,NA,1,154,"Block2"
51,"2018-04-03",0.0580779725442,"['num_4']",NA,"","[1.0198047260746534]","['num_4']",1,10,NA,1,155,"Block2"
51,"2018-04-03",0.0521452521625,"['num_0']",NA,"","[0.7255847079322848]","['num_0']",1,10,NA,1,156,"Block2"
51,"2018-04-03",0.0526703805826,"['num_0']",NA,"","[1.357425787662578]","['num_0']",1,10,NA,1,157,"Block2"
51,"2018-04-03",0.0518966366762,"['num_4']",NA,"","[1.859185172999787]","['num_4']",1,10,NA,1,158,"Block2"
51,"2018-04-03",0.0559290485871,"['num_1']",NA,"","[0.688233718250558]","['num_1']",1,10,NA,1,159,"Block2"
51,"2018-04-03",0.0520197136484,"['num_0']",NA,"","[0.6927317713780212]","['num_0']",1,10,NA,1,160,"Block2"
51,"2018-04-03",0.056041458889,"['num_0']",1,"num_0","[2.5727760298559588]","['num_0']",1,NA,NA,1,161,"Block3"
51,"2018-04-03",0.0566203309227,"['num_1']",1,"num_1","[1.0673879250825848]","['num_1']",1,NA,NA,1,162,"Block3"
51,"2018-04-03",0.0496902767954,"['num_7']",1,"num_7","[0.9584245983278379]","['num_7']",1,NA,NA,1,163,"Block3"
51,"2018-04-03",0.0571068952231,"['num_4']",1,"num_4","[0.6839009985233133]","['num_4']",1,NA,NA,1,164,"Block3"
51,"2018-04-03",0.0562982795072,"['num_7']",0,"num_7","[0.8549131712461531, 1.7852688349812524]","['num_7', 'num_4', 'num_7']",0,NA,NA,1,165,"Block3"
51,"2018-04-03",0.0537994066872,"['num_0']",0,"num_0","[0.00020717957340821158, 0.640727647478343]","['num_7', 'num_0']",0,NA,NA,1,166,"Block3"
51,"2018-04-03",0.0534268937135,"['num_4']",1,"num_4","[0.9395696162337117]","['num_4']",1,NA,NA,1,167,"Block3"
51,"2018-04-03",0.0525891497819,"['num_1']",1,"num_1","[0.42289001964672934]","['num_1']",1,NA,NA,1,168,"Block3"
51,"2018-04-03",0.0603458709102,"['num_7']",1,"num_7","[0.7132675746743189]","['num_7']",1,NA,NA,1,169,"Block3"
51,"2018-04-03",0.0489251482759,"['num_0']",1,"num_0","[0.4271066367618914]","['num_0']",1,NA,NA,1,170,"Block3"
51,"2018-04-03",0.0570941772694,"['num_4']",1,"num_4","[0.835148240061244]","['num_4']",1,NA,NA,1,171,"Block3"
51,"2018-04-03",0.0530453550946,"['num_1']",1,"num_1","[0.5224699579357548]","['num_1']",1,NA,NA,1,172,"Block3"
51,"2018-04-03",0.0518707905121,"['num_7']",1,"num_7","[0.65796621865411]","['num_7']",1,NA,NA,1,173,"Block3"
51,"2018-04-03",0.0574211517633,"['num_1']",0,"num_1","[0.4014065236533497, 1.0014880006092426]","['num_0', 'num_1']",0,NA,NA,1,174,"Block3"
51,"2018-04-03",0.053993868305,"['num_0']",1,"num_0","[0.5217840089371748]","['num_0']",1,NA,NA,1,175,"Block3"
51,"2018-04-03",0.0533206372602,"['num_4']",1,"num_4","[1.0896221906150458]","['num_4']",1,NA,NA,1,176,"Block3"
51,"2018-04-03",0.0528673037406,"['num_0']",1,"num_0","[0.6224773835801898]","['num_0']",1,NA,NA,1,177,"Block3"
51,"2018-04-03",0.05009027696,"['num_1']",1,"num_1","[0.5253438052695856]","['num_1']",1,NA,NA,1,178,"Block3"
51,"2018-04-03",0.0591548960638,"['num_4']",1,"num_4","[0.38248179794027237]","['num_4']",1,NA,NA,1,179,"Block3"
51,"2018-04-03",0.0561075101978,"['num_7']",1,"num_7","[0.4353392555240134]","['num_7']",1,NA,NA,1,180,"Block3"
51,"2018-04-03",0.0471122244562,"['num_7']",1,"num_7","[0.7794858582510642]","['num_7']",1,NA,NA,1,181,"Block3"
51,"2018-04-03",0.0535819707002,"['num_0']",1,"num_0","[0.7054608022390312]","['num_0']",1,NA,NA,1,182,"Block3"
51,"2018-04-03",0.0627868975535,"['num_4']",0,"num_4","[0.7952171467550215, 1.21255106155877]","['num_1', 'num_4']",0,NA,NA,1,183,"Block3"
51,"2018-04-03",0.056197356389,"['num_1']",0,"num_1","[0.6697820183708245, 1.1696250952300034]","['num_0', 'num_1']",0,NA,NA,1,184,"Block3"
51,"2018-04-03",0.0557464844078,"['num_7']",1,"num_7","[0.8878891847762134]","['num_7']",1,NA,NA,1,185,"Block3"
51,"2018-04-03",0.0498621743027,"['num_0']",1,"num_0","[1.1260693850545067]","['num_0']",1,NA,NA,1,186,"Block3"
51,"2018-04-03",0.0386732466341,"['num_1']",1,"num_1","[0.8727244606034219]","['num_1']",1,NA,NA,1,187,"Block3"
51,"2018-04-03",0.0573965363674,"['num_4']",1,"num_4","[0.9521271598478052]","['num_4']",1,NA,NA,1,188,"Block3"
51,"2018-04-03",0.0507770464719,"['num_7']",1,"num_7","[0.40913042425745516]","['num_7']",1,NA,NA,1,189,"Block3"
51,"2018-04-03",0.0484275070467,"['num_1']",1,"num_1","[1.210567060745234]","['num_1']",1,NA,NA,1,190,"Block3"
51,"2018-04-03",0.0503507898884,"['num_4']",1,"num_4","[1.0421583762690716]","['num_4']",1,NA,NA,1,191,"Block3"
51,"2018-04-03",0.0588664856878,"['num_0']",1,"num_0","[0.7826017569641408]","['num_0']",1,NA,NA,1,192,"Block3"
51,"2018-04-03",0.0582564341566,"['num_4']",1,"num_4","[1.6171670224266563]","['num_4']",1,NA,NA,1,193,"Block3"
51,"2018-04-03",0.0487105840875,"['num_7']",0,"num_7","[0.9457809008326876, 2.976955067468225]","['num_7', 'num_0', 'num_7']",0,NA,NA,1,194,"Block3"
51,"2018-04-03",0.0517583802084,"['num_1']",1,"num_1","[0.9571117772757134]","['num_1']",1,NA,NA,1,195,"Block3"
51,"2018-04-03",0.0580947930648,"['num_0']",1,"num_0","[0.6857102300346014]","['num_0']",1,NA,NA,1,196,"Block3"
51,"2018-04-03",0.0492041227499,"['num_4']",1,"num_4","[1.4948055363311141]","['num_4']",1,NA,NA,1,197,"Block3"
51,"2018-04-03",0.049808430691,"['num_7']",1,"num_7","[0.8923380071137217]","['num_7']",1,NA,NA,1,198,"Block3"
51,"2018-04-03",0.0557813562173,"['num_0']",1,"num_0","[0.7029057242689305]","['num_0']",1,NA,NA,1,199,"Block3"
51,"2018-04-03",0.0569571515734,"['num_1']",1,"num_1","[0.701350031324182]","['num_1']",1,NA,NA,1,200,"Block3"
51,"2018-04-03",0.0491073021967,"['num_0']",1,"num_0","[1.2278015293541102]","['num_0']",1,NA,NA,1,201,"Block3"
51,"2018-04-03",0.0548348942903,"['num_7']",1,"num_7","[2.1539840631721745]","['num_7']",1,NA,NA,1,202,"Block3"
51,"2018-04-03",0.0510166363147,"['num_1']",1,"num_1","[1.226034964525752]","['num_1']",1,NA,NA,1,203,"Block3"
51,"2018-04-03",0.0551832021265,"['num_4']",0,"num_4","[0.820298182687111, 1.2199012184210005]","['num_7', 'num_4']",0,NA,NA,1,204,"Block3"
51,"2018-04-03",0.049890482007,"['num_4']",0,"num_4","[0.00021497444686247036, 0.9425788482367352]","['num_7', 'num_4']",0,NA,NA,1,205,"Block3"
51,"2018-04-03",0.0502675078023,"['num_0']",1,"num_0","[0.9428873611850577]","['num_0']",1,NA,NA,1,206,"Block3"
51,"2018-04-03",0.0524057650891,"['num_7']",1,"num_7","[0.873130204361587]","['num_7']",1,NA,NA,1,207,"Block3"
51,"2018-04-03",0.0519651495251,"['num_1']",1,"num_1","[1.041250888718423]","['num_1']",1,NA,NA,1,208,"Block3"
51,"2018-04-03",0.0535335604236,"['num_4']",1,"num_4","[0.7546981557734398]","['num_4']",1,NA,NA,1,209,"Block3"
51,"2018-04-03",0.0493715074335,"['num_0']",1,"num_0","[0.4262007902361802]","['num_0']",1,NA,NA,1,210,"Block3"
51,"2018-04-03",0.0520090469781,"['num_7']",1,"num_7","[0.95765823903821]","['num_7']",1,NA,NA,1,211,"Block3"
51,"2018-04-03",0.0583089470001,"['num_1']",0,"num_1","[0.416488786251648, 0.9336241778983094]","['num_4', 'num_1']",0,NA,NA,1,212,"Block3"
51,"2018-04-03",0.0748275178794,"['num_7']",0,"num_7","[0.00016574365872656927, 0.43227710042083345, 0.8171917198742449, 1.166722119680344, 1.434805921971929]","['num_0', 'num_0', 'num_1', 'num_4', 'num_7']",0,NA,NA,1,213,"Block3"
51,"2018-04-03",0.128454616803,"['num_4']",0,"num_4","[0.0003314873156341491, 0.36324117466392636, 0.7807510895399901, 1.1646737085848144]","['num_4', 'num_1', 'num_0', 'num_1', 'num_4']",0,NA,NA,1,214,"Block3"
51,"2018-04-03",0.0547786891402,"['num_1']",0,"num_1","[0.00019979495300503913, 0.15418837094875926, 0.5041934376167774]","['num_7', 'num_4', 'num_1']",0,NA,NA,1,215,"Block3"
51,"2018-04-03",0.0506543797565,"['num_0']",0,"num_0","[0.0002281026572745759, 0.07427736380486749]","['num_0', 'num_0']",0,NA,NA,1,216,"Block3"
51,"2018-04-03",0.0475450451468,"['num_0']",0,"num_0","[0.0004032822162116645, 0.27788401144061936, 0.5780683397206303, 0.8277591088244662, 1.1602979119179508, 1.4447817209365894, 1.6444679567048297, 1.8441386027243425]","['num_4', 'num_1', 'num_4', 'num_7', 'num_4', 'num_7', 'num_4', 'num_1', 'num_1', 'num_0']",0,NA,NA,1,217,"Block3"
51,"2018-04-03",0.0582010495182,"['num_1']",0,"num_1","[0.3997092921890726, 0.7160766014676483]","['num_0', 'num_1']",0,NA,NA,1,218,"Block3"
51,"2018-04-03",0.0502937642232,"['num_7']",0,"num_7","[0.0005792822885268833, 0.44200100184752955, 0.7259116824261582]","['num_1', 'num_1', 'num_4', 'num_7']",0,NA,NA,1,219,"Block3"
51,"2018-04-03",0.0534088424247,"['num_4']",0,"num_4","[0.0005801028019050136, 0.20557587921030063]","['num_7', 'num_7', 'num_4']",0,NA,NA,1,220,"Block3"
51,"2018-04-03",0.0495557126396,"['num_1']",0,"num_1","[0.0010810260846483288, 0.37601902605820214, 0.6256195387159096, 0.8253911078518286, 1.0453087365367537, 1.2762577543617226]","['num_1', 'num_1', 'num_0', 'num_0', 'num_0', 'num_0', 'num_1', 'num_0', 'num_1']",0,NA,NA,1,221,"Block3"
51,"2018-04-03",0.047376429693,"['num_4']",0,"num_4","[0.00016533340203750413, 0.07884228875627741, 0.3460263983706682, 0.5790623914108437, 0.5957467059488408]","['num_1', 'num_1', 'num_7', 'num_7', 'num_7', 'num_4']",0,NA,NA,1,222,"Block3"
51,"2018-04-03",0.0509493542359,"['num_0']",0,"num_0","[0.00020266674982849509, 0.4085544240224408, 0.4253347385983943]","['num_4', 'num_1', 'num_1', 'num_0']",0,NA,NA,1,223,"Block3"
51,"2018-04-03",0.0546510993445,"['num_7']",0,"num_7","[0.00019651290131150745, 0.17091494191481615, 0.40429431971097074, 0.6564474487986445, 0.954496391588691, 1.4540194683158916, 1.7377176359859732]","['num_0', 'num_0', 'num_1', 'num_4', 'num_4', 'num_4', 'num_4', 'num_7']",0,NA,NA,1,224,"Block3"
51,"2018-04-03",0.0473809425166,"['num_7']",0,"num_7","[0.0002121026500390144, 0.026802472535564448, 0.29561653153541556, 0.5444732490159367, 0.777694678028638, 1.077866698613434, 1.3446208593322808, 1.6278964627272217]","['num_7', 'num_4', 'num_1', 'num_1', 'num_0', 'num_0', 'num_1', 'num_4', 'num_7']",0,NA,NA,1,225,"Block3"
51,"2018-04-03",0.0509760209134,"['num_1']",0,"num_1","[0.0006806156634411309, 0.20668849505091202]","['num_7', 'num_4', 'num_4', 'num_1', 'num_1']",0,NA,NA,1,226,"Block3"
51,"2018-04-03",0.0455897622924,"['num_0']",0,"num_0","[0.00015548724331893027, 0.03019898674756405, 0.29786801963746257, 0.5976388092876732, 0.8978210862860578, 1.1652640678003081, 5.5311620640659385]","['num_0', 'num_0', 'num_1', 'num_4', 'num_7', 'num_7', 'num_0']",0,NA,NA,1,227,"Block3"
51,"2018-04-03",0.0588882292868,"['num_4']",1,"num_4","[1.667583453367115]","['num_4']",1,NA,NA,1,228,"Block3"
51,"2018-04-03",0.0582609469784,"['num_4']",0,"num_4","[0.0002510770264052553, 0.9833197880288935]","['num_1', 'num_4']",0,NA,NA,1,229,"Block3"
51,"2018-04-03",0.0505403284278,"['num_1']",1,"num_1","[0.8906046730699018]","['num_1']",1,NA,NA,1,230,"Block3"
51,"2018-04-03",0.0541300734894,"['num_0']",1,"num_0","[0.9551622380149638]","['num_0']",1,NA,NA,1,231,"Block3"
51,"2018-04-03",0.0549128430412,"['num_7']",1,"num_7","[1.1705592494599841]","['num_7']",1,NA,NA,1,232,"Block3"
51,"2018-04-03",0.0508270977753,"['num_4']",1,"num_4","[0.8075736646460427]","['num_4']",1,NA,NA,1,233,"Block3"
51,"2018-04-03",0.0540086375422,"['num_7']",1,"num_7","[1.136761081748773]","['num_7']",1,NA,NA,1,234,"Block3"
51,"2018-04-03",0.0493620715333,"['num_0']",0,"num_0","[0.8426464995463903, 1.7269664520881634]","['num_1', 'num_0']",0,NA,NA,1,235,"Block3"
51,"2018-04-03",0.0525345856568,"['num_1']",0,"num_1","[0.25681405407885904, 0.5565319206289132, 0.8231572607837734, 1.1571500131904031, 1.474074040646883]","['num_0', 'num_0', 'num_0', 'num_1', 'num_0', 'num_1']",0,NA,NA,1,236,"Block3"
51,"2018-04-03",0.0502162257289,"['num_4']",0,"num_4","[0.0002383590708632255, 0.09232290967156587, 0.4084584239826654]","['num_1', 'num_1', 'num_4']",0,NA,NA,1,237,"Block3"
51,"2018-04-03",0.047916737607,"['num_0']",0,"num_0","[0.0002395898409304209, 0.11088825061960961, 0.4616485996502888, 0.7472983578645653, 1.0303212432081637, 1.3608268146981572, 1.710860599327134]","['num_7', 'num_4', 'num_7', 'num_1', 'num_0', 'num_0', 'num_1', 'num_0', 'num_1', 'num_0']",0,NA,NA,1,238,"Block3"
51,"2018-04-03",0.0403848370806,"['num_1']",0,"num_1","[0.2838265779791982, 0.3850454913008434, 1.2191401924683305, 1.6022784009346651, 2.5028531293755805]","['num_7', 'num_4', 'num_7', 'num_0', 'num_1']",0,NA,NA,1,239,"Block3"
51,"2018-04-03",0.0559856639939,"['num_7']",0,"num_7","[0.0002235898355138488, 0.6854287940204813]","['num_4', 'num_7']",0,NA,NA,1,240,"Block3"
51,"2018-04-03",0.0541538683719,"['num_7']",NA,"","[0.00027897447216673754, 1.40223770348166]","['num_4', 'num_7', 'num_7', 'num_7']",0,1,NA,1,241,"Block4"
51,"2018-04-03",0.0518625853801,"['num_1']",NA,"","[0.8254895694317383]","['num_1']",1,1,NA,1,242,"Block4"
51,"2018-04-03",0.0583807418989,"['num_4']",NA,"","[1.0353341683421604]","['num_4']",1,1,NA,1,243,"Block4"
51,"2018-04-03",0.054510791595,"['num_0']",NA,"","[0.68956212905141]","['num_0']",1,1,NA,1,244,"Block4"
51,"2018-04-03",0.0512127389593,"['num_0']",NA,"","[0.7776216523579933]","['num_0']",1,1,NA,1,245,"Block4"
51,"2018-04-03",0.0588574600442,"['num_4']",NA,"","[1.7529254370983836]","['num_4']",1,1,NA,1,246,"Block4"
51,"2018-04-03",0.0578338698815,"['num_1']",NA,"","[0.9527417242024967]","['num_1']",1,1,NA,1,247,"Block4"
51,"2018-04-03",0.0513050466907,"['num_0']",NA,"","[0.47642563135377713]","['num_0']",1,1,NA,1,248,"Block4"
51,"2018-04-03",0.0552225867577,"['num_7']",NA,"","[0.4370668459760054]","['num_7']",1,2,NA,1,249,"Block4"
51,"2018-04-03",0.0531659705302,"['num_1']",NA,"","[0.9080344238082034]","['num_1']",1,2,NA,1,250,"Block4"
51,"2018-04-03",0.0529456627482,"['num_4']",NA,"","[0.8242374663532246]","['num_4']",1,2,NA,1,251,"Block4"
51,"2018-04-03",0.0511278158465,"['num_0']",NA,"","[0.5442935566334199]","['num_0']",1,2,NA,1,252,"Block4"
51,"2018-04-03",0.0583733572821,"['num_0']",NA,"","[1.9859556865449122]","['num_0']",1,2,NA,1,253,"Block4"
51,"2018-04-03",0.0559860742505,"['num_4']",NA,"","[0.8884372875636473]","['num_4']",1,2,NA,1,254,"Block4"
51,"2018-04-03",0.0537505861539,"['num_1']",NA,"","[0.7234554762890184]","['num_1']",1,2,NA,1,255,"Block4"
51,"2018-04-03",0.0572348952755,"['num_0']",NA,"","[0.6031387089788041]","['num_0']",1,2,NA,1,256,"Block4"
51,"2018-04-03",0.0458137623846,"['num_7']",NA,"","[0.61437071358705]","['num_7']",1,3,NA,1,257,"Block4"
51,"2018-04-03",0.085386291441,"['num_1']",NA,"","[0.9229636607033171, 3.521130880462806]","['num_1', 'num_0', 'num_1']",0,3,NA,1,258,"Block4"
51,"2018-04-03",0.0549961251272,"['num_4']",NA,"","[0.8231847479728458]","['num_4']",1,3,NA,1,259,"Block4"
51,"2018-04-03",0.0553870996464,"['num_0']",NA,"","[0.921366121585379]","['num_0']",1,3,NA,1,260,"Block4"
51,"2018-04-03",0.0491967381331,"['num_0']",NA,"","[0.8450329620645789]","['num_0']",1,3,NA,1,261,"Block4"
51,"2018-04-03",0.0516102775837,"['num_4']",NA,"","[0.8261246466154262]","['num_4']",1,3,NA,1,262,"Block4"
51,"2018-04-03",0.0521710983267,"['num_1']",NA,"","[0.6918612069166556]","['num_1']",1,3,NA,1,263,"Block4"
51,"2018-04-03",0.0572730491385,"['num_0']",NA,"","[0.652889703749679]","['num_0']",1,3,NA,1,264,"Block4"
51,"2018-04-03",0.0487729430861,"['num_7']",NA,"","[0.7614969277929049]","['num_7']",1,4,NA,1,265,"Block4"
51,"2018-04-03",0.052035303399,"['num_1']",NA,"","[0.7437397923040407, 1.791808735100858]","['num_1', 'num_0', 'num_1']",0,4,NA,1,266,"Block4"
51,"2018-04-03",0.0499224820196,"['num_4']",NA,"","[0.00033517962583573535, 0.045813352127879625, 0.2779471909525455, 0.44495731075221556, 0.6278615909177461, 1.044680223458272]","['num_1', 'num_1', 'num_1', 'num_1', 'num_1', 'num_4']",0,4,NA,1,267,"Block4"
51,"2018-04-03",0.0546855608955,"['num_0']",NA,"","[0.00031138474150793627, 0.05583674085573875, 0.23924932892259676, 0.4724280912523682, 0.7393250212608109]","['num_4', 'num_4', 'num_4', 'num_4', 'num_1', 'num_0']",0,4,NA,1,268,"Block4"
51,"2018-04-03",0.0537645348777,"['num_0']",NA,"","[0.0005066668745712377, 0.14062487820410752]","['num_0', 'num_0', 'num_0']",0,4,NA,1,269,"Block4"
51,"2018-04-03",0.0594252551491,"['num_4']",NA,"","[0.0003163078217767179, 0.015405955038659158, 0.2835410394018254, 0.5004309745363571]","['num_0', 'num_0', 'num_0', 'num_1', 'num_0', 'num_4']",0,4,NA,1,270,"Block4"
51,"2018-04-03",0.0527269959912,"['num_1']",NA,"","[0.0005062566178821726, 0.07452433826620108, 0.25832831110892585]","['num_4', 'num_4', 'num_4', 'num_1']",0,4,NA,1,271,"Block4"
51,"2018-04-03",0.051669764789,"['num_0']",NA,"","[0.0006711797614116222, 0.0763319287525519, 0.3091701781213487]","['num_1', 'num_0', 'num_1', 'num_1', 'num_0', 'num_0']",0,4,NA,1,272,"Block4"
51,"2018-04-03",0.0508541747095,"['num_7']",NA,"","[0.0009095388340938371, 0.2248456307061133, 0.44155382217650185]","['num_0', 'num_1', 'num_0', 'num_1', 'num_7']",0,5,NA,1,273,"Block4"
51,"2018-04-03",0.057862177584,"['num_1']",NA,"","[0.00029292319595697336, 0.13584579932103225, 0.3531258884613635, 0.6357450813302421]","['num_7', 'num_7', 'num_4', 'num_4', 'num_1']",0,5,NA,1,274,"Block4"
51,"2018-04-03",0.0607553069767,"['num_4']",NA,"","[0.0003117950000159908, 0.1002363488150877, 0.2833867829267547, 0.949619261382395]","['num_1', 'num_0', 'num_0', 'num_0', 'num_4']",0,5,NA,1,275,"Block4"
51,"2018-04-03",0.0524714061412,"['num_0']",NA,"","[0.00031466679502045736, 0.29274678676847543, 0.5422102737284149, 0.7917874017603026]","['num_7', 'num_7', 'num_4', 'num_1', 'num_0']",0,5,NA,1,276,"Block4"
51,"2018-04-03",0.051339097985,"['num_0']",NA,"","[0.00048287199388141744, 0.10968004499773087, 0.30802474175470707, 0.5253077026918618, 0.9750416307870182, 1.2254142463243625, 1.4253671488695545, 1.6753717642550328, 1.891559750383749, 2.0921583967829065]","['num_0', 'num_1', 'num_4', 'num_7', 'num_4', 'num_7', 'num_7', 'num_4', 'num_4', 'num_1', 'num_1', 'num_0']",0,5,NA,1,277,"Block4"
51,"2018-04-03",0.0551614585293,"['num_4']",NA,"","[0.00024164112437574659, 0.17247473742463626, 0.3886327748223266]","['num_0', 'num_1', 'num_1', 'num_4']",0,5,NA,1,278,"Block4"
51,"2018-04-03",0.0529304832544,"['num_1']",NA,"","[0.0003220514136046404, 0.09133993490831926, 0.3413088579727628, 0.5904539858274802, 0.8078083314085234]","['num_7', 'num_7', 'num_4', 'num_4', 'num_4', 'num_1']",0,5,NA,1,279,"Block4"
51,"2018-04-03",0.0589091523725,"['num_0']",NA,"","[0.00048738481382315513, 0.11813953564706026]","['num_1', 'num_0', 'num_0']",0,5,NA,1,280,"Block4"
51,"2018-04-03",0.0504074052969,"['num_7']",NA,"","[0.0003298462888778886, 0.10904168576053053, 0.32599151835529483, 0.5755735694656323, 0.7756339592342556, 1.008070567413597, 1.2427886124260112, 1.4624592666496028, 1.710106547736359, 1.9590916755241778]","['num_0', 'num_1', 'num_0', 'num_1', 'num_1', 'num_4', 'num_4', 'num_4', 'num_7', 'num_4', 'num_7', 'num_4', 'num_7', 'num_4', 'num_7']",0,6,NA,1,281,"Block4"
51,"2018-04-03",0.0552660739559,"['num_1']",NA,"","[0.0003610257899708813, 0.1549682687036693, 0.47102952657587593]","['num_4', 'num_4', 'num_4', 'num_1']",0,6,NA,1,282,"Block4"
51,"2018-04-03",0.0574945876906,"['num_4']",NA,"","[0.00030564115149900317, 0.06946833619258541, 0.48586440445615153, 0.9194009925740829]","['num_1', 'num_0', 'num_1', 'num_4']",0,6,NA,1,283,"Block4"
51,"2018-04-03",0.0525427907869,"['num_0']",NA,"","[0.0003130257700831862, 0.30781017756271467, 0.7244601946513285, 1.1083290700844373]","['num_7', 'num_4', 'num_1', 'num_0']",0,6,NA,1,284,"Block4"
51,"2018-04-03",0.0571114080449,"['num_0']",NA,"","[0.00030441038143180776, 0.30472463783553394, 0.7043227504909737, 1.055126586717961, 1.503979693939982, 1.8546485557526466, 2.204199878644431]","['num_1', 'num_4', 'num_7', 'num_4', 'num_1', 'num_1', 'num_0', 'num_0']",0,6,NA,1,285,"Block4"
51,"2018-04-03",0.0552439201001,"['num_4']",NA,"","[0.00032615398049529176, 1.5551259713338368]","['num_0', 'num_4']",0,6,NA,1,286,"Block4"
51,"2018-04-03",0.0478379683427,"['num_1']",NA,"","[0.5301130379957613]","['num_1']",1,6,NA,1,287,"Block4"
51,"2018-04-03",0.0574474081823,"['num_0']",NA,"","[0.8840184139571647]","['num_0']",1,6,NA,1,288,"Block4"
51,"2018-04-03",0.0224541630578,"['num_7']",NA,"","[0.8711576907317067]","['num_7']",1,7,NA,1,289,"Block4"
51,"2018-04-03",0.045278377549,"['num_1']",NA,"","[0.8658120475138276]","['num_1']",1,7,NA,1,290,"Block4"
51,"2018-04-03",0.0546355095939,"['num_4']",NA,"","[0.8237677225715743]","['num_4']",1,7,NA,1,291,"Block4"
51,"2018-04-03",0.0555294586793,"['num_0']",NA,"","[0.587471830758659]","['num_0']",1,7,NA,1,292,"Block4"
51,"2018-04-03",0.0512939697619,"['num_0']",NA,"","[0.609437378230723, 1.609867327124448]","['num_1', 'num_0', 'num_0']",0,7,NA,1,293,"Block4"
51,"2018-04-03",0.0571610490915,"['num_4']",NA,"","[0.00043241043385933153, 0.08833316444361117, 0.10454896596820618, 0.30397181701300724, 0.7035157758000423, 0.887967543780178, 1.1040935811652162, 1.2212681933397107]","['num_0', 'num_0', 'num_0', 'num_0', 'num_0', 'num_7', 'num_7', 'num_0', 'num_4']",0,7,NA,1,294,"Block4"
51,"2018-04-03",0.055540945863,"['num_1']",NA,"","[0.0003220514136046404, 0.03723365630139597, 0.7069578284954332, 2.0560332537570503]","['num_7', 'num_4', 'num_1', 'num_4', 'num_1', 'num_4', 'num_1', 'num_1']",0,7,NA,1,295,"Block4"
51,"2018-04-03",0.0552570483105,"['num_0']",NA,"","[2.1219253833533003]","['num_0']",1,7,NA,1,296,"Block4"
51,"2018-04-03",0.0578121262824,"['num_7']",NA,"","[1.6521426265207992, 1.7016765955595474]","['num_4', 'num_7']",0,8,NA,1,297,"Block4"
51,"2018-04-03",0.0526486369836,"['num_1']",NA,"","[1.391516468314876, 1.842152550625542]","['num_0', 'num_1']",0,8,NA,1,298,"Block4"
51,"2018-04-03",0.064506693132,"['num_4']",NA,"","[1.113030610473288]","['num_4']",1,8,NA,1,299,"Block4"
51,"2018-04-03",0.0522634060562,"['num_0']",NA,"","[0.8252585949794593]","['num_0']",1,8,NA,1,300,"Block4"
51,"2018-04-03",0.0787766477024,"['num_0']",NA,"","[1.2812066794685961]","['num_0']",1,8,NA,1,301,"Block4"
51,"2018-04-03",0.0494925331241,"['num_4']",NA,"","[0.9300286892430449]","['num_4']",1,8,NA,1,302,"Block4"
51,"2018-04-03",0.0545481249446,"['num_1']",NA,"","[1.3869794408110465]","['num_1']",1,8,NA,1,303,"Block4"
51,"2018-04-03",0.0554699714739,"['num_0']",NA,"","[1.1057046587502555]","['num_0']",1,8,NA,1,304,"Block4"
51,"2018-04-03",0.0486067891707,"['num_7']",NA,"","[1.1106749171995034]","['num_7']",1,9,NA,1,305,"Block4"
51,"2018-04-03",0.055094996962,"['num_1']",NA,"","[0.9051847816153895]","['num_1']",1,9,NA,1,306,"Block4"
51,"2018-04-03",0.0538252528513,"['num_4']",NA,"","[0.8736426148279861]","['num_4']",1,9,NA,1,307,"Block4"
51,"2018-04-03",0.0569501772097,"['num_0']",NA,"","[0.45399198112500017]","['num_0']",1,9,NA,1,308,"Block4"
51,"2018-04-03",0.0473477117321,"['num_0']",NA,"","[0.4469971064609126]","['num_0']",1,9,NA,1,309,"Block4"
51,"2018-04-03",0.0543733556406,"['num_4']",NA,"","[0.7905106832859019]","['num_4']",1,9,NA,1,310,"Block4"
51,"2018-04-03",0.0573464850659,"['num_1']",NA,"","[0.48675507148982433]","['num_1']",1,9,NA,1,311,"Block4"
51,"2018-04-03",0.053992637535,"['num_0']",NA,"","[0.473649425086478]","['num_0']",1,9,NA,1,312,"Block4"
51,"2018-04-03",0.0496767383283,"['num_7']",NA,"","[0.29256340207757603]","['num_7']",1,10,NA,1,313,"Block4"
51,"2018-04-03",0.0575052543609,"['num_1']",NA,"","[0.0003142565383313922, 0.9535675706938491]","['num_7', 'num_1']",0,10,NA,1,314,"Block4"
51,"2018-04-03",0.050404943755,"['num_4']",NA,"","[0.5931268074364198]","['num_4']",1,10,NA,1,315,"Block4"
51,"2018-04-03",0.0583987931896,"['num_0']",NA,"","[0.935929409612072]","['num_0']",1,10,NA,1,316,"Block4"
51,"2018-04-03",0.0596578706281,"['num_0']",NA,"","[0.6515707288490376]","['num_0']",1,10,NA,1,317,"Block4"
51,"2018-04-03",0.0514441236683,"['num_4']",NA,"","[2.4755468617622682]","['num_4']",1,10,NA,1,318,"Block4"
51,"2018-04-03",0.051400636472,"['num_1']",NA,"","[0.8427843457575364]","['num_1']",1,10,NA,1,319,"Block4"
51,"2018-04-03",0.0561075101978,"['num_0']",NA,"","[0.48685312281122606]","['num_0']",1,10,NA,1,320,"Block4"
52,"2018-04-03",0.0629116155533,"['num_7']",NA,"","[0.6234353326917699]","['num_7']",1,1,NA,1,1,"Block1"
52,"2018-04-03",0.0791192119459,"['num_1']",NA,"","[1.031611910405445]","['num_1']",1,1,NA,1,2,"Block1"
52,"2018-04-03",0.0783155193094,"['num_4']",NA,"","[1.2164702426543954]","['num_4']",1,1,NA,1,3,"Block1"
52,"2018-04-03",0.0775085446194,"['num_0']",NA,"","[0.932860690403686, 2.4832092238802943]","['num_1', 'num_0', 'num_0']",0,1,NA,1,4,"Block1"
52,"2018-04-03",0.0502166359865,"['num_0']",NA,"","[0.6113824046697118]","['num_0']",1,1,NA,1,5,"Block1"
52,"2018-04-03",0.0523360214711,"['num_4']",NA,"","[1.226137528671643]","['num_4']",1,1,NA,1,6,"Block1"
52,"2018-04-03",0.0478954042646,"['num_1']",NA,"","[2.5959510137236066]","['num_1']",1,1,NA,1,7,"Block1"
52,"2018-04-03",0.0548373558304,"['num_0']",NA,"","[0.8063576641461623]","['num_0']",1,1,NA,1,8,"Block1"
52,"2018-04-03",0.0528857652862,"['num_7']",NA,"","[0.8900971856810429]","['num_7']",1,2,NA,1,9,"Block1"
52,"2018-04-03",0.0584074085773,"['num_1']",NA,"","[1.3848924655967494]","['num_1']",1,2,NA,1,10,"Block1"
52,"2018-04-03",0.0590954088593,"['num_4']",NA,"","[1.0351273990272603]","['num_4']",1,2,NA,1,11,"Block1"
52,"2018-04-03",0.0586831009987,"['num_0']",NA,"","[0.8187072076752884]","['num_0']",1,2,NA,1,12,"Block1"
52,"2018-04-03",0.0575713056705,"['num_0']",NA,"","[0.7866501688813514]","['num_0']",1,2,NA,1,13,"Block1"
52,"2018-04-03",0.0558519203496,"['num_4']",NA,"","[1.2388965082654977]","['num_4']",1,2,NA,1,14,"Block1"
52,"2018-04-03",0.0561793050992,"['num_1']",NA,"","[1.4218943269306692]","['num_1']",1,2,NA,1,15,"Block1"
52,"2018-04-03",0.0566880232573,"['num_0']",NA,"","[0.7371600972965098]","['num_0']",1,2,NA,1,16,"Block1"
52,"2018-04-03",0.0497985845332,"['num_7']",NA,"","[0.960131265695054]","['num_7']",1,3,NA,1,17,"Block1"
52,"2018-04-03",0.0586728445833,"['num_1']",NA,"","[0.9858629685595588]","['num_1']",1,3,NA,1,18,"Block1"
52,"2018-04-03",0.0482785839095,"['num_4']",NA,"","[0.8965587267939554]","['num_4']",1,3,NA,1,19,"Block1"
52,"2018-04-03",0.0739311072539,"['num_0']",NA,"","[0.4516703391464034]","['num_0']",1,3,NA,1,20,"Block1"
52,"2018-04-03",0.0479249427381,"['num_0']",NA,"","[1.098221168501368]","['num_0']",1,3,NA,1,21,"Block1"
52,"2018-04-03",0.0517272007091,"['num_4']",NA,"","[1.2096525988317808]","['num_4']",1,3,NA,1,22,"Block1"
52,"2018-04-03",0.0507323285055,"['num_1']",NA,"","[1.112564969257619, 2.12713400087614]","['num_1', 'num_0', 'num_1']",0,3,NA,1,23,"Block1"
52,"2018-04-03",0.0622531537447,"['num_0']",NA,"","[0.7646202111263847]","['num_0']",1,3,NA,1,24,"Block1"
52,"2018-04-03",0.0536279194366,"['num_7']",NA,"","[0.9081328853872037]","['num_7']",1,4,NA,1,25,"Block1"
52,"2018-04-03",0.0564225872504,"['num_1']",NA,"","[1.1050601456654476]","['num_1']",1,4,NA,1,26,"Block1"
52,"2018-04-03",0.0552328431722,"['num_4']",NA,"","[0.4226713528914843]","['num_4']",1,4,NA,1,27,"Block1"
52,"2018-04-03",0.0524389958728,"['num_0']",NA,"","[0.4754356822304544]","['num_0']",1,4,NA,1,28,"Block1"
52,"2018-04-03",0.0580492545841,"['num_0']",NA,"","[0.38592631217488815]","['num_0']",1,4,NA,1,29,"Block1"
52,"2018-04-03",0.0500558154072,"['num_4']",NA,"","[2.0284233962756844]","['num_4']",1,4,NA,1,30,"Block1"
52,"2018-04-03",0.0524566369049,"['num_1']",NA,"","[1.158948167773815]","['num_1']",1,4,NA,1,31,"Block1"
52,"2018-04-03",0.0609157172985,"['num_0']",NA,"","[1.0339487318760803]","['num_0']",1,4,NA,1,32,"Block1"
52,"2018-04-03",0.0544607402908,"['num_7']",NA,"","[0.8055613561282371]","['num_7']",1,5,NA,1,33,"Block1"
52,"2018-04-03",0.053277150063,"['num_1']",NA,"","[0.9911105604560362]","['num_1']",1,5,NA,1,34,"Block1"
52,"2018-04-03",0.0510769440316,"['num_4']",NA,"","[1.1102552247202766]","['num_4']",1,5,NA,1,35,"Block1"
52,"2018-04-03",0.057621356973,"['num_0']",NA,"","[0.9716270652834282]","['num_0']",1,5,NA,1,36,"Block1"
52,"2018-04-03",0.0542789966275,"['num_0']",NA,"","[0.8428741919487948, 1.4416075657882175]","['num_1', 'num_0', 'num_0']",0,5,NA,1,37,"Block1"
52,"2018-04-03",0.0650822831112,"['num_4']",NA,"","[0.001230769735229842, 0.1771582265264442, 0.4606479838557789, 0.6610849891631005, 1.5615711021828247]","['num_0', 'num_0', 'num_0', 'num_0', 'num_0', 'num_0', 'num_4']",0,5,NA,1,38,"Block1"
52,"2018-04-03",0.0536447399563,"['num_1']",NA,"","[2.025041651299034]","['num_1']",1,5,NA,1,39,"Block1"
52,"2018-04-03",0.0534051501145,"['num_0']",NA,"","[0.6741327893878406]","['num_0']",1,5,NA,1,40,"Block1"
52,"2018-04-03",0.0500878154198,"['num_7']",NA,"","[0.9601025477340954]","['num_7']",1,6,NA,1,41,"Block1"
52,"2018-04-03",0.055413766323,"['num_1']",NA,"","[1.0732102864458284]","['num_1']",1,6,NA,1,42,"Block1"
52,"2018-04-03",0.05802340842,"['num_4']",NA,"","[0.9527585447222009]","['num_4']",1,6,NA,1,43,"Block1"
52,"2018-04-03",0.0559220742243,"['num_0']",NA,"","[0.953629109180838]","['num_0']",1,6,NA,1,44,"Block1"
52,"2018-04-03",0.0532041243914,"['num_0']",NA,"","[1.0911672168895166]","['num_0']",1,6,NA,1,45,"Block1"
52,"2018-04-03",0.0521838162804,"['num_4']",NA,"","[0.8586465061107447]","['num_4']",1,6,NA,1,46,"Block1"
52,"2018-04-03",0.0669144889907,"['num_1']",NA,"","[0.7439477923880986]","['num_1']",1,6,NA,1,47,"Block1"
52,"2018-04-03",0.0617522304628,"['num_0']",NA,"","[1.216180191253443]","['num_0']",1,6,NA,1,48,"Block1"
52,"2018-04-03",0.0569210489939,"['num_7']",NA,"","[0.9188610949177018]","['num_7']",1,7,NA,1,49,"Block1"
52,"2018-04-03",0.0524590984451,"['num_1']",NA,"","[0.941732488915477]","['num_1']",1,7,NA,1,50,"Block1"
52,"2018-04-03",0.0510207388807,"['num_4']",NA,"","[0.8094333577155339]","['num_4']",1,7,NA,1,51,"Block1"
52,"2018-04-03",0.056540741145,"['num_0']",NA,"","[1.0385116055440449]","['num_0']",1,7,NA,1,52,"Block1"
52,"2018-04-03",0.0526884318724,"['num_0']",NA,"","[0.6423153404366531, 1.6080404545800775]","['num_1', 'num_0']",0,7,NA,1,53,"Block1"
52,"2018-04-03",0.0501222769726,"['num_4']",NA,"","[1.1274671292176208]","['num_4']",1,7,NA,1,54,"Block1"
52,"2018-04-03",0.0597029988521,"['num_1']",NA,"","[0.7839810395826134]","['num_1']",1,7,NA,1,55,"Block1"
52,"2018-04-03",0.0669448479775,"['num_0']",NA,"","[1.1920653095648959]","['num_0']",1,7,NA,1,56,"Block1"
52,"2018-04-03",0.0486695584286,"['num_7']",NA,"","[1.494449843876282, 2.3921269301035863, 3.1929194637614273]","['num_4', 'num_4', 'num_7']",0,8,NA,1,57,"Block1"
52,"2018-04-03",0.0207774444216,"['num_1']",NA,"","[0.00020430777567526093, 2.0905276268831585]","['num_7', 'num_7', 'num_1']",0,8,NA,1,58,"Block1"
52,"2018-04-03",0.0214162139146,"['num_4']",NA,"","[1.254808719922039]","['num_4']",1,8,NA,1,59,"Block1"
52,"2018-04-03",0.0265854468043,"['num_0']",NA,"","[1.434064178078188]","['num_0']",1,8,NA,1,60,"Block1"
52,"2018-04-03",0.0226194964589,"['num_0']",NA,"","[1.0219081115519657]","['num_0']",1,8,NA,1,61,"Block1"
52,"2018-04-03",0.038825041569,"['num_4']",NA,"","[2.02182154741422]","['num_4']",1,8,NA,1,62,"Block1"
52,"2018-04-03",0.0345362192966,"['num_1']",NA,"","[2.8111835122799675]","['num_1']",1,8,NA,1,63,"Block1"
52,"2018-04-03",0.0273903702118,"['num_0']",NA,"","[1.068786489759077]","['num_0']",1,8,NA,1,64,"Block1"
52,"2018-04-03",0.032736833944,"['num_7']",NA,"","[2.7266911699252887]","['num_7']",1,9,NA,1,65,"Block1"
52,"2018-04-03",0.0565251513954,"['num_1']",NA,"","[0.9546371095948416]","['num_1']",1,9,NA,1,66,"Block1"
52,"2018-04-03",0.0221928296178,"['num_4']",NA,"","[0.906254320514563]","['num_4']",1,9,NA,1,67,"Block1"
52,"2018-04-03",0.0228065734591,"['num_0']",NA,"","[0.904950525107779]","['num_0']",1,9,NA,1,68,"Block1"
52,"2018-04-03",0.0536016630158,"['num_0']",NA,"","[1.2905954012694565]","['num_0']",1,9,NA,1,69,"Block1"
52,"2018-04-03",0.0278043190992,"['num_4']",NA,"","[1.8499839384548977]","['num_4']",1,9,NA,1,70,"Block1"
52,"2018-04-03",0.0376779641756,"['num_1']",NA,"","[1.1553797560527528]","['num_1']",1,9,NA,1,71,"Block1"
52,"2018-04-03",0.0337944754028,"['num_0']",NA,"","[0.5928310124427298]","['num_0']",1,9,NA,1,72,"Block1"
52,"2018-04-03",0.0459692496288,"['num_7']",NA,"","[0.8624664051149011]","['num_7']",1,10,NA,1,73,"Block1"
52,"2018-04-03",0.0579717160917,"['num_1']",NA,"","[1.1031651705297918]","['num_1']",1,10,NA,1,74,"Block1"
52,"2018-04-03",0.0550080225667,"['num_4']",NA,"","[0.9040241657539809]","['num_4']",1,10,NA,1,75,"Block1"
52,"2018-04-03",0.0263060620746,"['num_0']",NA,"","[0.8860779019805705]","['num_0']",1,10,NA,1,76,"Block1"
52,"2018-04-03",0.0292927299661,"['num_0']",NA,"","[0.9981251274357419]","['num_0']",1,10,NA,1,77,"Block1"
52,"2018-04-03",0.0210387778616,"['num_4']",NA,"","[1.0400135548770777]","['num_4']",1,10,NA,1,78,"Block1"
52,"2018-04-03",0.0258687285614,"['num_1']",NA,"","[0.9686083973774657]","['num_1']",1,10,NA,1,79,"Block1"
52,"2018-04-03",0.0235286250372,"['num_0']",NA,"","[0.6703838647727025]","['num_0']",1,10,NA,1,80,"Block1"
52,"2018-04-03",0.0442379668666,"['num_7']",NA,"","[0.7836647317599272]","['num_7']",1,1,NA,1,81,"Block2"
52,"2018-04-03",0.0658584885568,"['num_1']",NA,"","[0.7952475057427364]","['num_1']",1,1,NA,1,82,"Block2"
52,"2018-04-03",0.0399003240618,"['num_4']",NA,"","[1.1210576906905771]","['num_4']",1,1,NA,1,83,"Block2"
52,"2018-04-03",0.0432394023546,"['num_0']",NA,"","[0.8337537779507329]","['num_0']",1,1,NA,1,84,"Block2"
52,"2018-04-03",0.0527462780501,"['num_0']",NA,"","[0.9908369193171893]","['num_0']",1,1,NA,1,85,"Block2"
52,"2018-04-03",0.0559721255277,"['num_4']",NA,"","[1.1555852945994047]","['num_4']",1,1,NA,1,86,"Block2"
52,"2018-04-03",0.0566182796383,"['num_1']",NA,"","[3.804345765885955]","['num_1']",1,1,NA,1,87,"Block2"
52,"2018-04-03",0.0503425847564,"['num_0']",NA,"","[0.9923031763291874]","['num_0']",1,1,NA,1,88,"Block2"
52,"2018-04-03",0.0527749960102,"['num_7']",NA,"","[1.041065863001677]","['num_7']",1,2,NA,1,89,"Block2"
52,"2018-04-03",0.038662169708,"['num_1']",NA,"","[37.11787779194947]","['num_1']",1,2,NA,1,90,"Block2"
52,"2018-04-03",0.0540209452392,"['num_4']",NA,"","[1.2564234898145514]","['num_4']",1,2,NA,1,91,"Block2"
52,"2018-04-03",0.0517772520107,"['num_0']",NA,"","[1.0936923461304104]","['num_0']",1,2,NA,1,92,"Block2"
52,"2018-04-03",0.0491889432569,"['num_0']",NA,"","[0.8294157248883494]","['num_0']",1,2,NA,1,93,"Block2"
52,"2018-04-03",0.0546400224166,"['num_4']",NA,"","[1.1397444675876613]","['num_4']",1,2,NA,1,94,"Block2"
52,"2018-04-03",0.0532808423723,"['num_1']",NA,"","[0.8912344169166317]","['num_1']",1,2,NA,1,95,"Block2"
52,"2018-04-03",0.0497583793885,"['num_0']",NA,"","[0.9278354575735648]","['num_0']",1,2,NA,1,96,"Block2"
52,"2018-04-03",0.0527101754706,"['num_7']",NA,"","[1.8412270117860317]","['num_7']",1,3,NA,1,97,"Block2"
52,"2018-04-03",0.055328843212,"['num_1']",NA,"","[1.0562026897241594]","['num_1']",1,3,NA,1,98,"Block2"
52,"2018-04-03",0.0553665868174,"['num_4']",NA,"","[0.9222461219469551]","['num_4']",1,3,NA,1,99,"Block2"
52,"2018-04-03",0.0507663798016,"['num_0']",NA,"","[0.8772971804291956]","['num_0']",1,3,NA,1,100,"Block2"
52,"2018-04-03",0.0549616635744,"['num_0']",NA,"","[0.8401020882465673]","['num_0']",1,3,NA,1,101,"Block2"
52,"2018-04-03",0.059365357688,"['num_4']",NA,"","[1.202066954694601]","['num_4']",1,3,NA,1,102,"Block2"
52,"2018-04-03",0.0587380753796,"['num_1']",NA,"","[0.7356318915408337, 1.3522881445278472, 2.0019991803073935]","['num_0', 'num_0', 'num_1']",0,3,NA,1,103,"Block2"
52,"2018-04-03",0.0591388960574,"['num_0']",NA,"","[0.0003704616901814006, 0.8679679458336977]","['num_1', 'num_1', 'num_0']",0,3,NA,1,104,"Block2"
52,"2018-04-03",0.0629563335206,"['num_7']",NA,"","[1.4446549516533196]","['num_7']",1,4,NA,1,105,"Block2"
52,"2018-04-03",0.0527175600891,"['num_1']",NA,"","[1.6918653094835463]","['num_1']",1,4,NA,1,106,"Block2"
52,"2018-04-03",0.0535183809307,"['num_4']",NA,"","[0.0003208206444469397, 2.890528775601524]","['num_0', 'num_4']",0,4,NA,1,107,"Block2"
52,"2018-04-03",0.0557395100468,"['num_0']",NA,"","[1.3882569797970064]","['num_0']",1,4,NA,1,108,"Block2"
52,"2018-04-03",0.0549370481785,"['num_0']",NA,"","[0.7555096432861319]","['num_0']",1,4,NA,1,109,"Block2"
52,"2018-04-03",0.0538318169565,"['num_4']",NA,"","[1.6916158734829878]","['num_4']",1,4,NA,1,110,"Block2"
52,"2018-04-03",0.0552648431849,"['num_1']",NA,"","[0.8385747030051789]","['num_1']",1,4,NA,1,111,"Block2"
52,"2018-04-03",0.0546297660021,"['num_0']",NA,"","[0.8895843649570452]","['num_0']",1,4,NA,1,112,"Block2"
52,"2018-04-03",0.0584160239659,"['num_7']",NA,"","[1.1672451968179303]","['num_7']",1,5,NA,1,113,"Block2"
52,"2018-04-03",0.0493509946054,"['num_1']",NA,"","[0.8788672323562423]","['num_1']",1,5,NA,1,114,"Block2"
52,"2018-04-03",0.0516595083727,"['num_4']",NA,"","[0.5762874159127023]","['num_4']",1,5,NA,1,115,"Block2"
52,"2018-04-03",0.0496147895856,"['num_0']",NA,"","[0.5450275056518876, 1.2954011468309545]","['num_1', 'num_0']",0,5,NA,1,116,"Block2"
52,"2018-04-03",0.0560164332373,"['num_0']",NA,"","[0.5712363369175364, 0.7376175333820356]","['num_4', 'num_0']",0,5,NA,1,117,"Block2"
52,"2018-04-03",0.0510072004136,"['num_4']",NA,"","[0.00033764116415113676, 0.09424250020219915, 0.2597133373183169, 0.42692653412359505, 0.577317570181549, 0.7436470743168684, 0.7599002091892544, 0.8941304181043961, 1.058295408531194, 1.2105289068831553, 1.54333068444339]","['num_4', 'num_1', 'num_0', 'num_1', 'num_0', 'num_7', 'num_4', 'num_1', 'num_0', 'num_1', 'num_1', 'num_1', 'num_4']",0,5,NA,1,118,"Block2"
52,"2018-04-03",0.0564558180331,"['num_1']",NA,"","[0.0005735386966989608, 0.08660762527506449, 0.26981098248597846]","['num_1', 'num_0', 'num_4', 'num_1']",0,5,NA,1,119,"Block2"
52,"2018-04-03",0.0541419709298,"['num_0']",NA,"","[0.000516923289069382, 0.10692024899344688]","['num_4', 'num_1', 'num_0', 'num_4', 'num_0']",0,5,NA,1,120,"Block2"
52,"2018-04-03",0.0524147907336,"['num_7']",NA,"","[0.000714256702849525, 0.1397559547713172, 0.3057392023547436, 0.472835476034561, 0.6229893837908094, 0.8065188949822186, 0.9902502524100782, 1.7397520983595314, 1.9406087961469893, 2.072729875991172, 2.272923188891582, 2.4570303413456713, 2.7732626762099244, 2.9253624309176303, 3.108268352109917, 3.273400317292726]","['num_4', 'num_0', 'num_4', 'num_1', 'num_4', 'num_0', 'num_1', 'num_0', 'num_4', 'num_4', 'num_1', 'num_0', 'num_1', 'num_7', 'num_4', 'num_4', 'num_4', 'num_7', 'num_4', 'num_4', 'num_1', 'num_7']",0,6,NA,1,121,"Block2"
52,"2018-04-03",0.0544176633503,"['num_1']",NA,"","[0.0005037950777477818, 0.1058351203419079, 0.27198944491829025, 0.45582746905711247, 0.6387723646239465, 0.8063080231004278, 0.972530040012316, 1.155938935769882]","['num_4', 'num_7', 'num_4', 'num_1', 'num_0', 'num_0', 'num_0', 'num_4', 'num_1', 'num_0', 'num_4', 'num_1']",0,6,NA,1,122,"Block2"
52,"2018-04-03",0.0529567396743,"['num_4']",NA,"","[0.000772102881455794, 0.12382240977331094, 0.3083911008789073, 0.5400978626039432, 0.7072843927317081, 0.8911228271272194, 1.0908074218696129]","['num_1', 'num_1', 'num_1', 'num_1', 'num_0', 'num_4', 'num_1', 'num_1', 'num_4']",0,6,NA,1,123,"Block2"
52,"2018-04-03",0.0537538682065,"['num_0']",NA,"","[0.0008209234138121246, 0.12357789685302123]","['num_1', 'num_0', 'num_1', 'num_0']",0,6,NA,1,124,"Block2"
52,"2018-04-03",0.0534457655167,"['num_0']",NA,"","[0.0006613336045120377, 0.17441730232530972]","['num_0', 'num_0', 'num_1', 'num_0']",0,6,NA,1,125,"Block2"
52,"2018-04-03",0.0479397119752,"['num_4']",NA,"","[0.1465785216732911, 0.34495275690369454, 0.8797993353018683, 1.0628402309084777, 1.2129001899074865, 1.429673612174156, 1.629638412159693, 1.8132774618570693, 2.013640620980368, 2.1810187409309947, 2.379717899371826, 2.563051307918613, 2.7640462621729966, 2.947482234864765, 3.130333181675269]","['num_1', 'num_1', 'num_0', 'num_1', 'num_1', 'num_1', 'num_1', 'num_1', 'num_1', 'num_4', 'num_1', 'num_0', 'num_0', 'num_1', 'num_0', 'num_4', 'num_1', 'num_4']",0,6,NA,1,126,"Block2"
52,"2018-04-03",0.0510092516961,"['num_1']",NA,"","[0.0008627695842733374, 0.17596561065238348]","['num_4', 'num_4', 'num_1', 'num_1']",0,6,NA,1,127,"Block2"
52,"2018-04-03",0.0641522314472,"['num_0']",NA,"","[0.0010998978877978516, 0.16134119439630012, 0.511450876492745]","['num_0', 'num_0', 'num_0', 'num_1', 'num_0']",0,6,NA,1,128,"Block2"
52,"2018-04-03",0.057892126315,"['num_7']",NA,"","[0.0007183592688306817, 0.16734324814115098, 0.3335677265922641, 0.5006057438386051, 0.7003695181001603, 0.8841283627198209, 1.0839889575345296, 1.2676403149298494, 1.8008495593230691]","['num_0', 'num_0', 'num_1', 'num_4', 'num_4', 'num_4', 'num_4', 'num_1', 'num_7']",0,7,NA,1,129,"Block2"
52,"2018-04-03",0.0612980764299,"['num_1']",NA,"","[0.0003532309146976331, 0.03081601264238998, 0.2333264546978171]","['num_7', 'num_4', 'num_4', 'num_1']",0,7,NA,1,130,"Block2"
52,"2018-04-03",0.0528812524644,"['num_4']",NA,"","[0.0007076925976434723, 0.2078515724515455, 0.37441492283687694, 0.5414258631490156, 0.7418936376998317]","['num_1', 'num_0', 'num_0', 'num_0', 'num_0', 'num_1', 'num_4']",0,7,NA,1,131,"Block2"
52,"2018-04-03",0.0493444305012,"['num_0']",NA,"","[0.00036964117771276506, 0.009972927167837042, 0.21229177940131194, 0.4113019123287813]","['num_4', 'num_4', 'num_1', 'num_1', 'num_1', 'num_0']",0,7,NA,1,132,"Block2"
52,"2018-04-03",0.056528433448,"['num_0']",NA,"","[0.00032164115691557527, 0.0003630770725067123, 0.18750284615543933, 0.3866832355624865, 0.5537823810391274, 0.7372901486323826, 0.9210440701726839, 1.104151837601421]","['num_0', 'num_1', 'num_1', 'num_4', 'num_4', 'num_4', 'num_1', 'num_0']",0,7,NA,1,133,"Block2"
52,"2018-04-03",0.0508422772682,"['num_4']",NA,"","[0.0007089233677106677, 0.12757789849365508, 0.49245558664824785]","['num_0', 'num_0', 'num_1', 'num_4']",0,7,NA,1,134,"Block2"
52,"2018-04-03",0.0474330451007,"['num_1']",NA,"","[0.0005981540916764061, 0.1976251067180783, 0.3801855918709407]","['num_4', 'num_1', 'num_1', 'num_4', 'num_7', 'num_1']",0,7,NA,1,135,"Block2"
52,"2018-04-03",0.0550154071861,"['num_0']",NA,"","[0.000719179782208812, 0.4236087891731586, 0.6236080507114821]","['num_1', 'num_0', 'num_1', 'num_1', 'num_0']",0,7,NA,1,136,"Block2"
52,"2018-04-03",0.0541083298913,"['num_7']",NA,"","[0.0003458462961134501, 0.01960246958060452, 0.23860071327180776, 0.4384974106651498, 0.6473139065901705, 0.8566834283828939, 1.0555672022837825, 1.2550318994999543, 1.4217261217336272, 1.6215912293710062]","['num_0', 'num_1', 'num_4', 'num_1', 'num_4', 'num_4', 'num_1', 'num_7', 'num_4', 'num_4', 'num_4', 'num_4', 'num_7']",0,8,NA,1,137,"Block2"
52,"2018-04-03",0.0497276101441,"['num_1']",NA,"","[0.00024451292028970784, 0.04281150474344031, 0.26190821001364384, 0.4616412150326141]","['num_4', 'num_7', 'num_4', 'num_7', 'num_7', 'num_4', 'num_1']",0,8,NA,1,138,"Block2"
52,"2018-04-03",0.0527429959975,"['num_4']",NA,"","[0.0005415386831373326, 0.15590078190780332, 0.3250389025797631, 0.5077794903709218]","['num_0', 'num_0', 'num_0', 'num_1', 'num_1', 'num_4']",0,8,NA,1,139,"Block2"
52,"2018-04-03",0.0510277132425,"['num_0']",NA,"","[0.0008910772885428742, 0.17630776463920483]","['num_4', 'num_1', 'num_0', 'num_0']",0,8,NA,1,140,"Block2"
52,"2018-04-03",0.0468763269237,"['num_0']",NA,"","[0.00040492324296792503, 0.09731327069312101]","['num_4', 'num_0', 'num_0']",0,8,NA,1,141,"Block2"
52,"2018-04-03",0.0525842267016,"['num_4']",NA,"","[0.0003450257827353198, 0.17620232869830943, 0.35999973743582814, 1.8571154285600642]","['num_1', 'num_7', 'num_7', 'num_4', 'num_1', 'num_0', 'num_7', 'num_4', 'num_1', 'num_0', 'num_4']",0,8,NA,1,142,"Block2"
52,"2018-04-03",0.0558309972639,"['num_1']",NA,"","[0.0003208206444469397, 0.1380702104906959, 0.1719861218407459]","['num_4', 'num_1', 'num_0', 'num_0', 'num_1']",0,8,NA,1,143,"Block2"
52,"2018-04-03",0.0259786773249,"['num_0']",NA,"","[0.0002518975397833856, 0.1687553512838349, 0.18518776828204864, 0.4521023393235737, 0.46865660252569796, 0.7520725136701003, 0.9854859427632618, 1.2353481991167428, 1.2517826673974923]","['num_7', 'num_4', 'num_1', 'num_0', 'num_1', 'num_0', 'num_4', 'num_1', 'num_0', 'num_7', 'num_1', 'num_0', 'num_4', 'num_1', 'num_0', 'num_1', 'num_0', 'num_1', 'num_0']",0,8,NA,1,144,"Block2"
52,"2018-04-03",0.0255310873981,"['num_7']",NA,"","[0.0005070771312603028, 0.01809354588476708, 0.2850971426041724, 0.3022700727260599, 0.5851021887601746, 4.987031789551111, 5.019620110613687, 5.0361395020063355]","['num_1', 'num_0', 'num_1', 'num_0', 'num_1', 'num_0', 'num_4', 'num_4', 'num_1', 'num_0', 'num_0', 'num_4', 'num_7']",0,9,NA,1,145,"Block2"
52,"2018-04-03",0.0575146902629,"['num_1']",NA,"","[2.250274153958344]","['num_1']",1,9,NA,1,146,"Block2"
52,"2018-04-03",0.0230888299848,"['num_4']",NA,"","[0.0003355898807058111, 4.372087127010673]","['num_4', 'num_4']",0,9,NA,1,147,"Block2"
52,"2018-04-03",0.05932433203,"['num_0']",NA,"","[0.967874038102309]","['num_0']",1,9,NA,1,148,"Block2"
52,"2018-04-03",0.0510621747953,"['num_0']",NA,"","[1.0096750808925208]","['num_0']",1,9,NA,1,149,"Block2"
52,"2018-04-03",0.0490724303891,"['num_4']",NA,"","[1.711073112235681]","['num_4']",1,9,NA,1,150,"Block2"
52,"2018-04-03",0.0535848424961,"['num_1']",NA,"","[1.3236854661272446]","['num_1']",1,9,NA,1,151,"Block2"
52,"2018-04-03",0.0641665904268,"['num_0']",NA,"","[1.445509105849851]","['num_0']",1,9,NA,1,152,"Block2"
52,"2018-04-03",0.0492833022699,"['num_7']",NA,"","[1.160751245436586]","['num_7']",1,10,NA,1,153,"Block2"
52,"2018-04-03",0.0546740737118,"['num_1']",NA,"","[1.173380583951257]","['num_1']",1,10,NA,1,154,"Block2"
52,"2018-04-03",0.0501912000782,"['num_4']",NA,"","[0.7120601895639993]","['num_4']",1,10,NA,1,155,"Block2"
52,"2018-04-03",0.0554252535076,"['num_0']",NA,"","[0.5556133561494789]","['num_0']",1,10,NA,1,156,"Block2"
52,"2018-04-03",0.0598277168519,"['num_0']",NA,"","[0.5676154123557353, 1.2669974428708883]","['num_1', 'num_0', 'num_0']",0,10,NA,1,157,"Block2"
52,"2018-04-03",0.0570806388023,"['num_4']",NA,"","[1.3037638169289494, 2.019535597758477]","['num_0', 'num_4']",0,10,NA,1,158,"Block2"
52,"2018-04-03",0.055423202225,"['num_1']",NA,"","[0.00033887193421833217, 0.35616424868294416]","['num_4', 'num_1']",0,10,NA,1,159,"Block2"
52,"2018-04-03",0.0485181737504,"['num_0']",NA,"","[0.00032615398049529176, 0.02739816508619697, 0.19576049056831835, 0.3790241554970635]","['num_1', 'num_0', 'num_4', 'num_0']",0,10,NA,1,160,"Block2"
