"participant","date1","stimulusPresent.t","correctKey","keyRespCorrect","correctKeyPressNum","key_resp_9.rt","key_resp_9.keys","trialCorrect","repetitionNumber","anticipatoryResponse","PreTouchByDate","recallResponse","recallResponseTime","RecordAnswer.keys","questionsResponses","trials_questions.thisRepN","trials_questions.thisTrialN","trials_questions.thisN","trials_test.thisRepN","trials_test.thisTrialN","trials_test.thisN","trials_test.thisIndex","trials_recogtest.thisRepN","trials_recogtest.thisTrialN","trials_recogtest.thisN","trials_recogtest.thisIndex","AnswerFinished.keys","AnswerFinished.rt","RecordAnswer.keys.1"
3,"2019-04-21",NA,"['num_0']",NA,"num_0",NA,NA,NA,NA,NA,0,"",NA,"","",0,-1,-1,NA,NA,NA,NA,NA,NA,NA,NA,"",NA,""
3,"2019-04-21",NA,"['num_0']",NA,"num_0",NA,NA,NA,NA,NA,0,"",NA,"","['1']",0,-1,-1,NA,NA,NA,NA,NA,NA,NA,NA,"",NA,""
3,"2019-04-21",NA,"['num_0']",NA,"num_0",NA,NA,NA,NA,NA,0,"",NA,"","['2']",0,-1,-1,NA,NA,NA,NA,NA,NA,NA,NA,"",NA,""
3,"2019-04-21",NA,"['num_0']",NA,"num_0",NA,NA,NA,NA,NA,0,"",NA,"","['1']",0,-1,-1,NA,NA,NA,NA,NA,NA,NA,NA,"",NA,""
3,"2019-04-21",NA,"['num_0']",NA,"num_0",NA,NA,NA,NA,NA,0,"",NA,"","['1']",0,-1,-1,NA,NA,NA,NA,NA,NA,NA,NA,"",NA,""
3,"2019-04-21",NA,"['num_0']",NA,"num_0",NA,NA,NA,NA,NA,0,"",NA,"violin and piano and singing","",0,-1,-1,NA,NA,NA,NA,NA,NA,NA,NA,"return",8.4339932037,"violin and piano and singing"
3,"2019-04-21",NA,"['num_0']",NA,"num_0",NA,NA,0,1,NA,0,"['2']",5.4467132089,"","",0,-1,-1,0,0,0,0,NA,NA,NA,NA,"",NA,""
3,"2019-04-21",NA,"['num_0']",NA,"num_0",NA,NA,0,1,NA,0,"['4']",3.14705606033,"","",0,-1,-1,0,0,0,0,NA,NA,NA,NA,"",NA,""
3,"2019-04-21",NA,"['num_0']",NA,"num_0",NA,NA,0,1,NA,0,"['3']",4.47052162893,"","",0,-1,-1,0,0,0,0,NA,NA,NA,NA,"",NA,""
3,"2019-04-21",NA,"['num_0']",NA,"num_0",NA,NA,0,1,NA,0,"['1']",2.74637117799,"","",0,-1,-1,0,0,0,0,NA,NA,NA,NA,"",NA,""
3,"2019-04-21",NA,"['num_0']",NA,"num_0",NA,NA,0,1,NA,0,"['1']",2.35968014757,"","",0,-1,-1,0,0,0,0,NA,NA,NA,NA,"",NA,""
3,"2019-04-21",NA,"['num_0']",NA,"num_0",NA,NA,0,1,NA,0,"['4']",2.76351662094,"","",0,-1,-1,0,0,0,0,NA,NA,NA,NA,"",NA,""
3,"2019-04-21",NA,"['num_0']",NA,"num_0",NA,NA,1,1,NA,0,"['4']",2.57760023697,"","",0,-1,-1,0,0,0,0,NA,NA,NA,NA,"",NA,""
3,"2019-04-21",NA,"['num_0']",NA,"num_0",NA,NA,0,1,NA,0,"['4']",1.4737597841,"","",0,-1,-1,0,0,0,0,NA,NA,NA,NA,"",NA,""
3,"2019-04-21",NA,"['num_0']",NA,"num_0",NA,NA,0,1,NA,0,"['2']",2.84712116804,"","",0,-1,-1,0,0,0,0,NA,NA,NA,NA,"",NA,""
3,"2019-04-21",NA,"['num_0']",NA,"num_0",NA,NA,1,1,NA,0,"['1']",26.6559165768,"","",0,-1,-1,0,0,0,0,0,0,0,0,"",NA,""
3,"2019-04-21",NA,"['num_0']",NA,"num_0",NA,NA,0,1,NA,0,"['2']",12.5875387026,"","",0,-1,-1,0,0,0,0,0,0,0,0,"",NA,""
31,"2018-07-09",NA,"['num_4']",NA,"num_4",NA,NA,NA,NA,NA,0,"",NA,NA,"",0,-1,-1,NA,NA,NA,NA,NA,NA,NA,NA,"",NA,NA
31,"2018-07-09",NA,"['num_4']",NA,"num_4",NA,NA,NA,NA,NA,0,"",NA,NA,"['1']",0,-1,-1,NA,NA,NA,NA,NA,NA,NA,NA,"",NA,NA
31,"2018-07-09",NA,"['num_4']",NA,"num_4",NA,NA,NA,NA,NA,0,"",NA,NA,"['2']",0,-1,-1,NA,NA,NA,NA,NA,NA,NA,NA,"",NA,NA
31,"2018-07-09",NA,"['num_4']",NA,"num_4",NA,NA,NA,NA,NA,0,"",NA,NA,"['1']",0,-1,-1,NA,NA,NA,NA,NA,NA,NA,NA,"",NA,NA
31,"2018-07-09",NA,"['num_4']",NA,"num_4",NA,NA,NA,NA,NA,0,"",NA,NA,"['2']",0,-1,-1,NA,NA,NA,NA,NA,NA,NA,NA,"",NA,NA
31,"2018-07-09",NA,"['num_4']",NA,"num_4",NA,NA,NA,NA,NA,0,"",NA,NA,"",0,-1,-1,NA,NA,NA,NA,NA,NA,NA,NA,"return",1.51952019706,NA
31,"2018-07-09",NA,"['num_4']",NA,"num_4",NA,NA,0,1,NA,0,"['4']",7.48590872379,NA,"",0,-1,-1,0,0,0,0,NA,NA,NA,NA,"",NA,NA
31,"2018-07-09",NA,"['num_4']",NA,"num_4",NA,NA,1,1,NA,0,"['2']",9.20947888843,NA,"",0,-1,-1,0,0,0,0,NA,NA,NA,NA,"",NA,NA
31,"2018-07-09",NA,"['num_4']",NA,"num_4",NA,NA,0,1,NA,0,"['3']",5.141078096,NA,"",0,-1,-1,0,0,0,0,NA,NA,NA,NA,"",NA,NA
31,"2018-07-09",NA,"['num_4']",NA,"num_4",NA,NA,0,1,NA,0,"['1']",3.88421789359,NA,"",0,-1,-1,0,0,0,0,NA,NA,NA,NA,"",NA,NA
31,"2018-07-09",NA,"['num_4']",NA,"num_4",NA,NA,0,1,NA,0,"['3']",4.438097051,NA,"",0,-1,-1,0,0,0,0,NA,NA,NA,NA,"",NA,NA
31,"2018-07-09",NA,"['num_4']",NA,"num_4",NA,NA,0,1,NA,0,"['4']",3.75160953775,NA,"",0,-1,-1,0,0,0,0,NA,NA,NA,NA,"",NA,NA
31,"2018-07-09",NA,"['num_4']",NA,"num_4",NA,NA,0,1,NA,0,"['1']",3.28118347446,NA,"",0,-1,-1,0,0,0,0,NA,NA,NA,NA,"",NA,NA
31,"2018-07-09",NA,"['num_4']",NA,"num_4",NA,NA,0,1,NA,0,"['3']",4.5209130171,NA,"",0,-1,-1,0,0,0,0,NA,NA,NA,NA,"",NA,NA
31,"2018-07-09",NA,"['num_4']",NA,"num_4",NA,NA,0,1,NA,0,"['4']",3.44894955936,NA,"",0,-1,-1,0,0,0,0,NA,NA,NA,NA,"",NA,NA
31,"2018-07-09",NA,"['num_4']",NA,"num_4",NA,NA,1,1,NA,0,"['1']",23.8496927797,NA,"",0,-1,-1,0,0,0,0,0,0,0,0,"",NA,NA
31,"2018-07-09",NA,"['num_4']",NA,"num_4",NA,NA,0,1,NA,0,"['1']",14.9667048341,NA,"",0,-1,-1,0,0,0,0,0,0,0,0,"",NA,NA
75,"2018-10-27",NA,"['num_0']",NA,"num_0",NA,NA,NA,NA,NA,0,"",NA,"","",0,-1,-1,NA,NA,NA,NA,NA,NA,NA,NA,"",NA,""
75,"2018-10-27",NA,"['num_0']",NA,"num_0",NA,NA,NA,NA,NA,0,"",NA,"","['1']",0,-1,-1,NA,NA,NA,NA,NA,NA,NA,NA,"",NA,""
75,"2018-10-27",NA,"['num_0']",NA,"num_0",NA,NA,NA,NA,NA,0,"",NA,"","['1']",0,-1,-1,NA,NA,NA,NA,NA,NA,NA,NA,"",NA,""
75,"2018-10-27",NA,"['num_0']",NA,"num_0",NA,NA,NA,NA,NA,0,"",NA,"","['1']",0,-1,-1,NA,NA,NA,NA,NA,NA,NA,NA,"",NA,""
75,"2018-10-27",NA,"['num_0']",NA,"num_0",NA,NA,NA,NA,NA,0,"",NA,"","['2']",0,-1,-1,NA,NA,NA,NA,NA,NA,NA,NA,"",NA,""
75,"2018-10-27",NA,"['num_0']",NA,"num_0",NA,NA,NA,NA,NA,0,"",NA,"na","",0,-1,-1,NA,NA,NA,NA,NA,NA,NA,NA,"return",4.02276018634,"na"
75,"2018-10-27",NA,"['num_0']",NA,"num_0",NA,NA,1,1,NA,0,"['3']",6.56528856186,"","",0,-1,-1,0,0,0,0,NA,NA,NA,NA,"",NA,""
75,"2018-10-27",NA,"['num_0']",NA,"num_0",NA,NA,1,1,NA,0,"['2']",2.36053960165,"","",0,-1,-1,0,0,0,0,NA,NA,NA,NA,"",NA,""
75,"2018-10-27",NA,"['num_0']",NA,"num_0",NA,NA,1,1,NA,0,"['4']",1.87465405138,"","",0,-1,-1,0,0,0,0,NA,NA,NA,NA,"",NA,""
75,"2018-10-27",NA,"['num_0']",NA,"num_0",NA,NA,1,1,NA,0,"['4']",1.80827543931,"","",0,-1,-1,0,0,0,0,NA,NA,NA,NA,"",NA,""
75,"2018-10-27",NA,"['num_0']",NA,"num_0",NA,NA,0,1,NA,0,"['1']",3.60005530249,"","",0,-1,-1,0,0,0,0,NA,NA,NA,NA,"",NA,""
75,"2018-10-27",NA,"['num_0']",NA,"num_0",NA,NA,1,1,NA,0,"['3']",6.24548328621,"","",0,-1,-1,0,0,0,0,NA,NA,NA,NA,"",NA,""
75,"2018-10-27",NA,"['num_0']",NA,"num_0",NA,NA,1,1,NA,0,"['4']",2.00861989008,"","",0,-1,-1,0,0,0,0,NA,NA,NA,NA,"",NA,""
75,"2018-10-27",NA,"['num_0']",NA,"num_0",NA,NA,0,1,NA,0,"['1']",2.69527163496,"","",0,-1,-1,0,0,0,0,NA,NA,NA,NA,"",NA,""
75,"2018-10-27",NA,"['num_0']",NA,"num_0",NA,NA,0,1,NA,0,"['3']",2.98114340007,"","",0,-1,-1,0,0,0,0,NA,NA,NA,NA,"",NA,""
75,"2018-10-27",NA,"['num_0']",NA,"num_0",NA,NA,1,1,NA,0,"['1']",11.0285328999,"","",0,-1,-1,0,0,0,0,0,0,0,0,"",NA,""
75,"2018-10-27",NA,"['num_0']",NA,"num_0",NA,NA,0,1,NA,0,"['1']",24.7460535415,"","",0,-1,-1,0,0,0,0,0,0,0,0,"",NA,""
81,"2019-01-13",NA,"['num_7']",NA,"num_7",NA,NA,NA,NA,NA,0,"",NA,"","",0,-1,-1,NA,NA,NA,NA,NA,NA,NA,NA,"",NA,""
81,"2019-01-13",NA,"['num_7']",NA,"num_7",NA,NA,NA,NA,NA,0,"",NA,"","['1']",0,-1,-1,NA,NA,NA,NA,NA,NA,NA,NA,"",NA,""
81,"2019-01-13",NA,"['num_7']",NA,"num_7",NA,NA,NA,NA,NA,0,"",NA,"","['1']",0,-1,-1,NA,NA,NA,NA,NA,NA,NA,NA,"",NA,""
81,"2019-01-13",NA,"['num_7']",NA,"num_7",NA,NA,NA,NA,NA,0,"",NA,"","['2']",0,-1,-1,NA,NA,NA,NA,NA,NA,NA,NA,"",NA,""
81,"2019-01-13",NA,"['num_7']",NA,"num_7",NA,NA,NA,NA,NA,0,"",NA,"","['1']",0,-1,-1,NA,NA,NA,NA,NA,NA,NA,NA,"",NA,""
81,"2019-01-13",NA,"['num_7']",NA,"num_7",NA,NA,NA,NA,NA,0,"",NA,"piano","",0,-1,-1,NA,NA,NA,NA,NA,NA,NA,NA,"return",2.32360930322,"piano"
81,"2019-01-13",NA,"['num_7']",NA,"num_7",NA,NA,0,1,NA,0,"['4']",5.16428752244,"","",0,-1,-1,0,0,0,0,NA,NA,NA,NA,"",NA,""
81,"2019-01-13",NA,"['num_7']",NA,"num_7",NA,NA,0,1,NA,0,"['4']",8.05389125971,"","",0,-1,-1,0,0,0,0,NA,NA,NA,NA,"",NA,""
81,"2019-01-13",NA,"['num_7']",NA,"num_7",NA,NA,1,1,NA,0,"['4']",7.28447454982,"","",0,-1,-1,0,0,0,0,NA,NA,NA,NA,"",NA,""
81,"2019-01-13",NA,"['num_7']",NA,"num_7",NA,NA,0,1,NA,0,"['1']",6.22957241861,"","",0,-1,-1,0,0,0,0,NA,NA,NA,NA,"",NA,""
81,"2019-01-13",NA,"['num_7']",NA,"num_7",NA,NA,0,1,NA,0,"['3']",7.06760694645,"","",0,-1,-1,0,0,0,0,NA,NA,NA,NA,"",NA,""
81,"2019-01-13",NA,"['num_7']",NA,"num_7",NA,NA,1,1,NA,0,"['3']",9.30948787276,"","",0,-1,-1,0,0,0,0,NA,NA,NA,NA,"",NA,""
81,"2019-01-13",NA,"['num_7']",NA,"num_7",NA,NA,1,1,NA,0,"['4']",5.12395030772,"","",0,-1,-1,0,0,0,0,NA,NA,NA,NA,"",NA,""
81,"2019-01-13",NA,"['num_7']",NA,"num_7",NA,NA,0,1,NA,0,"['4']",2.69520012522,"","",0,-1,-1,0,0,0,0,NA,NA,NA,NA,"",NA,""
81,"2019-01-13",NA,"['num_7']",NA,"num_7",NA,NA,0,1,NA,0,"['3']",5.37477564113,"","",0,-1,-1,0,0,0,0,NA,NA,NA,NA,"",NA,""
81,"2019-01-13",NA,"['num_7']",NA,"num_7",NA,NA,1,1,NA,0,"['1']",15.0514412099,"","",0,-1,-1,0,0,0,0,0,0,0,0,"",NA,""
81,"2019-01-13",NA,"['num_7']",NA,"num_7",NA,NA,1,1,NA,0,"['3']",6.24088810617,"","",0,-1,-1,0,0,0,0,0,0,0,0,"",NA,""
87,"2018-06-22",NA,"['num_4']",NA,"num_4",NA,NA,NA,NA,NA,0,"",NA,NA,"",0,-1,-1,NA,NA,NA,NA,NA,NA,NA,NA,"",NA,NA
87,"2018-06-22",NA,"['num_4']",NA,"num_4",NA,NA,NA,NA,NA,0,"",NA,NA,"['1']",0,-1,-1,NA,NA,NA,NA,NA,NA,NA,NA,"",NA,NA
87,"2018-06-22",NA,"['num_4']",NA,"num_4",NA,NA,NA,NA,NA,0,"",NA,NA,"['1']",0,-1,-1,NA,NA,NA,NA,NA,NA,NA,NA,"",NA,NA
87,"2018-06-22",NA,"['num_4']",NA,"num_4",NA,NA,NA,NA,NA,0,"",NA,NA,"['1']",0,-1,-1,NA,NA,NA,NA,NA,NA,NA,NA,"",NA,NA
87,"2018-06-22",NA,"['num_4']",NA,"num_4",NA,NA,NA,NA,NA,0,"",NA,NA,"['2']",0,-1,-1,NA,NA,NA,NA,NA,NA,NA,NA,"",NA,NA
87,"2018-06-22",NA,"['num_4']",NA,"num_4",NA,NA,NA,NA,NA,0,"",NA,NA,"",0,-1,-1,NA,NA,NA,NA,NA,NA,NA,NA,"return",2.16877818717,NA
87,"2018-06-22",NA,"['num_4']",NA,"num_4",NA,NA,1,1,NA,0,"['3']",3.8132209997,NA,"",0,-1,-1,0,0,0,0,NA,NA,NA,NA,"",NA,NA
87,"2018-06-22",NA,"['num_4']",NA,"num_4",NA,NA,1,1,NA,0,"['2']",2.53248060206,NA,"",0,-1,-1,0,0,0,0,NA,NA,NA,NA,"",NA,NA
87,"2018-06-22",NA,"['num_4']",NA,"num_4",NA,NA,1,1,NA,0,"['4']",2.46580862941,NA,"",0,-1,-1,0,0,0,0,NA,NA,NA,NA,"",NA,NA
87,"2018-06-22",NA,"['num_4']",NA,"num_4",NA,NA,1,1,NA,0,"['4']",4.13212097144,NA,"",0,-1,-1,0,0,0,0,NA,NA,NA,NA,"",NA,NA
87,"2018-06-22",NA,"['num_4']",NA,"num_4",NA,NA,0,1,NA,0,"['1']",1.48289703266,NA,"",0,-1,-1,0,0,0,0,NA,NA,NA,NA,"",NA,NA
87,"2018-06-22",NA,"['num_4']",NA,"num_4",NA,NA,1,1,NA,0,"['3']",2.06516633224,NA,"",0,-1,-1,0,0,0,0,NA,NA,NA,NA,"",NA,NA
87,"2018-06-22",NA,"['num_4']",NA,"num_4",NA,NA,1,1,NA,0,"['4']",0.916398803529,NA,"",0,-1,-1,0,0,0,0,NA,NA,NA,NA,"",NA,NA
87,"2018-06-22",NA,"['num_4']",NA,"num_4",NA,NA,0,1,NA,0,"['1']",1.6655418808,NA,"",0,-1,-1,0,0,0,0,NA,NA,NA,NA,"",NA,NA
87,"2018-06-22",NA,"['num_4']",NA,"num_4",NA,NA,0,1,NA,0,"['3']",3.36559164489,NA,"",0,-1,-1,0,0,0,0,NA,NA,NA,NA,"",NA,NA
87,"2018-06-22",NA,"['num_4']",NA,"num_4",NA,NA,0,1,NA,0,"['2']",35.4976937445,NA,"",0,-1,-1,0,0,0,0,0,0,0,0,"",NA,NA
87,"2018-06-22",NA,"['num_4']",NA,"num_4",NA,NA,0,1,NA,0,"['1']",10.5293819367,NA,"",0,-1,-1,0,0,0,0,0,0,0,0,"",NA,NA
88,"2018-06-22",NA,"['num_4']",NA,"num_4",NA,NA,NA,NA,NA,0,"",NA,"","",0,-1,-1,NA,NA,NA,NA,NA,NA,NA,NA,"",NA,""
88,"2018-06-22",NA,"['num_4']",NA,"num_4",NA,NA,NA,NA,NA,0,"",NA,"","['1']",0,-1,-1,NA,NA,NA,NA,NA,NA,NA,NA,"",NA,""
88,"2018-06-22",NA,"['num_4']",NA,"num_4",NA,NA,NA,NA,NA,0,"",NA,"","['1']",0,-1,-1,NA,NA,NA,NA,NA,NA,NA,NA,"",NA,""
88,"2018-06-22",NA,"['num_4']",NA,"num_4",NA,NA,NA,NA,NA,0,"",NA,"","['1']",0,-1,-1,NA,NA,NA,NA,NA,NA,NA,NA,"",NA,""
88,"2018-06-22",NA,"['num_4']",NA,"num_4",NA,NA,NA,NA,NA,0,"",NA,"","['1']",0,-1,-1,NA,NA,NA,NA,NA,NA,NA,NA,"",NA,""
88,"2018-06-22",NA,"['num_4']",NA,"num_4",NA,NA,NA,NA,NA,0,"",NA,"violin","",0,-1,-1,NA,NA,NA,NA,NA,NA,NA,NA,"return",1.71945201253,"violin"
88,"2018-06-22",NA,"['num_4']",NA,"num_4",NA,NA,0,1,NA,0,"['2']",4.98215795604,"","",0,-1,-1,0,0,0,0,NA,NA,NA,NA,"",NA,""
88,"2018-06-22",NA,"['num_4']",NA,"num_4",NA,NA,0,1,NA,0,"['1']",4.33158386397,"","",0,-1,-1,0,0,0,0,NA,NA,NA,NA,"",NA,""
88,"2018-06-22",NA,"['num_4']",NA,"num_4",NA,NA,1,1,NA,0,"['4']",7.66506434254,"","",0,-1,-1,0,0,0,0,NA,NA,NA,NA,"",NA,""
88,"2018-06-22",NA,"['num_4']",NA,"num_4",NA,NA,0,1,NA,0,"['1']",6.63190579204,"","",0,-1,-1,0,0,0,0,NA,NA,NA,NA,"",NA,""
88,"2018-06-22",NA,"['num_4']",NA,"num_4",NA,NA,1,1,NA,0,"['2']",3.53206788428,"","",0,-1,-1,0,0,0,0,NA,NA,NA,NA,"",NA,""
88,"2018-06-22",NA,"['num_4']",NA,"num_4",NA,NA,0,1,NA,0,"['4']",2.1156446705,"","",0,-1,-1,0,0,0,0,NA,NA,NA,NA,"",NA,""
88,"2018-06-22",NA,"['num_4']",NA,"num_4",NA,NA,0,1,NA,0,"['1']",2.2839547553,"","",0,-1,-1,0,0,0,0,NA,NA,NA,NA,"",NA,""
88,"2018-06-22",NA,"['num_4']",NA,"num_4",NA,NA,0,1,NA,0,"['1']",1.69955909762,"","",0,-1,-1,0,0,0,0,NA,NA,NA,NA,"",NA,""
88,"2018-06-22",NA,"['num_4']",NA,"num_4",NA,NA,0,1,NA,0,"['3']",3.84848088267,"","",0,-1,-1,0,0,0,0,NA,NA,NA,NA,"",NA,""
88,"2018-06-22",NA,"['num_4']",NA,"num_4",NA,NA,0,1,NA,0,"['2']",14.2515674865,"","",0,-1,-1,0,0,0,0,0,0,0,0,"",NA,""
88,"2018-06-22",NA,"['num_4']",NA,"num_4",NA,NA,1,1,NA,0,"['3']",4.42948208021,"","",0,-1,-1,0,0,0,0,0,0,0,0,"",NA,""
89,"2018-06-22",NA,"['num_0']",NA,"num_0",NA,NA,NA,NA,NA,0,"",NA,"","",0,-1,-1,NA,NA,NA,NA,NA,NA,NA,NA,"",NA,""
89,"2018-06-22",NA,"['num_0']",NA,"num_0",NA,NA,NA,NA,NA,0,"",NA,"","['1']",0,-1,-1,NA,NA,NA,NA,NA,NA,NA,NA,"",NA,""
89,"2018-06-22",NA,"['num_0']",NA,"num_0",NA,NA,NA,NA,NA,0,"",NA,"","['1']",0,-1,-1,NA,NA,NA,NA,NA,NA,NA,NA,"",NA,""
89,"2018-06-22",NA,"['num_0']",NA,"num_0",NA,NA,NA,NA,NA,0,"",NA,"","['1']",0,-1,-1,NA,NA,NA,NA,NA,NA,NA,NA,"",NA,""
89,"2018-06-22",NA,"['num_0']",NA,"num_0",NA,NA,NA,NA,NA,0,"",NA,"","['1']",0,-1,-1,NA,NA,NA,NA,NA,NA,NA,NA,"",NA,""
89,"2018-06-22",NA,"['num_0']",NA,"num_0",NA,NA,NA,NA,NA,0,"",NA,"violin recorder","",0,-1,-1,NA,NA,NA,NA,NA,NA,NA,NA,"return",26.9649563221,"violin recorder"
89,"2018-06-22",NA,"['num_0']",NA,"num_0",NA,NA,1,1,NA,0,"['3']",4.09160980857,"","",0,-1,-1,0,0,0,0,NA,NA,NA,NA,"",NA,""
89,"2018-06-22",NA,"['num_0']",NA,"num_0",NA,NA,1,1,NA,0,"['2']",4.05274828605,"","",0,-1,-1,0,0,0,0,NA,NA,NA,NA,"",NA,""
89,"2018-06-22",NA,"['num_0']",NA,"num_0",NA,NA,1,1,NA,0,"['4']",1.9763286251,"","",0,-1,-1,0,0,0,0,NA,NA,NA,NA,"",NA,""
89,"2018-06-22",NA,"['num_0']",NA,"num_0",NA,NA,0,1,NA,0,"['1']",2.56204817967,"","",0,-1,-1,0,0,0,0,NA,NA,NA,NA,"",NA,""
89,"2018-06-22",NA,"['num_0']",NA,"num_0",NA,NA,0,1,NA,0,"['1']",2.67813633718,"","",0,-1,-1,0,0,0,0,NA,NA,NA,NA,"",NA,""
89,"2018-06-22",NA,"['num_0']",NA,"num_0",NA,NA,1,1,NA,0,"['3']",3.16479911188,"","",0,-1,-1,0,0,0,0,NA,NA,NA,NA,"",NA,""
89,"2018-06-22",NA,"['num_0']",NA,"num_0",NA,NA,0,1,NA,0,"['3']",2.4104769598,"","",0,-1,-1,0,0,0,0,NA,NA,NA,NA,"",NA,""
89,"2018-06-22",NA,"['num_0']",NA,"num_0",NA,NA,1,1,NA,0,"['2']",1.90880619126,"","",0,-1,-1,0,0,0,0,NA,NA,NA,NA,"",NA,""
89,"2018-06-22",NA,"['num_0']",NA,"num_0",NA,NA,1,1,NA,0,"['1']",2.77777445014,"","",0,-1,-1,0,0,0,0,NA,NA,NA,NA,"",NA,""
89,"2018-06-22",NA,"['num_0']",NA,"num_0",NA,NA,0,1,NA,0,"['3']",31.5999283693,"","",0,-1,-1,0,0,0,0,0,0,0,0,"",NA,""
89,"2018-06-22",NA,"['num_0']",NA,"num_0",NA,NA,1,1,NA,0,"['3']",10.5787439677,"","",0,-1,-1,0,0,0,0,0,0,0,0,"",NA,""
92,"2018-07-22",NA,"['num_0']",NA,"num_0",NA,NA,NA,NA,NA,0,"",NA,NA,"",0,-1,-1,NA,NA,NA,NA,NA,NA,NA,NA,"",NA,NA
92,"2018-07-22",NA,"['num_0']",NA,"num_0",NA,NA,NA,NA,NA,0,"",NA,NA,"['1']",0,-1,-1,NA,NA,NA,NA,NA,NA,NA,NA,"",NA,NA
92,"2018-07-22",NA,"['num_0']",NA,"num_0",NA,NA,NA,NA,NA,0,"",NA,NA,"['1']",0,-1,-1,NA,NA,NA,NA,NA,NA,NA,NA,"",NA,NA
92,"2018-07-22",NA,"['num_0']",NA,"num_0",NA,NA,NA,NA,NA,0,"",NA,NA,"['1']",0,-1,-1,NA,NA,NA,NA,NA,NA,NA,NA,"",NA,NA
92,"2018-07-22",NA,"['num_0']",NA,"num_0",NA,NA,NA,NA,NA,0,"",NA,NA,"['2']",0,-1,-1,NA,NA,NA,NA,NA,NA,NA,NA,"",NA,NA
92,"2018-07-22",NA,"['num_0']",NA,"num_0",NA,NA,NA,NA,NA,0,"",NA,NA,"",0,-1,-1,NA,NA,NA,NA,NA,NA,NA,NA,"return",3.3796721064,NA
92,"2018-07-22",NA,"['num_0']",NA,"num_0",NA,NA,1,1,NA,0,"['3']",9.1834602531,NA,"",0,-1,-1,0,0,0,0,NA,NA,NA,NA,"",NA,NA
92,"2018-07-22",NA,"['num_0']",NA,"num_0",NA,NA,0,1,NA,0,"['4']",3.68253758567,NA,"",0,-1,-1,0,0,0,0,NA,NA,NA,NA,"",NA,NA
92,"2018-07-22",NA,"['num_0']",NA,"num_0",NA,NA,0,1,NA,0,"['3']",4.75536800441,NA,"",0,-1,-1,0,0,0,0,NA,NA,NA,NA,"",NA,NA
92,"2018-07-22",NA,"['num_0']",NA,"num_0",NA,NA,1,1,NA,0,"['4']",1.28803346711,NA,"",0,-1,-1,0,0,0,0,NA,NA,NA,NA,"",NA,NA
92,"2018-07-22",NA,"['num_0']",NA,"num_0",NA,NA,0,1,NA,0,"['4']",1.72334705506,NA,"",0,-1,-1,0,0,0,0,NA,NA,NA,NA,"",NA,NA
92,"2018-07-22",NA,"['num_0']",NA,"num_0",NA,NA,1,1,NA,0,"['3']",3.86830635348,NA,"",0,-1,-1,0,0,0,0,NA,NA,NA,NA,"",NA,NA
92,"2018-07-22",NA,"['num_0']",NA,"num_0",NA,NA,0,1,NA,0,"['1']",2.1424952964,NA,"",0,-1,-1,0,0,0,0,NA,NA,NA,NA,"",NA,NA
92,"2018-07-22",NA,"['num_0']",NA,"num_0",NA,NA,0,1,NA,0,"['1']",2.93028876332,NA,"",0,-1,-1,0,0,0,0,NA,NA,NA,NA,"",NA,NA
92,"2018-07-22",NA,"['num_0']",NA,"num_0",NA,NA,0,1,NA,0,"['3']",3.39897304532,NA,"",0,-1,-1,0,0,0,0,NA,NA,NA,NA,"",NA,NA
92,"2018-07-22",NA,"['num_0']",NA,"num_0",NA,NA,0,1,NA,0,"['3']",15.0880488928,NA,"",0,-1,-1,0,0,0,0,0,0,0,0,"",NA,NA
92,"2018-07-22",NA,"['num_0']",NA,"num_0",NA,NA,0,1,NA,0,"['2']",5.67304424456,NA,"",0,-1,-1,0,0,0,0,0,0,0,0,"",NA,NA
103,"2018-12-22",NA,"['num_1']",NA,"num_1",NA,NA,NA,NA,NA,0,"",NA,NA,"",0,-1,-1,NA,NA,NA,NA,NA,NA,NA,NA,"",NA,NA
103,"2018-12-22",NA,"['num_1']",NA,"num_1",NA,NA,NA,NA,NA,0,"",NA,NA,"['3']",0,-1,-1,NA,NA,NA,NA,NA,NA,NA,NA,"",NA,NA
103,"2018-12-22",NA,"['num_1']",NA,"num_1",NA,NA,NA,NA,NA,0,"",NA,NA,"['1']",0,-1,-1,NA,NA,NA,NA,NA,NA,NA,NA,"",NA,NA
103,"2018-12-22",NA,"['num_1']",NA,"num_1",NA,NA,NA,NA,NA,0,"",NA,NA,"['1']",0,-1,-1,NA,NA,NA,NA,NA,NA,NA,NA,"",NA,NA
103,"2018-12-22",NA,"['num_1']",NA,"num_1",NA,NA,NA,NA,NA,0,"",NA,NA,"['2']",0,-1,-1,NA,NA,NA,NA,NA,NA,NA,NA,"",NA,NA
103,"2018-12-22",NA,"['num_1']",NA,"num_1",NA,NA,NA,NA,NA,0,"",NA,NA,"",0,-1,-1,NA,NA,NA,NA,NA,NA,NA,NA,"return",0.937008846318,NA
103,"2018-12-22",NA,"['num_1']",NA,"num_1",NA,NA,1,1,NA,0,"['3']",5.60760590457,NA,"",0,-1,-1,0,0,0,0,NA,NA,NA,NA,"",NA,NA
103,"2018-12-22",NA,"['num_1']",NA,"num_1",NA,NA,0,1,NA,0,"['1']",6.8650310298,NA,"",0,-1,-1,0,0,0,0,NA,NA,NA,NA,"",NA,NA
103,"2018-12-22",NA,"['num_1']",NA,"num_1",NA,NA,1,1,NA,0,"['4']",5.89307327475,NA,"",0,-1,-1,0,0,0,0,NA,NA,NA,NA,"",NA,NA
103,"2018-12-22",NA,"['num_1']",NA,"num_1",NA,NA,0,1,NA,0,"['1']",4.57138191955,NA,"",0,-1,-1,0,0,0,0,NA,NA,NA,NA,"",NA,NA
103,"2018-12-22",NA,"['num_1']",NA,"num_1",NA,NA,1,1,NA,0,"['2']",4.90691162786,NA,"",0,-1,-1,0,0,0,0,NA,NA,NA,NA,"",NA,NA
103,"2018-12-22",NA,"['num_1']",NA,"num_1",NA,NA,0,1,NA,0,"['2']",5.55939177051,NA,"",0,-1,-1,0,0,0,0,NA,NA,NA,NA,"",NA,NA
103,"2018-12-22",NA,"['num_1']",NA,"num_1",NA,NA,0,1,NA,0,"['1']",6.86386754294,NA,"",0,-1,-1,0,0,0,0,NA,NA,NA,NA,"",NA,NA
103,"2018-12-22",NA,"['num_1']",NA,"num_1",NA,NA,0,1,NA,0,"['3']",8.55747054052,NA,"",0,-1,-1,0,0,0,0,NA,NA,NA,NA,"",NA,NA
103,"2018-12-22",NA,"['num_1']",NA,"num_1",NA,NA,0,1,NA,0,"['2']",3.0152603013,NA,"",0,-1,-1,0,0,0,0,NA,NA,NA,NA,"",NA,NA
103,"2018-12-22",NA,"['num_1']",NA,"num_1",NA,NA,0,1,NA,0,"['2']",10.5134516868,NA,"",0,-1,-1,0,0,0,0,0,0,0,0,"",NA,NA
103,"2018-12-22",NA,"['num_1']",NA,"num_1",NA,NA,1,1,NA,0,"['3']",9.87460025656,NA,"",0,-1,-1,0,0,0,0,0,0,0,0,"",NA,NA
104,"2018-06-30",NA,"['num_7']",NA,"num_7",NA,NA,NA,NA,NA,0,"",NA,"","",0,-1,-1,NA,NA,NA,NA,NA,NA,NA,NA,"",NA,""
104,"2018-06-30",NA,"['num_7']",NA,"num_7",NA,NA,NA,NA,NA,0,"",NA,"","['3']",0,-1,-1,NA,NA,NA,NA,NA,NA,NA,NA,"",NA,""
104,"2018-06-30",NA,"['num_7']",NA,"num_7",NA,NA,NA,NA,NA,0,"",NA,"","['2']",0,-1,-1,NA,NA,NA,NA,NA,NA,NA,NA,"",NA,""
104,"2018-06-30",NA,"['num_7']",NA,"num_7",NA,NA,NA,NA,NA,0,"",NA,"","['2']",0,-1,-1,NA,NA,NA,NA,NA,NA,NA,NA,"",NA,""
104,"2018-06-30",NA,"['num_7']",NA,"num_7",NA,NA,NA,NA,NA,0,"",NA,"","['1']",0,-1,-1,NA,NA,NA,NA,NA,NA,NA,NA,"",NA,""
104,"2018-06-30",NA,"['num_7']",NA,"num_7",NA,NA,NA,NA,NA,0,"",NA,"piano","",0,-1,-1,NA,NA,NA,NA,NA,NA,NA,NA,"return",10.3031551576,"piano"
104,"2018-06-30",NA,"['num_7']",NA,"num_7",NA,NA,1,1,NA,0,"['3']",5.9190355204,"","",0,-1,-1,0,0,0,0,NA,NA,NA,NA,"",NA,""
104,"2018-06-30",NA,"['num_7']",NA,"num_7",NA,NA,1,1,NA,0,"['2']",4.43551038543,"","",0,-1,-1,0,0,0,0,NA,NA,NA,NA,"",NA,""
104,"2018-06-30",NA,"['num_7']",NA,"num_7",NA,NA,1,1,NA,0,"['4']",3.22994411073,"","",0,-1,-1,0,0,0,0,NA,NA,NA,NA,"",NA,""
104,"2018-06-30",NA,"['num_7']",NA,"num_7",NA,NA,0,1,NA,0,"['3']",5.07371566212,"","",0,-1,-1,0,0,0,0,NA,NA,NA,NA,"",NA,""
104,"2018-06-30",NA,"['num_7']",NA,"num_7",NA,NA,0,1,NA,0,"['1']",6.07858745486,"","",0,-1,-1,0,0,0,0,NA,NA,NA,NA,"",NA,""
104,"2018-06-30",NA,"['num_7']",NA,"num_7",NA,NA,1,1,NA,0,"['3']",10.5997248822,"","",0,-1,-1,0,0,0,0,NA,NA,NA,NA,"",NA,""
104,"2018-06-30",NA,"['num_7']",NA,"num_7",NA,NA,0,1,NA,0,"['1']",3.34747924202,"","",0,-1,-1,0,0,0,0,NA,NA,NA,NA,"",NA,""
104,"2018-06-30",NA,"['num_7']",NA,"num_7",NA,NA,0,1,NA,0,"['4']",5.67697818379,"","",0,-1,-1,0,0,0,0,NA,NA,NA,NA,"",NA,""
104,"2018-06-30",NA,"['num_7']",NA,"num_7",NA,NA,0,1,NA,0,"['2']",3.80012931267,"","",0,-1,-1,0,0,0,0,NA,NA,NA,NA,"",NA,""
104,"2018-06-30",NA,"['num_7']",NA,"num_7",NA,NA,0,1,NA,0,"['3']",28.7804489107,"","",0,-1,-1,0,0,0,0,0,0,0,0,"",NA,""
104,"2018-06-30",NA,"['num_7']",NA,"num_7",NA,NA,0,1,NA,0,"['2']",8.58619873389,"","",0,-1,-1,0,0,0,0,0,0,0,0,"",NA,""
106,"2019-02-17",NA,"['num_4']",NA,"num_4",NA,NA,NA,NA,NA,0,"",NA,"","",0,-1,-1,NA,NA,NA,NA,NA,NA,NA,NA,"",NA,""
106,"2019-02-17",NA,"['num_4']",NA,"num_4",NA,NA,NA,NA,NA,0,"",NA,"","['1']",0,-1,-1,NA,NA,NA,NA,NA,NA,NA,NA,"",NA,""
106,"2019-02-17",NA,"['num_4']",NA,"num_4",NA,NA,NA,NA,NA,0,"",NA,"","['2']",0,-1,-1,NA,NA,NA,NA,NA,NA,NA,NA,"",NA,""
106,"2019-02-17",NA,"['num_4']",NA,"num_4",NA,NA,NA,NA,NA,0,"",NA,"","['1']",0,-1,-1,NA,NA,NA,NA,NA,NA,NA,NA,"",NA,""
106,"2019-02-17",NA,"['num_4']",NA,"num_4",NA,NA,NA,NA,NA,0,"",NA,"","['1']",0,-1,-1,NA,NA,NA,NA,NA,NA,NA,NA,"",NA,""
106,"2019-02-17",NA,"['num_4']",NA,"num_4",NA,NA,NA,NA,NA,0,"",NA,"ukelele","",0,-1,-1,NA,NA,NA,NA,NA,NA,NA,NA,"return",5.28225535806,"ukelele"
106,"2019-02-17",NA,"['num_4']",NA,"num_4",NA,NA,0,1,NA,0,"['1']",10.5709968648,"","",0,-1,-1,0,0,0,0,NA,NA,NA,NA,"",NA,""
106,"2019-02-17",NA,"['num_4']",NA,"num_4",NA,NA,0,1,NA,0,"['4']",4.82272342744,"","",0,-1,-1,0,0,0,0,NA,NA,NA,NA,"",NA,""
106,"2019-02-17",NA,"['num_4']",NA,"num_4",NA,NA,0,1,NA,0,"['2']",1.05483892933,"","",0,-1,-1,0,0,0,0,NA,NA,NA,NA,"",NA,""
106,"2019-02-17",NA,"['num_4']",NA,"num_4",NA,NA,0,1,NA,0,"['3']",0.585732852807,"","",0,-1,-1,0,0,0,0,NA,NA,NA,NA,"",NA,""
106,"2019-02-17",NA,"['num_4']",NA,"num_4",NA,NA,0,1,NA,0,"['4']",1.15508869325,"","",0,-1,-1,0,0,0,0,NA,NA,NA,NA,"",NA,""
106,"2019-02-17",NA,"['num_4']",NA,"num_4",NA,NA,0,1,NA,0,"['2']",1.62436584663,"","",0,-1,-1,0,0,0,0,NA,NA,NA,NA,"",NA,""
106,"2019-02-17",NA,"['num_4']",NA,"num_4",NA,NA,0,1,NA,0,"['3']",0.517810446909,"","",0,-1,-1,0,0,0,0,NA,NA,NA,NA,"",NA,""
106,"2019-02-17",NA,"['num_4']",NA,"num_4",NA,NA,0,1,NA,0,"['4']",0.535230330075,"","",0,-1,-1,0,0,0,0,NA,NA,NA,NA,"",NA,""
106,"2019-02-17",NA,"['num_4']",NA,"num_4",NA,NA,1,1,NA,0,"['1']",1.23957436753,"","",0,-1,-1,0,0,0,0,NA,NA,NA,NA,"",NA,""
106,"2019-02-17",NA,"['num_4']",NA,"num_4",NA,NA,0,1,NA,0,"['3']",12.0140927064,"","",0,-1,-1,0,0,0,0,0,0,0,0,"",NA,""
106,"2019-02-17",NA,"['num_4']",NA,"num_4",NA,NA,1,1,NA,0,"['3']",5.62363066769,"","",0,-1,-1,0,0,0,0,0,0,0,0,"",NA,""
107,"2019-02-17",NA,"['num_7']",NA,"num_7",NA,NA,NA,NA,NA,0,"",NA,"","",0,-1,-1,NA,NA,NA,NA,NA,NA,NA,NA,"",NA,""
107,"2019-02-17",NA,"['num_7']",NA,"num_7",NA,NA,NA,NA,NA,0,"",NA,"","['1']",0,-1,-1,NA,NA,NA,NA,NA,NA,NA,NA,"",NA,""
107,"2019-02-17",NA,"['num_7']",NA,"num_7",NA,NA,NA,NA,NA,0,"",NA,"","['1']",0,-1,-1,NA,NA,NA,NA,NA,NA,NA,NA,"",NA,""
107,"2019-02-17",NA,"['num_7']",NA,"num_7",NA,NA,NA,NA,NA,0,"",NA,"","['2']",0,-1,-1,NA,NA,NA,NA,NA,NA,NA,NA,"",NA,""
107,"2019-02-17",NA,"['num_7']",NA,"num_7",NA,NA,NA,NA,NA,0,"",NA,"","['2']",0,-1,-1,NA,NA,NA,NA,NA,NA,NA,NA,"",NA,""
107,"2019-02-17",NA,"['num_7']",NA,"num_7",NA,NA,NA,NA,NA,0,"",NA," none ","",0,-1,-1,NA,NA,NA,NA,NA,NA,NA,NA,"return",7.38046204683," none "
107,"2019-02-17",NA,"['num_7']",NA,"num_7",NA,NA,0,1,NA,0,"['4']",7.16125566256,"","",0,-1,-1,0,0,0,0,NA,NA,NA,NA,"",NA,""
107,"2019-02-17",NA,"['num_7']",NA,"num_7",NA,NA,0,1,NA,0,"['4']",9.22645848081,"","",0,-1,-1,0,0,0,0,NA,NA,NA,NA,"",NA,""
107,"2019-02-17",NA,"['num_7']",NA,"num_7",NA,NA,0,1,NA,0,"['1']",10.6841828232,"","",0,-1,-1,0,0,0,0,NA,NA,NA,NA,"",NA,""
107,"2019-02-17",NA,"['num_7']",NA,"num_7",NA,NA,0,1,NA,0,"['3']",8.74082359718,"","",0,-1,-1,0,0,0,0,NA,NA,NA,NA,"",NA,""
107,"2019-02-17",NA,"['num_7']",NA,"num_7",NA,NA,0,1,NA,0,"['3']",7.70316537179,"","",0,-1,-1,0,0,0,0,NA,NA,NA,NA,"",NA,""
107,"2019-02-17",NA,"['num_7']",NA,"num_7",NA,NA,0,1,NA,0,"['2']",6.4641034141,"","",0,-1,-1,0,0,0,0,NA,NA,NA,NA,"",NA,""
107,"2019-02-17",NA,"['num_7']",NA,"num_7",NA,NA,1,1,NA,0,"['4']",6.42886487884,"","",0,-1,-1,0,0,0,0,NA,NA,NA,NA,"",NA,""
107,"2019-02-17",NA,"['num_7']",NA,"num_7",NA,NA,0,1,NA,0,"['4']",13.2961306289,"","",0,-1,-1,0,0,0,0,NA,NA,NA,NA,"",NA,""
107,"2019-02-17",NA,"['num_7']",NA,"num_7",NA,NA,0,1,NA,0,"['3']",10.967919616,"","",0,-1,-1,0,0,0,0,NA,NA,NA,NA,"",NA,""
107,"2019-02-17",NA,"['num_7']",NA,"num_7",NA,NA,1,1,NA,0,"['1']",13.6756855994,"","",0,-1,-1,0,0,0,0,0,0,0,0,"",NA,""
107,"2019-02-17",NA,"['num_7']",NA,"num_7",NA,NA,1,1,NA,0,"['3']",7.61477652122,"","",0,-1,-1,0,0,0,0,0,0,0,0,"",NA,""
108,"2019-02-17",NA,"['num_1']",NA,"num_1",NA,NA,NA,NA,NA,0,"",NA,"","",0,-1,-1,NA,NA,NA,NA,NA,NA,NA,NA,"",NA,""
108,"2019-02-17",NA,"['num_1']",NA,"num_1",NA,NA,NA,NA,NA,0,"",NA,"","['1']",0,-1,-1,NA,NA,NA,NA,NA,NA,NA,NA,"",NA,""
108,"2019-02-17",NA,"['num_1']",NA,"num_1",NA,NA,NA,NA,NA,0,"",NA,"","['1']",0,-1,-1,NA,NA,NA,NA,NA,NA,NA,NA,"",NA,""
108,"2019-02-17",NA,"['num_1']",NA,"num_1",NA,NA,NA,NA,NA,0,"",NA,"","['2']",0,-1,-1,NA,NA,NA,NA,NA,NA,NA,NA,"",NA,""
108,"2019-02-17",NA,"['num_1']",NA,"num_1",NA,NA,NA,NA,NA,0,"",NA,"","['1']",0,-1,-1,NA,NA,NA,NA,NA,NA,NA,NA,"",NA,""
108,"2019-02-17",NA,"['num_1']",NA,"num_1",NA,NA,NA,NA,NA,0,"",NA,"recorder","",0,-1,-1,NA,NA,NA,NA,NA,NA,NA,NA,"return",3.49307282618,"recorder"
108,"2019-02-17",NA,"['num_1']",NA,"num_1",NA,NA,1,1,NA,0,"['3']",4.71399900387,"","",0,-1,-1,0,0,0,0,NA,NA,NA,NA,"",NA,""
108,"2019-02-17",NA,"['num_1']",NA,"num_1",NA,NA,1,1,NA,0,"['2']",6.14477321459,"","",0,-1,-1,0,0,0,0,NA,NA,NA,NA,"",NA,""
108,"2019-02-17",NA,"['num_1']",NA,"num_1",NA,NA,1,1,NA,0,"['4']",1.84184136055,"","",0,-1,-1,0,0,0,0,NA,NA,NA,NA,"",NA,""
108,"2019-02-17",NA,"['num_1']",NA,"num_1",NA,NA,0,1,NA,0,"['1']",5.86034431972,"","",0,-1,-1,0,0,0,0,NA,NA,NA,NA,"",NA,""
108,"2019-02-17",NA,"['num_1']",NA,"num_1",NA,NA,0,1,NA,0,"['1']",6.5971400229,"","",0,-1,-1,0,0,0,0,NA,NA,NA,NA,"",NA,""
108,"2019-02-17",NA,"['num_1']",NA,"num_1",NA,NA,1,1,NA,0,"['3']",4.18505379686,"","",0,-1,-1,0,0,0,0,NA,NA,NA,NA,"",NA,""
108,"2019-02-17",NA,"['num_1']",NA,"num_1",NA,NA,0,1,NA,0,"['1']",1.49025723874,"","",0,-1,-1,0,0,0,0,NA,NA,NA,NA,"",NA,""
108,"2019-02-17",NA,"['num_1']",NA,"num_1",NA,NA,0,1,NA,0,"['4']",4.7220917152,"","",0,-1,-1,0,0,0,0,NA,NA,NA,NA,"",NA,""
108,"2019-02-17",NA,"['num_1']",NA,"num_1",NA,NA,0,1,NA,0,"['4']",4.43811287126,"","",0,-1,-1,0,0,0,0,NA,NA,NA,NA,"",NA,""
108,"2019-02-17",NA,"['num_1']",NA,"num_1",NA,NA,1,1,NA,0,"['1']",12.3225699917,"","",0,-1,-1,0,0,0,0,0,0,0,0,"",NA,""
108,"2019-02-17",NA,"['num_1']",NA,"num_1",NA,NA,1,1,NA,0,"['3']",7.94945809268,"","",0,-1,-1,0,0,0,0,0,0,0,0,"",NA,""
111,"2019-08-20",NA,"['num_4']",NA,"num_4",NA,NA,NA,NA,NA,0,"",NA,"","",0,-1,-1,NA,NA,NA,NA,NA,NA,NA,NA,"",NA,""
111,"2019-08-20",NA,"['num_4']",NA,"num_4",NA,NA,NA,NA,NA,0,"",NA,"","['1']",0,-1,-1,NA,NA,NA,NA,NA,NA,NA,NA,"",NA,""
111,"2019-08-20",NA,"['num_4']",NA,"num_4",NA,NA,NA,NA,NA,0,"",NA,"","['1']",0,-1,-1,NA,NA,NA,NA,NA,NA,NA,NA,"",NA,""
111,"2019-08-20",NA,"['num_4']",NA,"num_4",NA,NA,NA,NA,NA,0,"",NA,"","['2']",0,-1,-1,NA,NA,NA,NA,NA,NA,NA,NA,"",NA,""
111,"2019-08-20",NA,"['num_4']",NA,"num_4",NA,NA,NA,NA,NA,0,"",NA,"","['1']",0,-1,-1,NA,NA,NA,NA,NA,NA,NA,NA,"",NA,""
111,"2019-08-20",NA,"['num_4']",NA,"num_4",NA,NA,NA,NA,NA,0,"",NA,"drums, trumpet, back back deleteleft","",0,-1,-1,NA,NA,NA,NA,NA,NA,NA,NA,"return",25.61137,"drums, trumpet, back back deleteleft"
111,"2019-08-20",NA,"['num_4']",NA,"num_4",NA,NA,1,1,NA,0,"['3']",11.68878,"","",0,-1,-1,0,0,0,0,NA,NA,NA,NA,"",NA,""
111,"2019-08-20",NA,"['num_4']",NA,"num_4",NA,NA,1,1,NA,0,"['2']",4.532129,"","",0,-1,-1,0,0,0,0,NA,NA,NA,NA,"",NA,""
111,"2019-08-20",NA,"['num_4']",NA,"num_4",NA,NA,1,1,NA,0,"['4']",1.89888,"","",0,-1,-1,0,0,0,0,NA,NA,NA,NA,"",NA,""
111,"2019-08-20",NA,"['num_4']",NA,"num_4",NA,NA,1,1,NA,0,"['4']",2.448683,"","",0,-1,-1,0,0,0,0,NA,NA,NA,NA,"",NA,""
111,"2019-08-20",NA,"['num_4']",NA,"num_4",NA,NA,0,1,NA,0,"['4']",3.115229,"","",0,-1,-1,0,0,0,0,NA,NA,NA,NA,"",NA,""
111,"2019-08-20",NA,"['num_4']",NA,"num_4",NA,NA,0,1,NA,0,"['1']",4.898823,"","",0,-1,-1,0,0,0,0,NA,NA,NA,NA,"",NA,""
111,"2019-08-20",NA,"['num_4']",NA,"num_4",NA,NA,0,1,NA,0,"['1']",11.59771,"","",0,-1,-1,0,0,0,0,NA,NA,NA,NA,"",NA,""
111,"2019-08-20",NA,"['num_4']",NA,"num_4",NA,NA,0,1,NA,0,"['1']",2.832788,"","",0,-1,-1,0,0,0,0,NA,NA,NA,NA,"",NA,""
111,"2019-08-20",NA,"['num_4']",NA,"num_4",NA,NA,0,1,NA,0,"['3']",6.431942,"","",0,-1,-1,0,0,0,0,NA,NA,NA,NA,"",NA,""
111,"2019-08-20",NA,"['num_4']",NA,"num_4",NA,NA,1,1,NA,0,"['1']",34.53912,"","",0,-1,-1,0,0,0,0,0,0,0,0,"",NA,""
111,"2019-08-20",NA,"['num_4']",NA,"num_4",NA,NA,0,1,NA,0,"['2']",7.111907,"","",0,-1,-1,0,0,0,0,0,0,0,0,"",NA,""
113,"2018-07-26",NA,"['num_4']",NA,"num_4",NA,NA,NA,NA,NA,0,"",NA,"","",0,-1,-1,NA,NA,NA,NA,NA,NA,NA,NA,"",NA,""
113,"2018-07-26",NA,"['num_4']",NA,"num_4",NA,NA,NA,NA,NA,0,"",NA,"","['1']",0,-1,-1,NA,NA,NA,NA,NA,NA,NA,NA,"",NA,""
113,"2018-07-26",NA,"['num_4']",NA,"num_4",NA,NA,NA,NA,NA,0,"",NA,"","['2']",0,-1,-1,NA,NA,NA,NA,NA,NA,NA,NA,"",NA,""
113,"2018-07-26",NA,"['num_4']",NA,"num_4",NA,NA,NA,NA,NA,0,"",NA,"","['2']",0,-1,-1,NA,NA,NA,NA,NA,NA,NA,NA,"",NA,""
113,"2018-07-26",NA,"['num_4']",NA,"num_4",NA,NA,NA,NA,NA,0,"",NA,"","['2']",0,-1,-1,NA,NA,NA,NA,NA,NA,NA,NA,"",NA,""
113,"2018-07-26",NA,"['num_4']",NA,"num_4",NA,NA,NA,NA,NA,0,"",NA,"drums","",0,-1,-1,NA,NA,NA,NA,NA,NA,NA,NA,"return",5.879826,"drums"
113,"2018-07-26",NA,"['num_4']",NA,"num_4",NA,NA,1,1,NA,0,"['3']",3.064405,"","",0,-1,-1,0,0,0,0,NA,NA,NA,NA,"",NA,""
113,"2018-07-26",NA,"['num_4']",NA,"num_4",NA,NA,0,1,NA,0,"['4']",3.88495,"","",0,-1,-1,0,0,0,0,NA,NA,NA,NA,"",NA,""
113,"2018-07-26",NA,"['num_4']",NA,"num_4",NA,NA,0,1,NA,0,"['3']",5.074565,"","",0,-1,-1,0,0,0,0,NA,NA,NA,NA,"",NA,""
113,"2018-07-26",NA,"['num_4']",NA,"num_4",NA,NA,0,1,NA,0,"['1']",3.246778,"","",0,-1,-1,0,0,0,0,NA,NA,NA,NA,"",NA,""
113,"2018-07-26",NA,"['num_4']",NA,"num_4",NA,NA,0,1,NA,0,"['4']",1.420766,"","",0,-1,-1,0,0,0,0,NA,NA,NA,NA,"",NA,""
113,"2018-07-26",NA,"['num_4']",NA,"num_4",NA,NA,1,1,NA,0,"['3']",1.12091,"","",0,-1,-1,0,0,0,0,NA,NA,NA,NA,"",NA,""
113,"2018-07-26",NA,"['num_4']",NA,"num_4",NA,NA,0,1,NA,0,"['3']",1.305744,"","",0,-1,-1,0,0,0,0,NA,NA,NA,NA,"",NA,""
113,"2018-07-26",NA,"['num_4']",NA,"num_4",NA,NA,0,1,NA,0,"['4']",0.9366629,"","",0,-1,-1,0,0,0,0,NA,NA,NA,NA,"",NA,""
113,"2018-07-26",NA,"['num_4']",NA,"num_4",NA,NA,1,1,NA,0,"['1']",0.9201809,"","",0,-1,-1,0,0,0,0,NA,NA,NA,NA,"",NA,""
113,"2018-07-26",NA,"['num_4']",NA,"num_4",NA,NA,0,1,NA,0,"['2']",7.270009,"","",0,-1,-1,0,0,0,0,0,0,0,0,"",NA,""
113,"2018-07-26",NA,"['num_4']",NA,"num_4",NA,NA,1,1,NA,0,"['3']",2.458766,"","",0,-1,-1,0,0,0,0,0,0,0,0,"",NA,""
114,"2018-07-27",NA,"['num_4']",NA,"num_4",NA,NA,NA,NA,NA,0,"",NA,NA,"",0,-1,-1,NA,NA,NA,NA,NA,NA,NA,NA,"",NA,NA
114,"2018-07-27",NA,"['num_4']",NA,"num_4",NA,NA,NA,NA,NA,0,"",NA,NA,"['2']",0,-1,-1,NA,NA,NA,NA,NA,NA,NA,NA,"",NA,NA
114,"2018-07-27",NA,"['num_4']",NA,"num_4",NA,NA,NA,NA,NA,0,"",NA,NA,"['2']",0,-1,-1,NA,NA,NA,NA,NA,NA,NA,NA,"",NA,NA
114,"2018-07-27",NA,"['num_4']",NA,"num_4",NA,NA,NA,NA,NA,0,"",NA,NA,"['2']",0,-1,-1,NA,NA,NA,NA,NA,NA,NA,NA,"",NA,NA
114,"2018-07-27",NA,"['num_4']",NA,"num_4",NA,NA,NA,NA,NA,0,"",NA,NA,"['2']",0,-1,-1,NA,NA,NA,NA,NA,NA,NA,NA,"",NA,NA
114,"2018-07-27",NA,"['num_4']",NA,"num_4",NA,NA,NA,NA,NA,0,"",NA,NA,"",0,-1,-1,NA,NA,NA,NA,NA,NA,NA,NA,"return",1.527891,NA
114,"2018-07-27",NA,"['num_4']",NA,"num_4",NA,NA,0,1,NA,0,"['2']",10.07217,NA,"",0,-1,-1,0,0,0,0,NA,NA,NA,NA,"",NA,NA
114,"2018-07-27",NA,"['num_4']",NA,"num_4",NA,NA,0,1,NA,0,"['4']",3.030618,NA,"",0,-1,-1,0,0,0,0,NA,NA,NA,NA,"",NA,NA
114,"2018-07-27",NA,"['num_4']",NA,"num_4",NA,NA,1,1,NA,0,"['4']",2.980113,NA,"",0,-1,-1,0,0,0,0,NA,NA,NA,NA,"",NA,NA
114,"2018-07-27",NA,"['num_4']",NA,"num_4",NA,NA,0,1,NA,0,"['1']",5.44264,NA,"",0,-1,-1,0,0,0,0,NA,NA,NA,NA,"",NA,NA
114,"2018-07-27",NA,"['num_4']",NA,"num_4",NA,NA,0,1,NA,0,"['3']",3.030031,NA,"",0,-1,-1,0,0,0,0,NA,NA,NA,NA,"",NA,NA
114,"2018-07-27",NA,"['num_4']",NA,"num_4",NA,NA,1,1,NA,0,"['3']",2.795247,NA,"",0,-1,-1,0,0,0,0,NA,NA,NA,NA,"",NA,NA
114,"2018-07-27",NA,"['num_4']",NA,"num_4",NA,NA,0,1,NA,0,"['2']",5.072915,NA,"",0,-1,-1,0,0,0,0,NA,NA,NA,NA,"",NA,NA
114,"2018-07-27",NA,"['num_4']",NA,"num_4",NA,NA,0,1,NA,0,"['3']",4.487023,NA,"",0,-1,-1,0,0,0,0,NA,NA,NA,NA,"",NA,NA
114,"2018-07-27",NA,"['num_4']",NA,"num_4",NA,NA,1,1,NA,0,"['1']",4.504763,NA,"",0,-1,-1,0,0,0,0,NA,NA,NA,NA,"",NA,NA
114,"2018-07-27",NA,"['num_4']",NA,"num_4",NA,NA,0,1,NA,0,"['2']",12.30892,NA,"",0,-1,-1,0,0,0,0,0,0,0,0,"",NA,NA
114,"2018-07-27",NA,"['num_4']",NA,"num_4",NA,NA,0,1,NA,0,"['1']",3.781675,NA,"",0,-1,-1,0,0,0,0,0,0,0,0,"",NA,NA
115,"2018-07-27",NA,"['num_0']",NA,"num_0",NA,NA,NA,NA,NA,0,"",NA,"","",0,-1,-1,NA,NA,NA,NA,NA,NA,NA,NA,"",NA,""
115,"2018-07-27",NA,"['num_0']",NA,"num_0",NA,NA,NA,NA,NA,0,"",NA,"","['1']",0,-1,-1,NA,NA,NA,NA,NA,NA,NA,NA,"",NA,""
115,"2018-07-27",NA,"['num_0']",NA,"num_0",NA,NA,NA,NA,NA,0,"",NA,"","['1']",0,-1,-1,NA,NA,NA,NA,NA,NA,NA,NA,"",NA,""
115,"2018-07-27",NA,"['num_0']",NA,"num_0",NA,NA,NA,NA,NA,0,"",NA,"","['1']",0,-1,-1,NA,NA,NA,NA,NA,NA,NA,NA,"",NA,""
115,"2018-07-27",NA,"['num_0']",NA,"num_0",NA,NA,NA,NA,NA,0,"",NA,"","['1']",0,-1,-1,NA,NA,NA,NA,NA,NA,NA,NA,"",NA,""
115,"2018-07-27",NA,"['num_0']",NA,"num_0",NA,NA,NA,NA,NA,0,"",NA,"violin ","",0,-1,-1,NA,NA,NA,NA,NA,NA,NA,NA,"return",8.675201,"violin "
115,"2018-07-27",NA,"['num_0']",NA,"num_0",NA,NA,0,1,NA,0,"['4']",2.862709,"","",0,-1,-1,0,0,0,0,NA,NA,NA,NA,"",NA,""
115,"2018-07-27",NA,"['num_0']",NA,"num_0",NA,NA,0,1,NA,0,"['4']",3.933487,"","",0,-1,-1,0,0,0,0,NA,NA,NA,NA,"",NA,""
115,"2018-07-27",NA,"['num_0']",NA,"num_0",NA,NA,1,1,NA,0,"['4']",5.258013,"","",0,-1,-1,0,0,0,0,NA,NA,NA,NA,"",NA,""
115,"2018-07-27",NA,"['num_0']",NA,"num_0",NA,NA,0,1,NA,0,"['3']",2.912874,"","",0,-1,-1,0,0,0,0,NA,NA,NA,NA,"",NA,""
115,"2018-07-27",NA,"['num_0']",NA,"num_0",NA,NA,1,1,NA,0,"['2']",3.934353,"","",0,-1,-1,0,0,0,0,NA,NA,NA,NA,"",NA,""
115,"2018-07-27",NA,"['num_0']",NA,"num_0",NA,NA,0,1,NA,0,"['1']",4.487453,"","",0,-1,-1,0,0,0,0,NA,NA,NA,NA,"",NA,""
115,"2018-07-27",NA,"['num_0']",NA,"num_0",NA,NA,0,1,NA,0,"['1']",3.315249,"","",0,-1,-1,0,0,0,0,NA,NA,NA,NA,"",NA,""
115,"2018-07-27",NA,"['num_0']",NA,"num_0",NA,NA,0,1,NA,0,"['4']",3.73455,"","",0,-1,-1,0,0,0,0,NA,NA,NA,NA,"",NA,""
115,"2018-07-27",NA,"['num_0']",NA,"num_0",NA,NA,0,1,NA,0,"['2']",2.495055,"","",0,-1,-1,0,0,0,0,NA,NA,NA,NA,"",NA,""
115,"2018-07-27",NA,"['num_0']",NA,"num_0",NA,NA,1,1,NA,0,"['1']",14.93513,"","",0,-1,-1,0,0,0,0,0,0,0,0,"",NA,""
115,"2018-07-27",NA,"['num_0']",NA,"num_0",NA,NA,0,1,NA,0,"['2']",9.038074,"","",0,-1,-1,0,0,0,0,0,0,0,0,"",NA,""
116,"2018-06-25",NA,"['num_0']",NA,"num_0",NA,NA,NA,NA,NA,0,"",NA,NA,"",0,-1,-1,NA,NA,NA,NA,NA,NA,NA,NA,"",NA,NA
116,"2018-06-25",NA,"['num_0']",NA,"num_0",NA,NA,NA,NA,NA,0,"",NA,NA,"['1']",0,-1,-1,NA,NA,NA,NA,NA,NA,NA,NA,"",NA,NA
116,"2018-06-25",NA,"['num_0']",NA,"num_0",NA,NA,NA,NA,NA,0,"",NA,NA,"['1']",0,-1,-1,NA,NA,NA,NA,NA,NA,NA,NA,"",NA,NA
116,"2018-06-25",NA,"['num_0']",NA,"num_0",NA,NA,NA,NA,NA,0,"",NA,NA,"['2']",0,-1,-1,NA,NA,NA,NA,NA,NA,NA,NA,"",NA,NA
116,"2018-06-25",NA,"['num_0']",NA,"num_0",NA,NA,NA,NA,NA,0,"",NA,NA,"['2']",0,-1,-1,NA,NA,NA,NA,NA,NA,NA,NA,"",NA,NA
116,"2018-06-25",NA,"['num_0']",NA,"num_0",NA,NA,NA,NA,NA,0,"",NA,NA,"",0,-1,-1,NA,NA,NA,NA,NA,NA,NA,NA,"return",1.206059,NA
116,"2018-06-25",NA,"['num_0']",NA,"num_0",NA,NA,0,1,NA,0,"['4']",10.17121,NA,"",0,-1,-1,0,0,0,0,NA,NA,NA,NA,"",NA,NA
116,"2018-06-25",NA,"['num_0']",NA,"num_0",NA,NA,0,1,NA,0,"['4']",5.575981,NA,"",0,-1,-1,0,0,0,0,NA,NA,NA,NA,"",NA,NA
116,"2018-06-25",NA,"['num_0']",NA,"num_0",NA,NA,0,1,NA,0,"['2']",5.239414,NA,"",0,-1,-1,0,0,0,0,NA,NA,NA,NA,"",NA,NA
116,"2018-06-25",NA,"['num_0']",NA,"num_0",NA,NA,1,1,NA,0,"['4']",3.833543,NA,"",0,-1,-1,0,0,0,0,NA,NA,NA,NA,"",NA,NA
116,"2018-06-25",NA,"['num_0']",NA,"num_0",NA,NA,0,1,NA,0,"['4']",5.961273,NA,"",0,-1,-1,0,0,0,0,NA,NA,NA,NA,"",NA,NA
116,"2018-06-25",NA,"['num_0']",NA,"num_0",NA,NA,1,1,NA,0,"['3']",6.413597,NA,"",0,-1,-1,0,0,0,0,NA,NA,NA,NA,"",NA,NA
116,"2018-06-25",NA,"['num_0']",NA,"num_0",NA,NA,1,1,NA,0,"['4']",5.141299,NA,"",0,-1,-1,0,0,0,0,NA,NA,NA,NA,"",NA,NA
116,"2018-06-25",NA,"['num_0']",NA,"num_0",NA,NA,0,1,NA,0,"['1']",3.950352,NA,"",0,-1,-1,0,0,0,0,NA,NA,NA,NA,"",NA,NA
116,"2018-06-25",NA,"['num_0']",NA,"num_0",NA,NA,0,1,NA,0,"['4']",4.605301,NA,"",0,-1,-1,0,0,0,0,NA,NA,NA,NA,"",NA,NA
116,"2018-06-25",NA,"['num_0']",NA,"num_0",NA,NA,1,1,NA,0,"['1']",9.922505,NA,"",0,-1,-1,0,0,0,0,0,0,0,0,"",NA,NA
116,"2018-06-25",NA,"['num_0']",NA,"num_0",NA,NA,0,1,NA,0,"['1']",5.136686,NA,"",0,-1,-1,0,0,0,0,0,0,0,0,"",NA,NA
117,"2018-06-25",NA,"['num_1']",NA,"num_1",NA,NA,NA,NA,NA,0,"",NA,"","",0,-1,-1,NA,NA,NA,NA,NA,NA,NA,NA,"",NA,""
117,"2018-06-25",NA,"['num_1']",NA,"num_1",NA,NA,NA,NA,NA,0,"",NA,"","['1']",0,-1,-1,NA,NA,NA,NA,NA,NA,NA,NA,"",NA,""
117,"2018-06-25",NA,"['num_1']",NA,"num_1",NA,NA,NA,NA,NA,0,"",NA,"","['1']",0,-1,-1,NA,NA,NA,NA,NA,NA,NA,NA,"",NA,""
117,"2018-06-25",NA,"['num_1']",NA,"num_1",NA,NA,NA,NA,NA,0,"",NA,"","['2']",0,-1,-1,NA,NA,NA,NA,NA,NA,NA,NA,"",NA,""
117,"2018-06-25",NA,"['num_1']",NA,"num_1",NA,NA,NA,NA,NA,0,"",NA,"","['2']",0,-1,-1,NA,NA,NA,NA,NA,NA,NA,NA,"",NA,""
117,"2018-06-25",NA,"['num_1']",NA,"num_1",NA,NA,NA,NA,NA,0,"",NA," gfg backslash","",0,-1,-1,NA,NA,NA,NA,NA,NA,NA,NA,"return",9.482131," gfg backslash"
117,"2018-06-25",NA,"['num_1']",NA,"num_1",NA,NA,0,1,NA,0,"['2']",4.342887,"","",0,-1,-1,0,0,0,0,NA,NA,NA,NA,"",NA,""
117,"2018-06-25",NA,"['num_1']",NA,"num_1",NA,NA,0,1,NA,0,"['4']",4.671555,"","",0,-1,-1,0,0,0,0,NA,NA,NA,NA,"",NA,""
117,"2018-06-25",NA,"['num_1']",NA,"num_1",NA,NA,0,1,NA,0,"['1']",3.43217,"","",0,-1,-1,0,0,0,0,NA,NA,NA,NA,"",NA,""
117,"2018-06-25",NA,"['num_1']",NA,"num_1",NA,NA,0,1,NA,0,"['2']",3.750279,"","",0,-1,-1,0,0,0,0,NA,NA,NA,NA,"",NA,""
117,"2018-06-25",NA,"['num_1']",NA,"num_1",NA,NA,0,1,NA,0,"['3']",4.520973,"","",0,-1,-1,0,0,0,0,NA,NA,NA,NA,"",NA,""
117,"2018-06-25",NA,"['num_1']",NA,"num_1",NA,NA,1,1,NA,0,"['3']",3.935495,"","",0,-1,-1,0,0,0,0,NA,NA,NA,NA,"",NA,""
117,"2018-06-25",NA,"['num_1']",NA,"num_1",NA,NA,0,1,NA,0,"['2']",3.315002,"","",0,-1,-1,0,0,0,0,NA,NA,NA,NA,"",NA,""
117,"2018-06-25",NA,"['num_1']",NA,"num_1",NA,NA,0,1,NA,0,"['3']",1.873808,"","",0,-1,-1,0,0,0,0,NA,NA,NA,NA,"",NA,""
117,"2018-06-25",NA,"['num_1']",NA,"num_1",NA,NA,0,1,NA,0,"['2']",2.74539,"","",0,-1,-1,0,0,0,0,NA,NA,NA,NA,"",NA,""
117,"2018-06-25",NA,"['num_1']",NA,"num_1",NA,NA,0,1,NA,0,"['2']",27.51043,"","",0,-1,-1,0,0,0,0,0,0,0,0,"",NA,""
117,"2018-06-25",NA,"['num_1']",NA,"num_1",NA,NA,1,1,NA,0,"['3']",7.397259,"","",0,-1,-1,0,0,0,0,0,0,0,0,"",NA,""
119,"2019-01-13",NA,"['num_0']",NA,"num_0",NA,NA,NA,NA,NA,0,"",NA,NA,"",0,-1,-1,NA,NA,NA,NA,NA,NA,NA,NA,"",NA,NA
119,"2019-01-13",NA,"['num_0']",NA,"num_0",NA,NA,NA,NA,NA,0,"",NA,NA,"['3']",0,-1,-1,NA,NA,NA,NA,NA,NA,NA,NA,"",NA,NA
119,"2019-01-13",NA,"['num_0']",NA,"num_0",NA,NA,NA,NA,NA,0,"",NA,NA,"['1']",0,-1,-1,NA,NA,NA,NA,NA,NA,NA,NA,"",NA,NA
119,"2019-01-13",NA,"['num_0']",NA,"num_0",NA,NA,NA,NA,NA,0,"",NA,NA,"['1']",0,-1,-1,NA,NA,NA,NA,NA,NA,NA,NA,"",NA,NA
119,"2019-01-13",NA,"['num_0']",NA,"num_0",NA,NA,NA,NA,NA,0,"",NA,NA,"['2']",0,-1,-1,NA,NA,NA,NA,NA,NA,NA,NA,"",NA,NA
119,"2019-01-13",NA,"['num_0']",NA,"num_0",NA,NA,NA,NA,NA,0,"",NA,NA,"",0,-1,-1,NA,NA,NA,NA,NA,NA,NA,NA,"return",1.139706,NA
119,"2019-01-13",NA,"['num_0']",NA,"num_0",NA,NA,1,1,NA,0,"['3']",5.919472,NA,"",0,-1,-1,0,0,0,0,NA,NA,NA,NA,"",NA,NA
119,"2019-01-13",NA,"['num_0']",NA,"num_0",NA,NA,1,1,NA,0,"['2']",7.250862,NA,"",0,-1,-1,0,0,0,0,NA,NA,NA,NA,"",NA,NA
119,"2019-01-13",NA,"['num_0']",NA,"num_0",NA,NA,1,1,NA,0,"['4']",3.616062,NA,"",0,-1,-1,0,0,0,0,NA,NA,NA,NA,"",NA,NA
119,"2019-01-13",NA,"['num_0']",NA,"num_0",NA,NA,0,1,NA,0,"['3']",3.683366,NA,"",0,-1,-1,0,0,0,0,NA,NA,NA,NA,"",NA,NA
119,"2019-01-13",NA,"['num_0']",NA,"num_0",NA,NA,1,1,NA,0,"['2']",5.543796,NA,"",0,-1,-1,0,0,0,0,NA,NA,NA,NA,"",NA,NA
119,"2019-01-13",NA,"['num_0']",NA,"num_0",NA,NA,1,1,NA,0,"['3']",4.520568,NA,"",0,-1,-1,0,0,0,0,NA,NA,NA,NA,"",NA,NA
119,"2019-01-13",NA,"['num_0']",NA,"num_0",NA,NA,0,1,NA,0,"['1']",3.079881,NA,"",0,-1,-1,0,0,0,0,NA,NA,NA,NA,"",NA,NA
119,"2019-01-13",NA,"['num_0']",NA,"num_0",NA,NA,1,1,NA,0,"['2']",5.744,NA,"",0,-1,-1,0,0,0,0,NA,NA,NA,NA,"",NA,NA
119,"2019-01-13",NA,"['num_0']",NA,"num_0",NA,NA,0,1,NA,0,"['3']",5.27498,NA,"",0,-1,-1,0,0,0,0,NA,NA,NA,NA,"",NA,NA
119,"2019-01-13",NA,"['num_0']",NA,"num_0",NA,NA,1,1,NA,0,"['1']",14.61785,NA,"",0,-1,-1,0,0,0,0,0,0,0,0,"",NA,NA
119,"2019-01-13",NA,"['num_0']",NA,"num_0",NA,NA,0,1,NA,0,"['2']",8.40265,NA,"",0,-1,-1,0,0,0,0,0,0,0,0,"",NA,NA
120,"2018-09-02",NA,"['num_7']",NA,"num_7",NA,NA,NA,NA,NA,0,"",NA,"","",0,-1,-1,NA,NA,NA,NA,NA,NA,NA,NA,"",NA,""
120,"2018-09-02",NA,"['num_7']",NA,"num_7",NA,NA,NA,NA,NA,0,"",NA,"","['1']",0,-1,-1,NA,NA,NA,NA,NA,NA,NA,NA,"",NA,""
120,"2018-09-02",NA,"['num_7']",NA,"num_7",NA,NA,NA,NA,NA,0,"",NA,"","['1']",0,-1,-1,NA,NA,NA,NA,NA,NA,NA,NA,"",NA,""
120,"2018-09-02",NA,"['num_7']",NA,"num_7",NA,NA,NA,NA,NA,0,"",NA,"","['1']",0,-1,-1,NA,NA,NA,NA,NA,NA,NA,NA,"",NA,""
120,"2018-09-02",NA,"['num_7']",NA,"num_7",NA,NA,NA,NA,NA,0,"",NA,"","['1']",0,-1,-1,NA,NA,NA,NA,NA,NA,NA,NA,"",NA,""
120,"2018-09-02",NA,"['num_7']",NA,"num_7",NA,NA,NA,NA,NA,0,"",NA,"flute","",0,-1,-1,NA,NA,NA,NA,NA,NA,NA,NA,"return",4.438022,"flute"
120,"2018-09-02",NA,"['num_7']",NA,"num_7",NA,NA,1,1,NA,0,"['3']",6.982629,"","",0,-1,-1,0,0,0,0,NA,NA,NA,NA,"",NA,""
120,"2018-09-02",NA,"['num_7']",NA,"num_7",NA,NA,0,1,NA,0,"['4']",2.510726,"","",0,-1,-1,0,0,0,0,NA,NA,NA,NA,"",NA,""
120,"2018-09-02",NA,"['num_7']",NA,"num_7",NA,NA,1,1,NA,0,"['4']",2.694861,"","",0,-1,-1,0,0,0,0,NA,NA,NA,NA,"",NA,""
120,"2018-09-02",NA,"['num_7']",NA,"num_7",NA,NA,0,1,NA,0,"['2']",2.209329,"","",0,-1,-1,0,0,0,0,NA,NA,NA,NA,"",NA,""
120,"2018-09-02",NA,"['num_7']",NA,"num_7",NA,NA,1,1,NA,0,"['2']",3.365615,"","",0,-1,-1,0,0,0,0,NA,NA,NA,NA,"",NA,""
120,"2018-09-02",NA,"['num_7']",NA,"num_7",NA,NA,1,1,NA,0,"['3']",1.671944,"","",0,-1,-1,0,0,0,0,NA,NA,NA,NA,"",NA,""
120,"2018-09-02",NA,"['num_7']",NA,"num_7",NA,NA,1,1,NA,0,"['4']",1.355206,"","",0,-1,-1,0,0,0,0,NA,NA,NA,NA,"",NA,""
120,"2018-09-02",NA,"['num_7']",NA,"num_7",NA,NA,0,1,NA,0,"['4']",4.152115,"","",0,-1,-1,0,0,0,0,NA,NA,NA,NA,"",NA,""
120,"2018-09-02",NA,"['num_7']",NA,"num_7",NA,NA,0,1,NA,0,"['4']",3.097894,"","",0,-1,-1,0,0,0,0,NA,NA,NA,NA,"",NA,""
120,"2018-09-02",NA,"['num_7']",NA,"num_7",NA,NA,0,1,NA,0,"['2']",42.25819,"","",0,-1,-1,0,0,0,0,0,0,0,0,"",NA,""
120,"2018-09-02",NA,"['num_7']",NA,"num_7",NA,NA,0,1,NA,0,"['1']",7.869826,"","",0,-1,-1,0,0,0,0,0,0,0,0,"",NA,""
121,"2018-06-30",NA,"['num_4']",NA,"num_4",NA,NA,NA,NA,NA,0,"",NA,NA,"",0,-1,-1,NA,NA,NA,NA,NA,NA,NA,NA,"",NA,NA
121,"2018-06-30",NA,"['num_4']",NA,"num_4",NA,NA,NA,NA,NA,0,"",NA,NA,"['1']",0,-1,-1,NA,NA,NA,NA,NA,NA,NA,NA,"",NA,NA
121,"2018-06-30",NA,"['num_4']",NA,"num_4",NA,NA,NA,NA,NA,0,"",NA,NA,"['1']",0,-1,-1,NA,NA,NA,NA,NA,NA,NA,NA,"",NA,NA
121,"2018-06-30",NA,"['num_4']",NA,"num_4",NA,NA,NA,NA,NA,0,"",NA,NA,"['1']",0,-1,-1,NA,NA,NA,NA,NA,NA,NA,NA,"",NA,NA
121,"2018-06-30",NA,"['num_4']",NA,"num_4",NA,NA,NA,NA,NA,0,"",NA,NA,"['2']",0,-1,-1,NA,NA,NA,NA,NA,NA,NA,NA,"",NA,NA
121,"2018-06-30",NA,"['num_4']",NA,"num_4",NA,NA,NA,NA,NA,0,"",NA,NA,"",0,-1,-1,NA,NA,NA,NA,NA,NA,NA,NA,"return",1.971775,NA
121,"2018-06-30",NA,"['num_4']",NA,"num_4",NA,NA,1,1,NA,0,"['3']",18.05867,NA,"",0,-1,-1,0,0,0,0,NA,NA,NA,NA,"",NA,NA
121,"2018-06-30",NA,"['num_4']",NA,"num_4",NA,NA,1,1,NA,0,"['2']",5.375933,NA,"",0,-1,-1,0,0,0,0,NA,NA,NA,NA,"",NA,NA
121,"2018-06-30",NA,"['num_4']",NA,"num_4",NA,NA,1,1,NA,0,"['4']",6.162322,NA,"",0,-1,-1,0,0,0,0,NA,NA,NA,NA,"",NA,NA
121,"2018-06-30",NA,"['num_4']",NA,"num_4",NA,NA,0,1,NA,0,"['1']",1.840369,NA,"",0,-1,-1,0,0,0,0,NA,NA,NA,NA,"",NA,NA
121,"2018-06-30",NA,"['num_4']",NA,"num_4",NA,NA,0,1,NA,0,"['4']",1.522641,NA,"",0,-1,-1,0,0,0,0,NA,NA,NA,NA,"",NA,NA
121,"2018-06-30",NA,"['num_4']",NA,"num_4",NA,NA,0,1,NA,0,"['2']",17.71497,NA,"",0,-1,-1,0,0,0,0,NA,NA,NA,NA,"",NA,NA
121,"2018-06-30",NA,"['num_4']",NA,"num_4",NA,NA,0,1,NA,0,"['1']",7.718896,NA,"",0,-1,-1,0,0,0,0,NA,NA,NA,NA,"",NA,NA
121,"2018-06-30",NA,"['num_4']",NA,"num_4",NA,NA,0,1,NA,0,"['1']",14.26659,NA,"",0,-1,-1,0,0,0,0,NA,NA,NA,NA,"",NA,NA
121,"2018-06-30",NA,"['num_4']",NA,"num_4",NA,NA,0,1,NA,0,"['4']",30.66077,NA,"",0,-1,-1,0,0,0,0,NA,NA,NA,NA,"",NA,NA
121,"2018-06-30",NA,"['num_4']",NA,"num_4",NA,NA,0,1,NA,0,"['2']",32.08385,NA,"",0,-1,-1,0,0,0,0,0,0,0,0,"",NA,NA
121,"2018-06-30",NA,"['num_4']",NA,"num_4",NA,NA,0,1,NA,0,"['2']",7.363661,NA,"",0,-1,-1,0,0,0,0,0,0,0,0,"",NA,NA
122,"2018-06-30",NA,"['num_1']",NA,"num_1",NA,NA,NA,NA,NA,0,"",NA,"","",0,-1,-1,NA,NA,NA,NA,NA,NA,NA,NA,"",NA,""
122,"2018-06-30",NA,"['num_1']",NA,"num_1",NA,NA,NA,NA,NA,0,"",NA,"","['1']",0,-1,-1,NA,NA,NA,NA,NA,NA,NA,NA,"",NA,""
122,"2018-06-30",NA,"['num_1']",NA,"num_1",NA,NA,NA,NA,NA,0,"",NA,"","['2']",0,-1,-1,NA,NA,NA,NA,NA,NA,NA,NA,"",NA,""
122,"2018-06-30",NA,"['num_1']",NA,"num_1",NA,NA,NA,NA,NA,0,"",NA,"","['1']",0,-1,-1,NA,NA,NA,NA,NA,NA,NA,NA,"",NA,""
122,"2018-06-30",NA,"['num_1']",NA,"num_1",NA,NA,NA,NA,NA,0,"",NA,"","['1']",0,-1,-1,NA,NA,NA,NA,NA,NA,NA,NA,"",NA,""
122,"2018-06-30",NA,"['num_1']",NA,"num_1",NA,NA,NA,NA,NA,0,"",NA,"piqano","",0,-1,-1,NA,NA,NA,NA,NA,NA,NA,NA,"return",10.69516,"piqano"
122,"2018-06-30",NA,"['num_1']",NA,"num_1",NA,NA,1,1,NA,0,"['3']",8.674115,"","",0,-1,-1,0,0,0,0,NA,NA,NA,NA,"",NA,""
122,"2018-06-30",NA,"['num_1']",NA,"num_1",NA,NA,1,1,NA,0,"['2']",3.700181,"","",0,-1,-1,0,0,0,0,NA,NA,NA,NA,"",NA,""
122,"2018-06-30",NA,"['num_1']",NA,"num_1",NA,NA,1,1,NA,0,"['4']",3.013113,"","",0,-1,-1,0,0,0,0,NA,NA,NA,NA,"",NA,""
122,"2018-06-30",NA,"['num_1']",NA,"num_1",NA,NA,0,1,NA,0,"['3']",3.146637,"","",0,-1,-1,0,0,0,0,NA,NA,NA,NA,"",NA,""
122,"2018-06-30",NA,"['num_1']",NA,"num_1",NA,NA,0,1,NA,0,"['3']",2.679838,"","",0,-1,-1,0,0,0,0,NA,NA,NA,NA,"",NA,""
122,"2018-06-30",NA,"['num_1']",NA,"num_1",NA,NA,0,1,NA,0,"['1']",3.380941,"","",0,-1,-1,0,0,0,0,NA,NA,NA,NA,"",NA,""
122,"2018-06-30",NA,"['num_1']",NA,"num_1",NA,NA,0,1,NA,0,"['1']",2.728906,"","",0,-1,-1,0,0,0,0,NA,NA,NA,NA,"",NA,""
122,"2018-06-30",NA,"['num_1']",NA,"num_1",NA,NA,1,1,NA,0,"['2']",2.244004,"","",0,-1,-1,0,0,0,0,NA,NA,NA,NA,"",NA,""
122,"2018-06-30",NA,"['num_1']",NA,"num_1",NA,NA,0,1,NA,0,"['3']",2.61076,"","",0,-1,-1,0,0,0,0,NA,NA,NA,NA,"",NA,""
122,"2018-06-30",NA,"['num_1']",NA,"num_1",NA,NA,1,1,NA,0,"['1']",38.34449,"","",0,-1,-1,0,0,0,0,0,0,0,0,"",NA,""
122,"2018-06-30",NA,"['num_1']",NA,"num_1",NA,NA,0,1,NA,0,"['2']",6.17592,"","",0,-1,-1,0,0,0,0,0,0,0,0,"",NA,""
123,"2018-07-28",NA,"['num_0']",NA,"num_0",NA,NA,NA,NA,NA,0,"",NA,NA,"",0,-1,-1,NA,NA,NA,NA,NA,NA,NA,NA,"",NA,NA
123,"2018-07-28",NA,"['num_0']",NA,"num_0",NA,NA,NA,NA,NA,0,"",NA,NA,"['1']",0,-1,-1,NA,NA,NA,NA,NA,NA,NA,NA,"",NA,NA
123,"2018-07-28",NA,"['num_0']",NA,"num_0",NA,NA,NA,NA,NA,0,"",NA,NA,"['2']",0,-1,-1,NA,NA,NA,NA,NA,NA,NA,NA,"",NA,NA
123,"2018-07-28",NA,"['num_0']",NA,"num_0",NA,NA,NA,NA,NA,0,"",NA,NA,"['2']",0,-1,-1,NA,NA,NA,NA,NA,NA,NA,NA,"",NA,NA
123,"2018-07-28",NA,"['num_0']",NA,"num_0",NA,NA,NA,NA,NA,0,"",NA,NA,"['2']",0,-1,-1,NA,NA,NA,NA,NA,NA,NA,NA,"",NA,NA
123,"2018-07-28",NA,"['num_0']",NA,"num_0",NA,NA,NA,NA,NA,0,"",NA,NA,"",0,-1,-1,NA,NA,NA,NA,NA,NA,NA,NA,"return",1.064755,NA
123,"2018-07-28",NA,"['num_0']",NA,"num_0",NA,NA,1,1,NA,0,"['3']",3.353128,NA,"",0,-1,-1,0,0,0,0,NA,NA,NA,NA,"",NA,NA
123,"2018-07-28",NA,"['num_0']",NA,"num_0",NA,NA,1,1,NA,0,"['2']",3.81874,NA,"",0,-1,-1,0,0,0,0,NA,NA,NA,NA,"",NA,NA
123,"2018-07-28",NA,"['num_0']",NA,"num_0",NA,NA,1,1,NA,0,"['4']",2.310115,NA,"",0,-1,-1,0,0,0,0,NA,NA,NA,NA,"",NA,NA
123,"2018-07-28",NA,"['num_0']",NA,"num_0",NA,NA,0,1,NA,0,"['1']",2.344602,NA,"",0,-1,-1,0,0,0,0,NA,NA,NA,NA,"",NA,NA
123,"2018-07-28",NA,"['num_0']",NA,"num_0",NA,NA,0,1,NA,0,"['4']",2.695782,NA,"",0,-1,-1,0,0,0,0,NA,NA,NA,NA,"",NA,NA
123,"2018-07-28",NA,"['num_0']",NA,"num_0",NA,NA,1,1,NA,0,"['3']",3.851492,NA,"",0,-1,-1,0,0,0,0,NA,NA,NA,NA,"",NA,NA
123,"2018-07-28",NA,"['num_0']",NA,"num_0",NA,NA,0,1,NA,0,"['2']",2.110157,NA,"",0,-1,-1,0,0,0,0,NA,NA,NA,NA,"",NA,NA
123,"2018-07-28",NA,"['num_0']",NA,"num_0",NA,NA,0,1,NA,0,"['4']",2.093524,NA,"",0,-1,-1,0,0,0,0,NA,NA,NA,NA,"",NA,NA
123,"2018-07-28",NA,"['num_0']",NA,"num_0",NA,NA,1,1,NA,0,"['1']",4.219289,NA,"",0,-1,-1,0,0,0,0,NA,NA,NA,NA,"",NA,NA
123,"2018-07-28",NA,"['num_0']",NA,"num_0",NA,NA,0,1,NA,0,"['2']",14.90078,NA,"",0,-1,-1,0,0,0,0,0,0,0,0,"",NA,NA
123,"2018-07-28",NA,"['num_0']",NA,"num_0",NA,NA,1,1,NA,0,"['3']",7.566358,NA,"",0,-1,-1,0,0,0,0,0,0,0,0,"",NA,NA
124,"2018-07-01",NA,"['num_7']",NA,"num_7",NA,NA,NA,NA,NA,0,"",NA,"","",0,-1,-1,NA,NA,NA,NA,NA,NA,NA,NA,"",NA,""
124,"2018-07-01",NA,"['num_7']",NA,"num_7",NA,NA,NA,NA,NA,0,"",NA,"","['2']",0,-1,-1,NA,NA,NA,NA,NA,NA,NA,NA,"",NA,""
124,"2018-07-01",NA,"['num_7']",NA,"num_7",NA,NA,NA,NA,NA,0,"",NA,"","['1']",0,-1,-1,NA,NA,NA,NA,NA,NA,NA,NA,"",NA,""
124,"2018-07-01",NA,"['num_7']",NA,"num_7",NA,NA,NA,NA,NA,0,"",NA,"","['1']",0,-1,-1,NA,NA,NA,NA,NA,NA,NA,NA,"",NA,""
124,"2018-07-01",NA,"['num_7']",NA,"num_7",NA,NA,NA,NA,NA,0,"",NA,"","['1']",0,-1,-1,NA,NA,NA,NA,NA,NA,NA,NA,"",NA,""
124,"2018-07-01",NA,"['num_7']",NA,"num_7",NA,NA,NA,NA,NA,0,"",NA,"piano","",0,-1,-1,NA,NA,NA,NA,NA,NA,NA,NA,"return",3.828076,"piano"
124,"2018-07-01",NA,"['num_7']",NA,"num_7",NA,NA,1,1,NA,0,"['3']",5.681468,"","",0,-1,-1,0,0,0,0,NA,NA,NA,NA,"",NA,""
124,"2018-07-01",NA,"['num_7']",NA,"num_7",NA,NA,1,1,NA,0,"['2']",5.793271,"","",0,-1,-1,0,0,0,0,NA,NA,NA,NA,"",NA,""
124,"2018-07-01",NA,"['num_7']",NA,"num_7",NA,NA,1,1,NA,0,"['4']",2.779244,"","",0,-1,-1,0,0,0,0,NA,NA,NA,NA,"",NA,""
124,"2018-07-01",NA,"['num_7']",NA,"num_7",NA,NA,0,1,NA,0,"['1']",5.107454,"","",0,-1,-1,0,0,0,0,NA,NA,NA,NA,"",NA,""
124,"2018-07-01",NA,"['num_7']",NA,"num_7",NA,NA,0,1,NA,0,"['1']",2.393786,"","",0,-1,-1,0,0,0,0,NA,NA,NA,NA,"",NA,""
124,"2018-07-01",NA,"['num_7']",NA,"num_7",NA,NA,1,1,NA,0,"['3']",5.843405,"","",0,-1,-1,0,0,0,0,NA,NA,NA,NA,"",NA,""
124,"2018-07-01",NA,"['num_7']",NA,"num_7",NA,NA,0,1,NA,0,"['1']",4.017484,"","",0,-1,-1,0,0,0,0,NA,NA,NA,NA,"",NA,""
124,"2018-07-01",NA,"['num_7']",NA,"num_7",NA,NA,0,1,NA,0,"['4']",3.398572,"","",0,-1,-1,0,0,0,0,NA,NA,NA,NA,"",NA,""
124,"2018-07-01",NA,"['num_7']",NA,"num_7",NA,NA,0,1,NA,0,"['2']",4.754611,"","",0,-1,-1,0,0,0,0,NA,NA,NA,NA,"",NA,""
124,"2018-07-01",NA,"['num_7']",NA,"num_7",NA,NA,1,1,NA,0,"['1']",21.55402,"","",0,-1,-1,0,0,0,0,0,0,0,0,"",NA,""
124,"2018-07-01",NA,"['num_7']",NA,"num_7",NA,NA,1,1,NA,0,"['3']",9.657816,"","",0,-1,-1,0,0,0,0,0,0,0,0,"",NA,""
125,"2018-09-23",NA,"['num_7']",NA,"num_7",NA,NA,NA,NA,NA,0,"",NA,"","",0,-1,-1,NA,NA,NA,NA,NA,NA,NA,NA,"",NA,""
125,"2018-09-23",NA,"['num_7']",NA,"num_7",NA,NA,NA,NA,NA,0,"",NA,"","['1']",0,-1,-1,NA,NA,NA,NA,NA,NA,NA,NA,"",NA,""
125,"2018-09-23",NA,"['num_7']",NA,"num_7",NA,NA,NA,NA,NA,0,"",NA,"","['1']",0,-1,-1,NA,NA,NA,NA,NA,NA,NA,NA,"",NA,""
125,"2018-09-23",NA,"['num_7']",NA,"num_7",NA,NA,NA,NA,NA,0,"",NA,"","['2']",0,-1,-1,NA,NA,NA,NA,NA,NA,NA,NA,"",NA,""
125,"2018-09-23",NA,"['num_7']",NA,"num_7",NA,NA,NA,NA,NA,0,"",NA,"","['1']",0,-1,-1,NA,NA,NA,NA,NA,NA,NA,NA,"",NA,""
125,"2018-09-23",NA,"['num_7']",NA,"num_7",NA,NA,NA,NA,NA,0,"",NA,"violin","",0,-1,-1,NA,NA,NA,NA,NA,NA,NA,NA,"return",12.7329,"violin"
125,"2018-09-23",NA,"['num_7']",NA,"num_7",NA,NA,0,1,NA,0,"['4']",5.177415,"","",0,-1,-1,0,0,0,0,NA,NA,NA,NA,"",NA,""
125,"2018-09-23",NA,"['num_7']",NA,"num_7",NA,NA,1,1,NA,0,"['2']",4.286544,"","",0,-1,-1,0,0,0,0,NA,NA,NA,NA,"",NA,""
125,"2018-09-23",NA,"['num_7']",NA,"num_7",NA,NA,1,1,NA,0,"['4']",3.41576,"","",0,-1,-1,0,0,0,0,NA,NA,NA,NA,"",NA,""
125,"2018-09-23",NA,"['num_7']",NA,"num_7",NA,NA,0,1,NA,0,"['1']",8.020764,"","",0,-1,-1,0,0,0,0,NA,NA,NA,NA,"",NA,""
125,"2018-09-23",NA,"['num_7']",NA,"num_7",NA,NA,0,1,NA,0,"['3']",5.559461,"","",0,-1,-1,0,0,0,0,NA,NA,NA,NA,"",NA,""
125,"2018-09-23",NA,"['num_7']",NA,"num_7",NA,NA,1,1,NA,0,"['3']",3.683301,"","",0,-1,-1,0,0,0,0,NA,NA,NA,NA,"",NA,""
125,"2018-09-23",NA,"['num_7']",NA,"num_7",NA,NA,0,1,NA,0,"['1']",2.577986,"","",0,-1,-1,0,0,0,0,NA,NA,NA,NA,"",NA,""
125,"2018-09-23",NA,"['num_7']",NA,"num_7",NA,NA,0,1,NA,0,"['1']",4.992064,"","",0,-1,-1,0,0,0,0,NA,NA,NA,NA,"",NA,""
125,"2018-09-23",NA,"['num_7']",NA,"num_7",NA,NA,0,1,NA,0,"['2']",3.648764,"","",0,-1,-1,0,0,0,0,NA,NA,NA,NA,"",NA,""
125,"2018-09-23",NA,"['num_7']",NA,"num_7",NA,NA,0,1,NA,0,"['3']",11.40769,"","",0,-1,-1,0,0,0,0,0,0,0,0,"",NA,""
125,"2018-09-23",NA,"['num_7']",NA,"num_7",NA,NA,0,1,NA,0,"['2']",6.744225,"","",0,-1,-1,0,0,0,0,0,0,0,0,"",NA,""
126,"2018-09-23",NA,"['num_4']",NA,"num_4",NA,NA,NA,NA,NA,0,"",NA,"","",0,-1,-1,NA,NA,NA,NA,NA,NA,NA,NA,"",NA,""
126,"2018-09-23",NA,"['num_4']",NA,"num_4",NA,NA,NA,NA,NA,0,"",NA,"","['1']",0,-1,-1,NA,NA,NA,NA,NA,NA,NA,NA,"",NA,""
126,"2018-09-23",NA,"['num_4']",NA,"num_4",NA,NA,NA,NA,NA,0,"",NA,"","['1']",0,-1,-1,NA,NA,NA,NA,NA,NA,NA,NA,"",NA,""
126,"2018-09-23",NA,"['num_4']",NA,"num_4",NA,NA,NA,NA,NA,0,"",NA,"","['1']",0,-1,-1,NA,NA,NA,NA,NA,NA,NA,NA,"",NA,""
126,"2018-09-23",NA,"['num_4']",NA,"num_4",NA,NA,NA,NA,NA,0,"",NA,"","['1']",0,-1,-1,NA,NA,NA,NA,NA,NA,NA,NA,"",NA,""
126,"2018-09-23",NA,"['num_4']",NA,"num_4",NA,NA,NA,NA,NA,0,"",NA,"piano and turkish guitar and recorder","",0,-1,-1,NA,NA,NA,NA,NA,NA,NA,NA,"return",26.43137,"piano and turkish guitar and recorder"
126,"2018-09-23",NA,"['num_4']",NA,"num_4",NA,NA,1,1,NA,0,"['3']",11.94091,"","",0,-1,-1,0,0,0,0,NA,NA,NA,NA,"",NA,""
126,"2018-09-23",NA,"['num_4']",NA,"num_4",NA,NA,1,1,NA,0,"['2']",4.168415,"","",0,-1,-1,0,0,0,0,NA,NA,NA,NA,"",NA,""
126,"2018-09-23",NA,"['num_4']",NA,"num_4",NA,NA,1,1,NA,0,"['4']",6.379595,"","",0,-1,-1,0,0,0,0,NA,NA,NA,NA,"",NA,""
126,"2018-09-23",NA,"['num_4']",NA,"num_4",NA,NA,0,1,NA,0,"['2']",7.250224,"","",0,-1,-1,0,0,0,0,NA,NA,NA,NA,"",NA,""
126,"2018-09-23",NA,"['num_4']",NA,"num_4",NA,NA,1,1,NA,0,"['2']",5.023771,"","",0,-1,-1,0,0,0,0,NA,NA,NA,NA,"",NA,""
126,"2018-09-23",NA,"['num_4']",NA,"num_4",NA,NA,1,1,NA,0,"['3']",1.524245,"","",0,-1,-1,0,0,0,0,NA,NA,NA,NA,"",NA,""
126,"2018-09-23",NA,"['num_4']",NA,"num_4",NA,NA,0,1,NA,0,"['1']",1.221352,"","",0,-1,-1,0,0,0,0,NA,NA,NA,NA,"",NA,""
126,"2018-09-23",NA,"['num_4']",NA,"num_4",NA,NA,0,1,NA,0,"['1']",2.091935,"","",0,-1,-1,0,0,0,0,NA,NA,NA,NA,"",NA,""
126,"2018-09-23",NA,"['num_4']",NA,"num_4",NA,NA,0,1,NA,0,"['3']",1.338381,"","",0,-1,-1,0,0,0,0,NA,NA,NA,NA,"",NA,""
126,"2018-09-23",NA,"['num_4']",NA,"num_4",NA,NA,1,1,NA,0,"['1']",16.95873,"","",0,-1,-1,0,0,0,0,0,0,0,0,"",NA,""
126,"2018-09-23",NA,"['num_4']",NA,"num_4",NA,NA,0,1,NA,0,"['2']",0.08482674,"","",0,-1,-1,0,0,0,0,0,0,0,0,"",NA,""
128,"2018-07-07",NA,"['num_4']",NA,"num_4",NA,NA,NA,NA,NA,0,"",NA,"","",0,-1,-1,NA,NA,NA,NA,NA,NA,NA,NA,"",NA,""
128,"2018-07-07",NA,"['num_4']",NA,"num_4",NA,NA,NA,NA,NA,0,"",NA,"","['1']",0,-1,-1,NA,NA,NA,NA,NA,NA,NA,NA,"",NA,""
128,"2018-07-07",NA,"['num_4']",NA,"num_4",NA,NA,NA,NA,NA,0,"",NA,"","['2']",0,-1,-1,NA,NA,NA,NA,NA,NA,NA,NA,"",NA,""
128,"2018-07-07",NA,"['num_4']",NA,"num_4",NA,NA,NA,NA,NA,0,"",NA,"","['1']",0,-1,-1,NA,NA,NA,NA,NA,NA,NA,NA,"",NA,""
128,"2018-07-07",NA,"['num_4']",NA,"num_4",NA,NA,NA,NA,NA,0,"",NA,"","['2']",0,-1,-1,NA,NA,NA,NA,NA,NA,NA,NA,"",NA,""
128,"2018-07-07",NA,"['num_4']",NA,"num_4",NA,NA,NA,NA,NA,0,"",NA,"na","",0,-1,-1,NA,NA,NA,NA,NA,NA,NA,NA,"return",1.343337,"na"
128,"2018-07-07",NA,"['num_4']",NA,"num_4",NA,NA,0,1,NA,0,"['4']",5.417017,"","",0,-1,-1,0,0,0,0,NA,NA,NA,NA,"",NA,""
128,"2018-07-07",NA,"['num_4']",NA,"num_4",NA,NA,1,1,NA,0,"['2']",4.018777,"","",0,-1,-1,0,0,0,0,NA,NA,NA,NA,"",NA,""
128,"2018-07-07",NA,"['num_4']",NA,"num_4",NA,NA,0,1,NA,0,"['1']",2.862438,"","",0,-1,-1,0,0,0,0,NA,NA,NA,NA,"",NA,""
128,"2018-07-07",NA,"['num_4']",NA,"num_4",NA,NA,0,1,NA,0,"['2']",4.436977,"","",0,-1,-1,0,0,0,0,NA,NA,NA,NA,"",NA,""
128,"2018-07-07",NA,"['num_4']",NA,"num_4",NA,NA,0,1,NA,0,"['1']",2.712419,"","",0,-1,-1,0,0,0,0,NA,NA,NA,NA,"",NA,""
128,"2018-07-07",NA,"['num_4']",NA,"num_4",NA,NA,1,1,NA,0,"['3']",3.280497,"","",0,-1,-1,0,0,0,0,NA,NA,NA,NA,"",NA,""
128,"2018-07-07",NA,"['num_4']",NA,"num_4",NA,NA,1,1,NA,0,"['4']",2.075626,"","",0,-1,-1,0,0,0,0,NA,NA,NA,NA,"",NA,""
128,"2018-07-07",NA,"['num_4']",NA,"num_4",NA,NA,0,1,NA,0,"['1']",2.108737,"","",0,-1,-1,0,0,0,0,NA,NA,NA,NA,"",NA,""
128,"2018-07-07",NA,"['num_4']",NA,"num_4",NA,NA,0,1,NA,0,"['4']",1.857808,"","",0,-1,-1,0,0,0,0,NA,NA,NA,NA,"",NA,""
128,"2018-07-07",NA,"['num_4']",NA,"num_4",NA,NA,0,1,NA,0,"['3']",13.28211,"","",0,-1,-1,0,0,0,0,0,0,0,0,"",NA,""
128,"2018-07-07",NA,"['num_4']",NA,"num_4",NA,NA,0,1,NA,0,"['1']",5.926475,"","",0,-1,-1,0,0,0,0,0,0,0,0,"",NA,""
129,"2018-12-29",NA,"['num_1']",NA,"num_1",NA,NA,NA,NA,NA,0,"",NA,"","",0,-1,-1,NA,NA,NA,NA,NA,NA,NA,NA,"",NA,""
129,"2018-12-29",NA,"['num_1']",NA,"num_1",NA,NA,NA,NA,NA,0,"",NA,"","['3']",0,-1,-1,NA,NA,NA,NA,NA,NA,NA,NA,"",NA,""
129,"2018-12-29",NA,"['num_1']",NA,"num_1",NA,NA,NA,NA,NA,0,"",NA,"","['1']",0,-1,-1,NA,NA,NA,NA,NA,NA,NA,NA,"",NA,""
129,"2018-12-29",NA,"['num_1']",NA,"num_1",NA,NA,NA,NA,NA,0,"",NA,"","['1']",0,-1,-1,NA,NA,NA,NA,NA,NA,NA,NA,"",NA,""
129,"2018-12-29",NA,"['num_1']",NA,"num_1",NA,NA,NA,NA,NA,0,"",NA,"","['2']",0,-1,-1,NA,NA,NA,NA,NA,NA,NA,NA,"",NA,""
129,"2018-12-29",NA,"['num_1']",NA,"num_1",NA,NA,NA,NA,NA,0,"",NA,"none","",0,-1,-1,NA,NA,NA,NA,NA,NA,NA,NA,"return",4.074509,"none"
129,"2018-12-29",NA,"['num_1']",NA,"num_1",NA,NA,1,1,NA,0,"['3']",5.527349,"","",0,-1,-1,0,0,0,0,NA,NA,NA,NA,"",NA,""
129,"2018-12-29",NA,"['num_1']",NA,"num_1",NA,NA,1,1,NA,0,"['2']",4.437311,"","",0,-1,-1,0,0,0,0,NA,NA,NA,NA,"",NA,""
129,"2018-12-29",NA,"['num_1']",NA,"num_1",NA,NA,1,1,NA,0,"['4']",2.360317,"","",0,-1,-1,0,0,0,0,NA,NA,NA,NA,"",NA,""
129,"2018-12-29",NA,"['num_1']",NA,"num_1",NA,NA,0,1,NA,0,"['1']",1.909322,"","",0,-1,-1,0,0,0,0,NA,NA,NA,NA,"",NA,""
129,"2018-12-29",NA,"['num_1']",NA,"num_1",NA,NA,0,1,NA,0,"['1']",3.113499,"","",0,-1,-1,0,0,0,0,NA,NA,NA,NA,"",NA,""
129,"2018-12-29",NA,"['num_1']",NA,"num_1",NA,NA,1,1,NA,0,"['3']",1.87522,"","",0,-1,-1,0,0,0,0,NA,NA,NA,NA,"",NA,""
129,"2018-12-29",NA,"['num_1']",NA,"num_1",NA,NA,0,1,NA,0,"['1']",1.859196,"","",0,-1,-1,0,0,0,0,NA,NA,NA,NA,"",NA,""
129,"2018-12-29",NA,"['num_1']",NA,"num_1",NA,NA,0,1,NA,0,"['3']",2.027068,"","",0,-1,-1,0,0,0,0,NA,NA,NA,NA,"",NA,""
129,"2018-12-29",NA,"['num_1']",NA,"num_1",NA,NA,0,1,NA,0,"['2']",1.404875,"","",0,-1,-1,0,0,0,0,NA,NA,NA,NA,"",NA,""
129,"2018-12-29",NA,"['num_1']",NA,"num_1",NA,NA,1,1,NA,0,"['1']",14.92155,"","",0,-1,-1,0,0,0,0,0,0,0,0,"",NA,""
129,"2018-12-29",NA,"['num_1']",NA,"num_1",NA,NA,0,1,NA,0,"['1']",7.381575,"","",0,-1,-1,0,0,0,0,0,0,0,0,"",NA,""
130,"2018-12-30",NA,"['num_1']",NA,"num_1",NA,NA,NA,NA,NA,0,"",NA,"","",0,-1,-1,NA,NA,NA,NA,NA,NA,NA,NA,"",NA,""
130,"2018-12-30",NA,"['num_1']",NA,"num_1",NA,NA,NA,NA,NA,0,"",NA,"","['1']",0,-1,-1,NA,NA,NA,NA,NA,NA,NA,NA,"",NA,""
130,"2018-12-30",NA,"['num_1']",NA,"num_1",NA,NA,NA,NA,NA,0,"",NA,"","['1']",0,-1,-1,NA,NA,NA,NA,NA,NA,NA,NA,"",NA,""
130,"2018-12-30",NA,"['num_1']",NA,"num_1",NA,NA,NA,NA,NA,0,"",NA,"","['1']",0,-1,-1,NA,NA,NA,NA,NA,NA,NA,NA,"",NA,""
130,"2018-12-30",NA,"['num_1']",NA,"num_1",NA,NA,NA,NA,NA,0,"",NA,"","['2']",0,-1,-1,NA,NA,NA,NA,NA,NA,NA,NA,"",NA,""
130,"2018-12-30",NA,"['num_1']",NA,"num_1",NA,NA,NA,NA,NA,0,"",NA,"na","",0,-1,-1,NA,NA,NA,NA,NA,NA,NA,NA,"return",2.58527,"na"
130,"2018-12-30",NA,"['num_1']",NA,"num_1",NA,NA,1,1,NA,0,"['3']",11.90888,"","",0,-1,-1,0,0,0,0,NA,NA,NA,NA,"",NA,""
130,"2018-12-30",NA,"['num_1']",NA,"num_1",NA,NA,0,1,NA,0,"['1']",8.131876,"","",0,-1,-1,0,0,0,0,NA,NA,NA,NA,"",NA,""
130,"2018-12-30",NA,"['num_1']",NA,"num_1",NA,NA,0,1,NA,0,"['2']",7.132081,"","",0,-1,-1,0,0,0,0,NA,NA,NA,NA,"",NA,""
130,"2018-12-30",NA,"['num_1']",NA,"num_1",NA,NA,0,1,NA,0,"['3']",4.832323,"","",0,-1,-1,0,0,0,0,NA,NA,NA,NA,"",NA,""
130,"2018-12-30",NA,"['num_1']",NA,"num_1",NA,NA,0,1,NA,0,"['1']",7.515369,"","",0,-1,-1,0,0,0,0,NA,NA,NA,NA,"",NA,""
130,"2018-12-30",NA,"['num_1']",NA,"num_1",NA,NA,0,1,NA,0,"['4']",12.5315,"","",0,-1,-1,0,0,0,0,NA,NA,NA,NA,"",NA,""
130,"2018-12-30",NA,"['num_1']",NA,"num_1",NA,NA,0,1,NA,0,"['3']",9.631711,"","",0,-1,-1,0,0,0,0,NA,NA,NA,NA,"",NA,""
130,"2018-12-30",NA,"['num_1']",NA,"num_1",NA,NA,1,1,NA,0,"['2']",5.548995,"","",0,-1,-1,0,0,0,0,NA,NA,NA,NA,"",NA,""
130,"2018-12-30",NA,"['num_1']",NA,"num_1",NA,NA,0,1,NA,0,"['2']",5.515453,"","",0,-1,-1,0,0,0,0,NA,NA,NA,NA,"",NA,""
130,"2018-12-30",NA,"['num_1']",NA,"num_1",NA,NA,0,1,NA,0,"['3']",26.74501,"","",0,-1,-1,0,0,0,0,0,0,0,0,"",NA,""
130,"2018-12-30",NA,"['num_1']",NA,"num_1",NA,NA,0,1,NA,0,"['2']",15.12889,"","",0,-1,-1,0,0,0,0,0,0,0,0,"",NA,""
133,"2018-12-09",NA,"['num_0']",NA,"num_0",NA,NA,NA,NA,NA,0,"",NA,"","",0,-1,-1,NA,NA,NA,NA,NA,NA,NA,NA,"",NA,""
133,"2018-12-09",NA,"['num_0']",NA,"num_0",NA,NA,NA,NA,NA,0,"",NA,"","['1']",0,-1,-1,NA,NA,NA,NA,NA,NA,NA,NA,"",NA,""
133,"2018-12-09",NA,"['num_0']",NA,"num_0",NA,NA,NA,NA,NA,0,"",NA,"","['1']",0,-1,-1,NA,NA,NA,NA,NA,NA,NA,NA,"",NA,""
133,"2018-12-09",NA,"['num_0']",NA,"num_0",NA,NA,NA,NA,NA,0,"",NA,"","['1']",0,-1,-1,NA,NA,NA,NA,NA,NA,NA,NA,"",NA,""
133,"2018-12-09",NA,"['num_0']",NA,"num_0",NA,NA,NA,NA,NA,0,"",NA,"","['1']",0,-1,-1,NA,NA,NA,NA,NA,NA,NA,NA,"",NA,""
133,"2018-12-09",NA,"['num_0']",NA,"num_0",NA,NA,NA,NA,NA,0,"",NA,"violin flute guitar","",0,-1,-1,NA,NA,NA,NA,NA,NA,NA,NA,"return",21.45359,"violin flute guitar"
133,"2018-12-09",NA,"['num_0']",NA,"num_0",NA,NA,1,1,NA,0,"['3']",6.961363,"","",0,-1,-1,0,0,0,0,NA,NA,NA,NA,"",NA,""
133,"2018-12-09",NA,"['num_0']",NA,"num_0",NA,NA,1,1,NA,0,"['2']",10.34782,"","",0,-1,-1,0,0,0,0,NA,NA,NA,NA,"",NA,""
133,"2018-12-09",NA,"['num_0']",NA,"num_0",NA,NA,1,1,NA,0,"['4']",3.098007,"","",0,-1,-1,0,0,0,0,NA,NA,NA,NA,"",NA,""
133,"2018-12-09",NA,"['num_0']",NA,"num_0",NA,NA,1,1,NA,0,"['4']",3.414898,"","",0,-1,-1,0,0,0,0,NA,NA,NA,NA,"",NA,""
133,"2018-12-09",NA,"['num_0']",NA,"num_0",NA,NA,1,1,NA,0,"['2']",3.131842,"","",0,-1,-1,0,0,0,0,NA,NA,NA,NA,"",NA,""
133,"2018-12-09",NA,"['num_0']",NA,"num_0",NA,NA,1,1,NA,0,"['3']",7.31838,"","",0,-1,-1,0,0,0,0,NA,NA,NA,NA,"",NA,""
133,"2018-12-09",NA,"['num_0']",NA,"num_0",NA,NA,1,1,NA,0,"['4']",5.023753,"","",0,-1,-1,0,0,0,0,NA,NA,NA,NA,"",NA,""
133,"2018-12-09",NA,"['num_0']",NA,"num_0",NA,NA,0,1,NA,0,"['4']",3.349301,"","",0,-1,-1,0,0,0,0,NA,NA,NA,NA,"",NA,""
133,"2018-12-09",NA,"['num_0']",NA,"num_0",NA,NA,0,1,NA,0,"['3']",5.508439,"","",0,-1,-1,0,0,0,0,NA,NA,NA,NA,"",NA,""
133,"2018-12-09",NA,"['num_0']",NA,"num_0",NA,NA,1,1,NA,0,"['1']",26.17404,"","",0,-1,-1,0,0,0,0,0,0,0,0,"",NA,""
133,"2018-12-09",NA,"['num_0']",NA,"num_0",NA,NA,0,1,NA,0,"['2']",9.07207,"","",0,-1,-1,0,0,0,0,0,0,0,0,"",NA,""
134,"2018-09-22",NA,"['num_1']",NA,"num_1",NA,NA,NA,NA,NA,0,"",NA,"","",0,-1,-1,NA,NA,NA,NA,NA,NA,NA,NA,"",NA,""
134,"2018-09-22",NA,"['num_1']",NA,"num_1",NA,NA,NA,NA,NA,0,"",NA,"","['1']",0,-1,-1,NA,NA,NA,NA,NA,NA,NA,NA,"",NA,""
134,"2018-09-22",NA,"['num_1']",NA,"num_1",NA,NA,NA,NA,NA,0,"",NA,"","['1']",0,-1,-1,NA,NA,NA,NA,NA,NA,NA,NA,"",NA,""
134,"2018-09-22",NA,"['num_1']",NA,"num_1",NA,NA,NA,NA,NA,0,"",NA,"","['1']",0,-1,-1,NA,NA,NA,NA,NA,NA,NA,NA,"",NA,""
134,"2018-09-22",NA,"['num_1']",NA,"num_1",NA,NA,NA,NA,NA,0,"",NA,"","['1']",0,-1,-1,NA,NA,NA,NA,NA,NA,NA,NA,"",NA,""
134,"2018-09-22",NA,"['num_1']",NA,"num_1",NA,NA,NA,NA,NA,0,"",NA,"violin","",0,-1,-1,NA,NA,NA,NA,NA,NA,NA,NA,"return",3.725936,"violin"
134,"2018-09-22",NA,"['num_1']",NA,"num_1",NA,NA,1,1,NA,0,"['3']",4.476295,"","",0,-1,-1,0,0,0,0,NA,NA,NA,NA,"",NA,""
134,"2018-09-22",NA,"['num_1']",NA,"num_1",NA,NA,1,1,NA,0,"['2']",2.846497,"","",0,-1,-1,0,0,0,0,NA,NA,NA,NA,"",NA,""
134,"2018-09-22",NA,"['num_1']",NA,"num_1",NA,NA,1,1,NA,0,"['4']",2.694963,"","",0,-1,-1,0,0,0,0,NA,NA,NA,NA,"",NA,""
134,"2018-09-22",NA,"['num_1']",NA,"num_1",NA,NA,1,1,NA,0,"['4']",2.294476,"","",0,-1,-1,0,0,0,0,NA,NA,NA,NA,"",NA,""
134,"2018-09-22",NA,"['num_1']",NA,"num_1",NA,NA,1,1,NA,0,"['2']",2.695053,"","",0,-1,-1,0,0,0,0,NA,NA,NA,NA,"",NA,""
134,"2018-09-22",NA,"['num_1']",NA,"num_1",NA,NA,1,1,NA,0,"['3']",2.89663,"","",0,-1,-1,0,0,0,0,NA,NA,NA,NA,"",NA,""
134,"2018-09-22",NA,"['num_1']",NA,"num_1",NA,NA,1,1,NA,0,"['4']",2.226463,"","",0,-1,-1,0,0,0,0,NA,NA,NA,NA,"",NA,""
134,"2018-09-22",NA,"['num_1']",NA,"num_1",NA,NA,0,1,NA,0,"['1']",4.705159,"","",0,-1,-1,0,0,0,0,NA,NA,NA,NA,"",NA,""
134,"2018-09-22",NA,"['num_1']",NA,"num_1",NA,NA,0,1,NA,0,"['3']",5.206743,"","",0,-1,-1,0,0,0,0,NA,NA,NA,NA,"",NA,""
134,"2018-09-22",NA,"['num_1']",NA,"num_1",NA,NA,1,1,NA,0,"['1']",46.70594,"","",0,-1,-1,0,0,0,0,0,0,0,0,"",NA,""
134,"2018-09-22",NA,"['num_1']",NA,"num_1",NA,NA,1,1,NA,0,"['3']",13.84714,"","",0,-1,-1,0,0,0,0,0,0,0,0,"",NA,""
135,"2018-12-23",NA,"['num_4']",NA,"num_4",NA,NA,NA,NA,NA,0,"",NA,"","",0,-1,-1,NA,NA,NA,NA,NA,NA,NA,NA,"",NA,""
135,"2018-12-23",NA,"['num_4']",NA,"num_4",NA,NA,NA,NA,NA,0,"",NA,"","['1']",0,-1,-1,NA,NA,NA,NA,NA,NA,NA,NA,"",NA,""
135,"2018-12-23",NA,"['num_4']",NA,"num_4",NA,NA,NA,NA,NA,0,"",NA,"","['1']",0,-1,-1,NA,NA,NA,NA,NA,NA,NA,NA,"",NA,""
135,"2018-12-23",NA,"['num_4']",NA,"num_4",NA,NA,NA,NA,NA,0,"",NA,"","['1']",0,-1,-1,NA,NA,NA,NA,NA,NA,NA,NA,"",NA,""
135,"2018-12-23",NA,"['num_4']",NA,"num_4",NA,NA,NA,NA,NA,0,"",NA,"","['1']",0,-1,-1,NA,NA,NA,NA,NA,NA,NA,NA,"",NA,""
135,"2018-12-23",NA,"['num_4']",NA,"num_4",NA,NA,NA,NA,NA,0,"",NA,"piano and flute","",0,-1,-1,NA,NA,NA,NA,NA,NA,NA,NA,"return",7.240276,"piano and flute"
135,"2018-12-23",NA,"['num_4']",NA,"num_4",NA,NA,1,1,NA,0,"['3']",4.377608,"","",0,-1,-1,0,0,0,0,NA,NA,NA,NA,"",NA,""
135,"2018-12-23",NA,"['num_4']",NA,"num_4",NA,NA,1,1,NA,0,"['2']",2.47919,"","",0,-1,-1,0,0,0,0,NA,NA,NA,NA,"",NA,""
135,"2018-12-23",NA,"['num_4']",NA,"num_4",NA,NA,1,1,NA,0,"['4']",1.507308,"","",0,-1,-1,0,0,0,0,NA,NA,NA,NA,"",NA,""
135,"2018-12-23",NA,"['num_4']",NA,"num_4",NA,NA,1,1,NA,0,"['4']",1.054213,"","",0,-1,-1,0,0,0,0,NA,NA,NA,NA,"",NA,""
135,"2018-12-23",NA,"['num_4']",NA,"num_4",NA,NA,1,1,NA,0,"['2']",1.707649,"","",0,-1,-1,0,0,0,0,NA,NA,NA,NA,"",NA,""
135,"2018-12-23",NA,"['num_4']",NA,"num_4",NA,NA,1,1,NA,0,"['3']",0.9538486,"","",0,-1,-1,0,0,0,0,NA,NA,NA,NA,"",NA,""
135,"2018-12-23",NA,"['num_4']",NA,"num_4",NA,NA,1,1,NA,0,"['4']",0.9032152,"","",0,-1,-1,0,0,0,0,NA,NA,NA,NA,"",NA,""
135,"2018-12-23",NA,"['num_4']",NA,"num_4",NA,NA,0,1,NA,0,"['1']",1.641193,"","",0,-1,-1,0,0,0,0,NA,NA,NA,NA,"",NA,""
135,"2018-12-23",NA,"['num_4']",NA,"num_4",NA,NA,0,1,NA,0,"['3']",4.622016,"","",0,-1,-1,0,0,0,0,NA,NA,NA,NA,"",NA,""
135,"2018-12-23",NA,"['num_4']",NA,"num_4",NA,NA,1,1,NA,0,"['1']",14.51631,"","",0,-1,-1,0,0,0,0,0,0,0,0,"",NA,""
135,"2018-12-23",NA,"['num_4']",NA,"num_4",NA,NA,0,1,NA,0,"['2']",16.99382,"","",0,-1,-1,0,0,0,0,0,0,0,0,"",NA,""
137,"2018-10-06",NA,"['num_7']",NA,"num_7",NA,NA,NA,NA,NA,0,"",NA,"","",0,-1,-1,NA,NA,NA,NA,NA,NA,NA,NA,"",NA,""
137,"2018-10-06",NA,"['num_7']",NA,"num_7",NA,NA,NA,NA,NA,0,"",NA,"","['1']",0,-1,-1,NA,NA,NA,NA,NA,NA,NA,NA,"",NA,""
137,"2018-10-06",NA,"['num_7']",NA,"num_7",NA,NA,NA,NA,NA,0,"",NA,"","['1']",0,-1,-1,NA,NA,NA,NA,NA,NA,NA,NA,"",NA,""
137,"2018-10-06",NA,"['num_7']",NA,"num_7",NA,NA,NA,NA,NA,0,"",NA,"","['1']",0,-1,-1,NA,NA,NA,NA,NA,NA,NA,NA,"",NA,""
137,"2018-10-06",NA,"['num_7']",NA,"num_7",NA,NA,NA,NA,NA,0,"",NA,"","['1']",0,-1,-1,NA,NA,NA,NA,NA,NA,NA,NA,"",NA,""
137,"2018-10-06",NA,"['num_7']",NA,"num_7",NA,NA,NA,NA,NA,0,"",NA,"piano","",0,-1,-1,NA,NA,NA,NA,NA,NA,NA,NA,"return",3.404177,"piano"
137,"2018-10-06",NA,"['num_7']",NA,"num_7",NA,NA,0,1,NA,0,"['1']",7.319793,"","",0,-1,-1,0,0,0,0,NA,NA,NA,NA,"",NA,""
137,"2018-10-06",NA,"['num_7']",NA,"num_7",NA,NA,1,1,NA,0,"['2']",5.117791,"","",0,-1,-1,0,0,0,0,NA,NA,NA,NA,"",NA,""
137,"2018-10-06",NA,"['num_7']",NA,"num_7",NA,NA,0,1,NA,0,"['1']",1.947814,"","",0,-1,-1,0,0,0,0,NA,NA,NA,NA,"",NA,""
137,"2018-10-06",NA,"['num_7']",NA,"num_7",NA,NA,0,1,NA,0,"['1']",2.350576,"","",0,-1,-1,0,0,0,0,NA,NA,NA,NA,"",NA,""
137,"2018-10-06",NA,"['num_7']",NA,"num_7",NA,NA,0,1,NA,0,"['4']",2.199253,"","",0,-1,-1,0,0,0,0,NA,NA,NA,NA,"",NA,""
137,"2018-10-06",NA,"['num_7']",NA,"num_7",NA,NA,0,1,NA,0,"['1']",2.349447,"","",0,-1,-1,0,0,0,0,NA,NA,NA,NA,"",NA,""
137,"2018-10-06",NA,"['num_7']",NA,"num_7",NA,NA,1,1,NA,0,"['4']",2.947953,"","",0,-1,-1,0,0,0,0,NA,NA,NA,NA,"",NA,""
137,"2018-10-06",NA,"['num_7']",NA,"num_7",NA,NA,0,1,NA,0,"['3']",3.066232,"","",0,-1,-1,0,0,0,0,NA,NA,NA,NA,"",NA,""
137,"2018-10-06",NA,"['num_7']",NA,"num_7",NA,NA,0,1,NA,0,"['2']",2.116685,"","",0,-1,-1,0,0,0,0,NA,NA,NA,NA,"",NA,""
137,"2018-10-06",NA,"['num_7']",NA,"num_7",NA,NA,0,1,NA,0,"['3']",14.94465,"","",0,-1,-1,0,0,0,0,0,0,0,0,"",NA,""
137,"2018-10-06",NA,"['num_7']",NA,"num_7",NA,NA,0,1,NA,0,"['2']",4.963906,"","",0,-1,-1,0,0,0,0,0,0,0,0,"",NA,""
138,"2018-08-08",NA,"['num_7']",NA,"num_7",NA,NA,NA,NA,NA,0,"",NA,"","",0,-1,-1,NA,NA,NA,NA,NA,NA,NA,NA,"",NA,""
138,"2018-08-08",NA,"['num_7']",NA,"num_7",NA,NA,NA,NA,NA,0,"",NA,"","['1']",0,-1,-1,NA,NA,NA,NA,NA,NA,NA,NA,"",NA,""
138,"2018-08-08",NA,"['num_7']",NA,"num_7",NA,NA,NA,NA,NA,0,"",NA,"","['3']",0,-1,-1,NA,NA,NA,NA,NA,NA,NA,NA,"",NA,""
138,"2018-08-08",NA,"['num_7']",NA,"num_7",NA,NA,NA,NA,NA,0,"",NA,"","['1']",0,-1,-1,NA,NA,NA,NA,NA,NA,NA,NA,"",NA,""
138,"2018-08-08",NA,"['num_7']",NA,"num_7",NA,NA,NA,NA,NA,0,"",NA,"","['2']",0,-1,-1,NA,NA,NA,NA,NA,NA,NA,NA,"",NA,""
138,"2018-08-08",NA,"['num_7']",NA,"num_7",NA,NA,NA,NA,NA,0,"",NA," none","",0,-1,-1,NA,NA,NA,NA,NA,NA,NA,NA,"return",18.8084," none"
138,"2018-08-08",NA,"['num_7']",NA,"num_7",NA,NA,1,1,NA,0,"['3']",5.891762,"","",0,-1,-1,0,0,0,0,NA,NA,NA,NA,"",NA,""
138,"2018-08-08",NA,"['num_7']",NA,"num_7",NA,NA,1,1,NA,0,"['2']",7.651237,"","",0,-1,-1,0,0,0,0,NA,NA,NA,NA,"",NA,""
138,"2018-08-08",NA,"['num_7']",NA,"num_7",NA,NA,1,1,NA,0,"['4']",4.571046,"","",0,-1,-1,0,0,0,0,NA,NA,NA,NA,"",NA,""
138,"2018-08-08",NA,"['num_7']",NA,"num_7",NA,NA,0,1,NA,0,"['1']",3.264423,"","",0,-1,-1,0,0,0,0,NA,NA,NA,NA,"",NA,""
138,"2018-08-08",NA,"['num_7']",NA,"num_7",NA,NA,0,1,NA,0,"['3']",3.751017,"","",0,-1,-1,0,0,0,0,NA,NA,NA,NA,"",NA,""
138,"2018-08-08",NA,"['num_7']",NA,"num_7",NA,NA,0,1,NA,0,"['1']",6.311341,"","",0,-1,-1,0,0,0,0,NA,NA,NA,NA,"",NA,""
138,"2018-08-08",NA,"['num_7']",NA,"num_7",NA,NA,0,1,NA,0,"['3']",4.437989,"","",0,-1,-1,0,0,0,0,NA,NA,NA,NA,"",NA,""
138,"2018-08-08",NA,"['num_7']",NA,"num_7",NA,NA,0,1,NA,0,"['4']",5.927293,"","",0,-1,-1,0,0,0,0,NA,NA,NA,NA,"",NA,""
138,"2018-08-08",NA,"['num_7']",NA,"num_7",NA,NA,0,1,NA,0,"['3']",10.19746,"","",0,-1,-1,0,0,0,0,NA,NA,NA,NA,"",NA,""
138,"2018-08-08",NA,"['num_7']",NA,"num_7",NA,NA,0,1,NA,0,"['3']",23.13939,"","",0,-1,-1,0,0,0,0,0,0,0,0,"",NA,""
138,"2018-08-08",NA,"['num_7']",NA,"num_7",NA,NA,1,1,NA,0,"['3']",15.01689,"","",0,-1,-1,0,0,0,0,0,0,0,0,"",NA,""
139,"2018-08-08",NA,"['num_4']",NA,"num_4",NA,NA,NA,NA,NA,0,"",NA,NA,"",0,-1,-1,NA,NA,NA,NA,NA,NA,NA,NA,"",NA,NA
139,"2018-08-08",NA,"['num_4']",NA,"num_4",NA,NA,NA,NA,NA,0,"",NA,NA,"['2']",0,-1,-1,NA,NA,NA,NA,NA,NA,NA,NA,"",NA,NA
139,"2018-08-08",NA,"['num_4']",NA,"num_4",NA,NA,NA,NA,NA,0,"",NA,NA,"['1']",0,-1,-1,NA,NA,NA,NA,NA,NA,NA,NA,"",NA,NA
139,"2018-08-08",NA,"['num_4']",NA,"num_4",NA,NA,NA,NA,NA,0,"",NA,NA,"['1']",0,-1,-1,NA,NA,NA,NA,NA,NA,NA,NA,"",NA,NA
139,"2018-08-08",NA,"['num_4']",NA,"num_4",NA,NA,NA,NA,NA,0,"",NA,NA,"['2']",0,-1,-1,NA,NA,NA,NA,NA,NA,NA,NA,"",NA,NA
139,"2018-08-08",NA,"['num_4']",NA,"num_4",NA,NA,NA,NA,NA,0,"",NA,NA,"",0,-1,-1,NA,NA,NA,NA,NA,NA,NA,NA,"return",3.446539,NA
139,"2018-08-08",NA,"['num_4']",NA,"num_4",NA,NA,0,1,NA,0,"['4']",10.35648,NA,"",0,-1,-1,0,0,0,0,NA,NA,NA,NA,"",NA,NA
139,"2018-08-08",NA,"['num_4']",NA,"num_4",NA,NA,1,1,NA,0,"['2']",4.523224,NA,"",0,-1,-1,0,0,0,0,NA,NA,NA,NA,"",NA,NA
139,"2018-08-08",NA,"['num_4']",NA,"num_4",NA,NA,1,1,NA,0,"['4']",3.062675,NA,"",0,-1,-1,0,0,0,0,NA,NA,NA,NA,"",NA,NA
139,"2018-08-08",NA,"['num_4']",NA,"num_4",NA,NA,1,1,NA,0,"['4']",0.07155449,NA,"",0,-1,-1,0,0,0,0,NA,NA,NA,NA,"",NA,NA
139,"2018-08-08",NA,"['num_4']",NA,"num_4",NA,NA,0,1,NA,0,"['1']",3.366175,NA,"",0,-1,-1,0,0,0,0,NA,NA,NA,NA,"",NA,NA
139,"2018-08-08",NA,"['num_4']",NA,"num_4",NA,NA,1,1,NA,0,"['3']",1.925617,NA,"",0,-1,-1,0,0,0,0,NA,NA,NA,NA,"",NA,NA
139,"2018-08-08",NA,"['num_4']",NA,"num_4",NA,NA,1,1,NA,0,"['4']",1.539124,NA,"",0,-1,-1,0,0,0,0,NA,NA,NA,NA,"",NA,NA
139,"2018-08-08",NA,"['num_4']",NA,"num_4",NA,NA,0,1,NA,0,"['1']",1.589793,NA,"",0,-1,-1,0,0,0,0,NA,NA,NA,NA,"",NA,NA
139,"2018-08-08",NA,"['num_4']",NA,"num_4",NA,NA,0,1,NA,0,"['2']",1.75731,NA,"",0,-1,-1,0,0,0,0,NA,NA,NA,NA,"",NA,NA
139,"2018-08-08",NA,"['num_4']",NA,"num_4",NA,NA,0,1,NA,0,"['3']",23.9957,NA,"",0,-1,-1,0,0,0,0,0,0,0,0,"",NA,NA
139,"2018-08-08",NA,"['num_4']",NA,"num_4",NA,NA,0,1,NA,0,"['2']",6.510921,NA,"",0,-1,-1,0,0,0,0,0,0,0,0,"",NA,NA
140,"2018-08-11",NA,"['num_4']",NA,"num_4",NA,NA,NA,NA,NA,0,"",NA,"","",0,-1,-1,NA,NA,NA,NA,NA,NA,NA,NA,"",NA,""
140,"2018-08-11",NA,"['num_4']",NA,"num_4",NA,NA,NA,NA,NA,0,"",NA,"","['1']",0,-1,-1,NA,NA,NA,NA,NA,NA,NA,NA,"",NA,""
140,"2018-08-11",NA,"['num_4']",NA,"num_4",NA,NA,NA,NA,NA,0,"",NA,"","['1']",0,-1,-1,NA,NA,NA,NA,NA,NA,NA,NA,"",NA,""
140,"2018-08-11",NA,"['num_4']",NA,"num_4",NA,NA,NA,NA,NA,0,"",NA,"","['1']",0,-1,-1,NA,NA,NA,NA,NA,NA,NA,NA,"",NA,""
140,"2018-08-11",NA,"['num_4']",NA,"num_4",NA,NA,NA,NA,NA,0,"",NA,"","['1']",0,-1,-1,NA,NA,NA,NA,NA,NA,NA,NA,"",NA,""
140,"2018-08-11",NA,"['num_4']",NA,"num_4",NA,NA,NA,NA,NA,0,"",NA,"forgot","",0,-1,-1,NA,NA,NA,NA,NA,NA,NA,NA,"return",15.70618,"forgot"
140,"2018-08-11",NA,"['num_4']",NA,"num_4",NA,NA,1,1,NA,0,"['3']",11.2182,"","",0,-1,-1,0,0,0,0,NA,NA,NA,NA,"",NA,""
140,"2018-08-11",NA,"['num_4']",NA,"num_4",NA,NA,1,1,NA,0,"['2']",6.531549,"","",0,-1,-1,0,0,0,0,NA,NA,NA,NA,"",NA,""
140,"2018-08-11",NA,"['num_4']",NA,"num_4",NA,NA,1,1,NA,0,"['4']",2.428081,"","",0,-1,-1,0,0,0,0,NA,NA,NA,NA,"",NA,""
140,"2018-08-11",NA,"['num_4']",NA,"num_4",NA,NA,1,1,NA,0,"['4']",2.058796,"","",0,-1,-1,0,0,0,0,NA,NA,NA,NA,"",NA,""
140,"2018-08-11",NA,"['num_4']",NA,"num_4",NA,NA,1,1,NA,0,"['2']",2.610615,"","",0,-1,-1,0,0,0,0,NA,NA,NA,NA,"",NA,""
140,"2018-08-11",NA,"['num_4']",NA,"num_4",NA,NA,1,1,NA,0,"['3']",1.50729,"","",0,-1,-1,0,0,0,0,NA,NA,NA,NA,"",NA,""
140,"2018-08-11",NA,"['num_4']",NA,"num_4",NA,NA,0,1,NA,0,"['3']",1.422967,"","",0,-1,-1,0,0,0,0,NA,NA,NA,NA,"",NA,""
140,"2018-08-11",NA,"['num_4']",NA,"num_4",NA,NA,0,1,NA,0,"['1']",3.984857,"","",0,-1,-1,0,0,0,0,NA,NA,NA,NA,"",NA,""
140,"2018-08-11",NA,"['num_4']",NA,"num_4",NA,NA,0,1,NA,0,"['3']",8.707531,"","",0,-1,-1,0,0,0,0,NA,NA,NA,NA,"",NA,""
140,"2018-08-11",NA,"['num_4']",NA,"num_4",NA,NA,1,1,NA,0,"['1']",8.201464,"","",0,-1,-1,0,0,0,0,0,0,0,0,"",NA,""
140,"2018-08-11",NA,"['num_4']",NA,"num_4",NA,NA,1,1,NA,0,"['3']",36.71998,"","",0,-1,-1,0,0,0,0,0,0,0,0,"",NA,""
141,"2018-07-29",NA,"['num_0']",NA,"num_0",NA,NA,NA,NA,NA,0,"",NA,"","",0,-1,-1,NA,NA,NA,NA,NA,NA,NA,NA,"",NA,""
141,"2018-07-29",NA,"['num_0']",NA,"num_0",NA,NA,NA,NA,NA,0,"",NA,"","['1']",0,-1,-1,NA,NA,NA,NA,NA,NA,NA,NA,"",NA,""
141,"2018-07-29",NA,"['num_0']",NA,"num_0",NA,NA,NA,NA,NA,0,"",NA,"","['1']",0,-1,-1,NA,NA,NA,NA,NA,NA,NA,NA,"",NA,""
141,"2018-07-29",NA,"['num_0']",NA,"num_0",NA,NA,NA,NA,NA,0,"",NA,"","['1']",0,-1,-1,NA,NA,NA,NA,NA,NA,NA,NA,"",NA,""
141,"2018-07-29",NA,"['num_0']",NA,"num_0",NA,NA,NA,NA,NA,0,"",NA,"","['1']",0,-1,-1,NA,NA,NA,NA,NA,NA,NA,NA,"",NA,""
141,"2018-07-29",NA,"['num_0']",NA,"num_0",NA,NA,NA,NA,NA,0,"",NA,"guitar","",0,-1,-1,NA,NA,NA,NA,NA,NA,NA,NA,"return",4.731818,"guitar"
141,"2018-07-29",NA,"['num_0']",NA,"num_0",NA,NA,1,1,NA,0,"['3']",5.038909,"","",0,-1,-1,0,0,0,0,NA,NA,NA,NA,"",NA,""
141,"2018-07-29",NA,"['num_0']",NA,"num_0",NA,NA,1,1,NA,0,"['2']",2.421155,"","",0,-1,-1,0,0,0,0,NA,NA,NA,NA,"",NA,""
141,"2018-07-29",NA,"['num_0']",NA,"num_0",NA,NA,1,1,NA,0,"['4']",2.595571,"","",0,-1,-1,0,0,0,0,NA,NA,NA,NA,"",NA,""
141,"2018-07-29",NA,"['num_0']",NA,"num_0",NA,NA,1,1,NA,0,"['4']",2.846751,"","",0,-1,-1,0,0,0,0,NA,NA,NA,NA,"",NA,""
141,"2018-07-29",NA,"['num_0']",NA,"num_0",NA,NA,1,1,NA,0,"['2']",3.28106,"","",0,-1,-1,0,0,0,0,NA,NA,NA,NA,"",NA,""
141,"2018-07-29",NA,"['num_0']",NA,"num_0",NA,NA,1,1,NA,0,"['3']",2.05903,"","",0,-1,-1,0,0,0,0,NA,NA,NA,NA,"",NA,""
141,"2018-07-29",NA,"['num_0']",NA,"num_0",NA,NA,1,1,NA,0,"['4']",2.645614,"","",0,-1,-1,0,0,0,0,NA,NA,NA,NA,"",NA,""
141,"2018-07-29",NA,"['num_0']",NA,"num_0",NA,NA,0,1,NA,0,"['1']",1.774938,"","",0,-1,-1,0,0,0,0,NA,NA,NA,NA,"",NA,""
141,"2018-07-29",NA,"['num_0']",NA,"num_0",NA,NA,0,1,NA,0,"['2']",3.950823,"","",0,-1,-1,0,0,0,0,NA,NA,NA,NA,"",NA,""
141,"2018-07-29",NA,"['num_0']",NA,"num_0",NA,NA,1,1,NA,0,"['1']",23.3933,"","",0,-1,-1,0,0,0,0,0,0,0,0,"",NA,""
141,"2018-07-29",NA,"['num_0']",NA,"num_0",NA,NA,0,1,NA,0,"['1']",6.37548,"","",0,-1,-1,0,0,0,0,0,0,0,0,"",NA,""
142,"2018-07-29",NA,"['num_1']",NA,"num_1",NA,NA,NA,NA,NA,0,"",NA,"","",0,-1,-1,NA,NA,NA,NA,NA,NA,NA,NA,"",NA,""
142,"2018-07-29",NA,"['num_1']",NA,"num_1",NA,NA,NA,NA,NA,0,"",NA,"","['3']",0,-1,-1,NA,NA,NA,NA,NA,NA,NA,NA,"",NA,""
142,"2018-07-29",NA,"['num_1']",NA,"num_1",NA,NA,NA,NA,NA,0,"",NA,"","['1']",0,-1,-1,NA,NA,NA,NA,NA,NA,NA,NA,"",NA,""
142,"2018-07-29",NA,"['num_1']",NA,"num_1",NA,NA,NA,NA,NA,0,"",NA,"","['1']",0,-1,-1,NA,NA,NA,NA,NA,NA,NA,NA,"",NA,""
142,"2018-07-29",NA,"['num_1']",NA,"num_1",NA,NA,NA,NA,NA,0,"",NA,"","['1']",0,-1,-1,NA,NA,NA,NA,NA,NA,NA,NA,"",NA,""
142,"2018-07-29",NA,"['num_1']",NA,"num_1",NA,NA,NA,NA,NA,0,"",NA,"piano","",0,-1,-1,NA,NA,NA,NA,NA,NA,NA,NA,"return",5.480622,"piano"
142,"2018-07-29",NA,"['num_1']",NA,"num_1",NA,NA,1,1,NA,0,"['3']",3.170456,"","",0,-1,-1,0,0,0,0,NA,NA,NA,NA,"",NA,""
142,"2018-07-29",NA,"['num_1']",NA,"num_1",NA,NA,1,1,NA,0,"['2']",4.252708,"","",0,-1,-1,0,0,0,0,NA,NA,NA,NA,"",NA,""
142,"2018-07-29",NA,"['num_1']",NA,"num_1",NA,NA,1,1,NA,0,"['4']",3.097962,"","",0,-1,-1,0,0,0,0,NA,NA,NA,NA,"",NA,""
142,"2018-07-29",NA,"['num_1']",NA,"num_1",NA,NA,0,1,NA,0,"['1']",3.416091,"","",0,-1,-1,0,0,0,0,NA,NA,NA,NA,"",NA,""
142,"2018-07-29",NA,"['num_1']",NA,"num_1",NA,NA,0,1,NA,0,"['3']",5.642201,"","",0,-1,-1,0,0,0,0,NA,NA,NA,NA,"",NA,""
142,"2018-07-29",NA,"['num_1']",NA,"num_1",NA,NA,0,1,NA,0,"['1']",4.62223,"","",0,-1,-1,0,0,0,0,NA,NA,NA,NA,"",NA,""
142,"2018-07-29",NA,"['num_1']",NA,"num_1",NA,NA,0,1,NA,0,"['2']",8.690993,"","",0,-1,-1,0,0,0,0,NA,NA,NA,NA,"",NA,""
142,"2018-07-29",NA,"['num_1']",NA,"num_1",NA,NA,0,1,NA,0,"['1']",2.845971,"","",0,-1,-1,0,0,0,0,NA,NA,NA,NA,"",NA,""
142,"2018-07-29",NA,"['num_1']",NA,"num_1",NA,NA,0,1,NA,0,"['4']",5.424845,"","",0,-1,-1,0,0,0,0,NA,NA,NA,NA,"",NA,""
142,"2018-07-29",NA,"['num_1']",NA,"num_1",NA,NA,0,1,NA,0,"['3']",16.1553,"","",0,-1,-1,0,0,0,0,0,0,0,0,"",NA,""
142,"2018-07-29",NA,"['num_1']",NA,"num_1",NA,NA,1,1,NA,0,"['3']",15.85426,"","",0,-1,-1,0,0,0,0,0,0,0,0,"",NA,""
143,"2018-06-24",NA,"['num_0']",NA,"num_0",NA,NA,NA,NA,NA,0,"",NA,"","",0,-1,-1,NA,NA,NA,NA,NA,NA,NA,NA,"",NA,""
143,"2018-06-24",NA,"['num_0']",NA,"num_0",NA,NA,NA,NA,NA,0,"",NA,"","['3']",0,-1,-1,NA,NA,NA,NA,NA,NA,NA,NA,"",NA,""
143,"2018-06-24",NA,"['num_0']",NA,"num_0",NA,NA,NA,NA,NA,0,"",NA,"","['1']",0,-1,-1,NA,NA,NA,NA,NA,NA,NA,NA,"",NA,""
143,"2018-06-24",NA,"['num_0']",NA,"num_0",NA,NA,NA,NA,NA,0,"",NA,"","['1']",0,-1,-1,NA,NA,NA,NA,NA,NA,NA,NA,"",NA,""
143,"2018-06-24",NA,"['num_0']",NA,"num_0",NA,NA,NA,NA,NA,0,"",NA,"","['1']",0,-1,-1,NA,NA,NA,NA,NA,NA,NA,NA,"",NA,""
143,"2018-06-24",NA,"['num_0']",NA,"num_0",NA,NA,NA,NA,NA,0,"",NA,"violin","",0,-1,-1,NA,NA,NA,NA,NA,NA,NA,NA,"return",4.962649,"violin"
143,"2018-06-24",NA,"['num_0']",NA,"num_0",NA,NA,0,1,NA,0,"['4']",49.4808,"","",0,-1,-1,0,0,0,0,NA,NA,NA,NA,"",NA,""
143,"2018-06-24",NA,"['num_0']",NA,"num_0",NA,NA,1,1,NA,0,"['2']",4.632411,"","",0,-1,-1,0,0,0,0,NA,NA,NA,NA,"",NA,""
143,"2018-06-24",NA,"['num_0']",NA,"num_0",NA,NA,1,1,NA,0,"['4']",2.999403,"","",0,-1,-1,0,0,0,0,NA,NA,NA,NA,"",NA,""
143,"2018-06-24",NA,"['num_0']",NA,"num_0",NA,NA,1,1,NA,0,"['4']",1.699692,"","",0,-1,-1,0,0,0,0,NA,NA,NA,NA,"",NA,""
143,"2018-06-24",NA,"['num_0']",NA,"num_0",NA,NA,1,1,NA,0,"['2']",13.39813,"","",0,-1,-1,0,0,0,0,NA,NA,NA,NA,"",NA,""
143,"2018-06-24",NA,"['num_0']",NA,"num_0",NA,NA,1,1,NA,0,"['3']",2.132739,"","",0,-1,-1,0,0,0,0,NA,NA,NA,NA,"",NA,""
143,"2018-06-24",NA,"['num_0']",NA,"num_0",NA,NA,1,1,NA,0,"['4']",1.750113,"","",0,-1,-1,0,0,0,0,NA,NA,NA,NA,"",NA,""
143,"2018-06-24",NA,"['num_0']",NA,"num_0",NA,NA,0,1,NA,0,"['1']",1.715958,"","",0,-1,-1,0,0,0,0,NA,NA,NA,NA,"",NA,""
143,"2018-06-24",NA,"['num_0']",NA,"num_0",NA,NA,0,1,NA,0,"['3']",3.582366,"","",0,-1,-1,0,0,0,0,NA,NA,NA,NA,"",NA,""
143,"2018-06-24",NA,"['num_0']",NA,"num_0",NA,NA,0,1,NA,0,"['2']",21.01122,"","",0,-1,-1,0,0,0,0,0,0,0,0,"",NA,""
143,"2018-06-24",NA,"['num_0']",NA,"num_0",NA,NA,0,1,NA,0,"['1']",10.7454,"","",0,-1,-1,0,0,0,0,0,0,0,0,"",NA,""
144,"2018-12-16",NA,"['num_0']",NA,"num_0",NA,NA,NA,NA,NA,0,"",NA,NA,"",0,-1,-1,NA,NA,NA,NA,NA,NA,NA,NA,"",NA,NA
144,"2018-12-16",NA,"['num_0']",NA,"num_0",NA,NA,NA,NA,NA,0,"",NA,NA,"['1']",0,-1,-1,NA,NA,NA,NA,NA,NA,NA,NA,"",NA,NA
144,"2018-12-16",NA,"['num_0']",NA,"num_0",NA,NA,NA,NA,NA,0,"",NA,NA,"['3']",0,-1,-1,NA,NA,NA,NA,NA,NA,NA,NA,"",NA,NA
144,"2018-12-16",NA,"['num_0']",NA,"num_0",NA,NA,NA,NA,NA,0,"",NA,NA,"['2']",0,-1,-1,NA,NA,NA,NA,NA,NA,NA,NA,"",NA,NA
144,"2018-12-16",NA,"['num_0']",NA,"num_0",NA,NA,NA,NA,NA,0,"",NA,NA,"['2']",0,-1,-1,NA,NA,NA,NA,NA,NA,NA,NA,"",NA,NA
144,"2018-12-16",NA,"['num_0']",NA,"num_0",NA,NA,NA,NA,NA,0,"",NA,NA,"",0,-1,-1,NA,NA,NA,NA,NA,NA,NA,NA,"return",1.900007,NA
144,"2018-12-16",NA,"['num_0']",NA,"num_0",NA,NA,1,1,NA,0,"['3']",6.286639,NA,"",0,-1,-1,0,0,0,0,NA,NA,NA,NA,"",NA,NA
144,"2018-12-16",NA,"['num_0']",NA,"num_0",NA,NA,0,1,NA,0,"['4']",3.868635,NA,"",0,-1,-1,0,0,0,0,NA,NA,NA,NA,"",NA,NA
144,"2018-12-16",NA,"['num_0']",NA,"num_0",NA,NA,0,1,NA,0,"['1']",4.421611,NA,"",0,-1,-1,0,0,0,0,NA,NA,NA,NA,"",NA,NA
144,"2018-12-16",NA,"['num_0']",NA,"num_0",NA,NA,0,1,NA,0,"['2']",3.985128,NA,"",0,-1,-1,0,0,0,0,NA,NA,NA,NA,"",NA,NA
144,"2018-12-16",NA,"['num_0']",NA,"num_0",NA,NA,0,1,NA,0,"['4']",4.001896,NA,"",0,-1,-1,0,0,0,0,NA,NA,NA,NA,"",NA,NA
144,"2018-12-16",NA,"['num_0']",NA,"num_0",NA,NA,1,1,NA,0,"['3']",5.541614,NA,"",0,-1,-1,0,0,0,0,NA,NA,NA,NA,"",NA,NA
144,"2018-12-16",NA,"['num_0']",NA,"num_0",NA,NA,1,1,NA,0,"['4']",4.084012,NA,"",0,-1,-1,0,0,0,0,NA,NA,NA,NA,"",NA,NA
144,"2018-12-16",NA,"['num_0']",NA,"num_0",NA,NA,0,1,NA,0,"['1']",3.249036,NA,"",0,-1,-1,0,0,0,0,NA,NA,NA,NA,"",NA,NA
144,"2018-12-16",NA,"['num_0']",NA,"num_0",NA,NA,0,1,NA,0,"['2']",3.298872,NA,"",0,-1,-1,0,0,0,0,NA,NA,NA,NA,"",NA,NA
144,"2018-12-16",NA,"['num_0']",NA,"num_0",NA,NA,0,1,NA,0,"['3']",15.26076,NA,"",0,-1,-1,0,0,0,0,0,0,0,0,"",NA,NA
144,"2018-12-16",NA,"['num_0']",NA,"num_0",NA,NA,1,1,NA,0,"['3']",4.181636,NA,"",0,-1,-1,0,0,0,0,0,0,0,0,"",NA,NA
145,"2018-12-16",NA,"['num_4']",NA,"num_4",NA,NA,NA,NA,NA,0,"",NA,"","",0,-1,-1,NA,NA,NA,NA,NA,NA,NA,NA,"",NA,""
145,"2018-12-16",NA,"['num_4']",NA,"num_4",NA,NA,NA,NA,NA,0,"",NA,"","['1']",0,-1,-1,NA,NA,NA,NA,NA,NA,NA,NA,"",NA,""
145,"2018-12-16",NA,"['num_4']",NA,"num_4",NA,NA,NA,NA,NA,0,"",NA,"","['1']",0,-1,-1,NA,NA,NA,NA,NA,NA,NA,NA,"",NA,""
145,"2018-12-16",NA,"['num_4']",NA,"num_4",NA,NA,NA,NA,NA,0,"",NA,"","['1']",0,-1,-1,NA,NA,NA,NA,NA,NA,NA,NA,"",NA,""
145,"2018-12-16",NA,"['num_4']",NA,"num_4",NA,NA,NA,NA,NA,0,"",NA,"","['1']",0,-1,-1,NA,NA,NA,NA,NA,NA,NA,NA,"",NA,""
145,"2018-12-16",NA,"['num_4']",NA,"num_4",NA,NA,NA,NA,NA,0,"",NA,"cello,recorder","",0,-1,-1,NA,NA,NA,NA,NA,NA,NA,NA,"return",23.6663,"cello,recorder"
145,"2018-12-16",NA,"['num_4']",NA,"num_4",NA,NA,1,1,NA,0,"['3']",11.44962,"","",0,-1,-1,0,0,0,0,NA,NA,NA,NA,"",NA,""
145,"2018-12-16",NA,"['num_4']",NA,"num_4",NA,NA,1,1,NA,0,"['2']",3.935122,"","",0,-1,-1,0,0,0,0,NA,NA,NA,NA,"",NA,""
145,"2018-12-16",NA,"['num_4']",NA,"num_4",NA,NA,1,1,NA,0,"['4']",3.199147,"","",0,-1,-1,0,0,0,0,NA,NA,NA,NA,"",NA,""
145,"2018-12-16",NA,"['num_4']",NA,"num_4",NA,NA,1,1,NA,0,"['4']",2.777959,"","",0,-1,-1,0,0,0,0,NA,NA,NA,NA,"",NA,""
145,"2018-12-16",NA,"['num_4']",NA,"num_4",NA,NA,0,1,NA,0,"['1']",2.44515,"","",0,-1,-1,0,0,0,0,NA,NA,NA,NA,"",NA,""
145,"2018-12-16",NA,"['num_4']",NA,"num_4",NA,NA,1,1,NA,0,"['3']",2.945636,"","",0,-1,-1,0,0,0,0,NA,NA,NA,NA,"",NA,""
145,"2018-12-16",NA,"['num_4']",NA,"num_4",NA,NA,1,1,NA,0,"['4']",1.892903,"","",0,-1,-1,0,0,0,0,NA,NA,NA,NA,"",NA,""
145,"2018-12-16",NA,"['num_4']",NA,"num_4",NA,NA,0,1,NA,0,"['1']",1.589608,"","",0,-1,-1,0,0,0,0,NA,NA,NA,NA,"",NA,""
145,"2018-12-16",NA,"['num_4']",NA,"num_4",NA,NA,0,1,NA,0,"['3']",2.40958,"","",0,-1,-1,0,0,0,0,NA,NA,NA,NA,"",NA,""
145,"2018-12-16",NA,"['num_4']",NA,"num_4",NA,NA,1,1,NA,0,"['1']",36.09895,"","",0,-1,-1,0,0,0,0,0,0,0,0,"",NA,""
145,"2018-12-16",NA,"['num_4']",NA,"num_4",NA,NA,1,1,NA,0,"['3']",10.94841,"","",0,-1,-1,0,0,0,0,0,0,0,0,"",NA,""
146,"2018-06-23",NA,"['num_0']",NA,"num_0",NA,NA,NA,NA,NA,0,"",NA,NA,"",0,-1,-1,NA,NA,NA,NA,NA,NA,NA,NA,"",NA,NA
146,"2018-06-23",NA,"['num_0']",NA,"num_0",NA,NA,NA,NA,NA,0,"",NA,NA,"['2']",0,-1,-1,NA,NA,NA,NA,NA,NA,NA,NA,"",NA,NA
146,"2018-06-23",NA,"['num_0']",NA,"num_0",NA,NA,NA,NA,NA,0,"",NA,NA,"['1']",0,-1,-1,NA,NA,NA,NA,NA,NA,NA,NA,"",NA,NA
146,"2018-06-23",NA,"['num_0']",NA,"num_0",NA,NA,NA,NA,NA,0,"",NA,NA,"['1']",0,-1,-1,NA,NA,NA,NA,NA,NA,NA,NA,"",NA,NA
146,"2018-06-23",NA,"['num_0']",NA,"num_0",NA,NA,NA,NA,NA,0,"",NA,NA,"['2']",0,-1,-1,NA,NA,NA,NA,NA,NA,NA,NA,"",NA,NA
146,"2018-06-23",NA,"['num_0']",NA,"num_0",NA,NA,NA,NA,NA,0,"",NA,NA,"",0,-1,-1,NA,NA,NA,NA,NA,NA,NA,NA,"return",1.908455,NA
146,"2018-06-23",NA,"['num_0']",NA,"num_0",NA,NA,1,1,NA,0,"['3']",4.863198,NA,"",0,-1,-1,0,0,0,0,NA,NA,NA,NA,"",NA,NA
146,"2018-06-23",NA,"['num_0']",NA,"num_0",NA,NA,0,1,NA,0,"['3']",4.269853,NA,"",0,-1,-1,0,0,0,0,NA,NA,NA,NA,"",NA,NA
146,"2018-06-23",NA,"['num_0']",NA,"num_0",NA,NA,1,1,NA,0,"['4']",2.712924,NA,"",0,-1,-1,0,0,0,0,NA,NA,NA,NA,"",NA,NA
146,"2018-06-23",NA,"['num_0']",NA,"num_0",NA,NA,0,1,NA,0,"['2']",1.942607,NA,"",0,-1,-1,0,0,0,0,NA,NA,NA,NA,"",NA,NA
146,"2018-06-23",NA,"['num_0']",NA,"num_0",NA,NA,0,1,NA,0,"['4']",2.192681,NA,"",0,-1,-1,0,0,0,0,NA,NA,NA,NA,"",NA,NA
146,"2018-06-23",NA,"['num_0']",NA,"num_0",NA,NA,0,1,NA,0,"['1']",2.041804,NA,"",0,-1,-1,0,0,0,0,NA,NA,NA,NA,"",NA,NA
146,"2018-06-23",NA,"['num_0']",NA,"num_0",NA,NA,0,1,NA,0,"['3']",2.643462,NA,"",0,-1,-1,0,0,0,0,NA,NA,NA,NA,"",NA,NA
146,"2018-06-23",NA,"['num_0']",NA,"num_0",NA,NA,0,1,NA,0,"['1']",2.210561,NA,"",0,-1,-1,0,0,0,0,NA,NA,NA,NA,"",NA,NA
146,"2018-06-23",NA,"['num_0']",NA,"num_0",NA,NA,0,1,NA,0,"['2']",1.572819,NA,"",0,-1,-1,0,0,0,0,NA,NA,NA,NA,"",NA,NA
146,"2018-06-23",NA,"['num_0']",NA,"num_0",NA,NA,0,1,NA,0,"['2']",15.30479,NA,"",0,-1,-1,0,0,0,0,0,0,0,0,"",NA,NA
146,"2018-06-23",NA,"['num_0']",NA,"num_0",NA,NA,1,1,NA,0,"['3']",7.463892,NA,"",0,-1,-1,0,0,0,0,0,0,0,0,"",NA,NA
147,"2019-04-28",NA,"['num_1']",NA,"num_1",NA,NA,NA,NA,NA,0,"",NA,"","",0,-1,-1,NA,NA,NA,NA,NA,NA,NA,NA,"",NA,""
147,"2019-04-28",NA,"['num_1']",NA,"num_1",NA,NA,NA,NA,NA,0,"",NA,"","['1']",0,-1,-1,NA,NA,NA,NA,NA,NA,NA,NA,"",NA,""
147,"2019-04-28",NA,"['num_1']",NA,"num_1",NA,NA,NA,NA,NA,0,"",NA,"","['1']",0,-1,-1,NA,NA,NA,NA,NA,NA,NA,NA,"",NA,""
147,"2019-04-28",NA,"['num_1']",NA,"num_1",NA,NA,NA,NA,NA,0,"",NA,"","['1']",0,-1,-1,NA,NA,NA,NA,NA,NA,NA,NA,"",NA,""
147,"2019-04-28",NA,"['num_1']",NA,"num_1",NA,NA,NA,NA,NA,0,"",NA,"","['1']",0,-1,-1,NA,NA,NA,NA,NA,NA,NA,NA,"",NA,""
147,"2019-04-28",NA,"['num_1']",NA,"num_1",NA,NA,NA,NA,NA,0,"",NA,"piano","",0,-1,-1,NA,NA,NA,NA,NA,NA,NA,NA,"return",2.844403,"piano"
147,"2019-04-28",NA,"['num_1']",NA,"num_1",NA,NA,1,1,NA,0,"['3']",2.942617,"","",0,-1,-1,0,0,0,0,NA,NA,NA,NA,"",NA,""
147,"2019-04-28",NA,"['num_1']",NA,"num_1",NA,NA,1,1,NA,0,"['2']",2.243877,"","",0,-1,-1,0,0,0,0,NA,NA,NA,NA,"",NA,""
147,"2019-04-28",NA,"['num_1']",NA,"num_1",NA,NA,1,1,NA,0,"['4']",2.376949,"","",0,-1,-1,0,0,0,0,NA,NA,NA,NA,"",NA,""
147,"2019-04-28",NA,"['num_1']",NA,"num_1",NA,NA,1,1,NA,0,"['4']",0.82007,"","",0,-1,-1,0,0,0,0,NA,NA,NA,NA,"",NA,""
147,"2019-04-28",NA,"['num_1']",NA,"num_1",NA,NA,1,1,NA,0,"['2']",1.155035,"","",0,-1,-1,0,0,0,0,NA,NA,NA,NA,"",NA,""
147,"2019-04-28",NA,"['num_1']",NA,"num_1",NA,NA,1,1,NA,0,"['3']",0.8541081,"","",0,-1,-1,0,0,0,0,NA,NA,NA,NA,"",NA,""
147,"2019-04-28",NA,"['num_1']",NA,"num_1",NA,NA,1,1,NA,0,"['4']",0.7526994,"","",0,-1,-1,0,0,0,0,NA,NA,NA,NA,"",NA,""
147,"2019-04-28",NA,"['num_1']",NA,"num_1",NA,NA,0,1,NA,0,"['1']",0.9042766,"","",0,-1,-1,0,0,0,0,NA,NA,NA,NA,"",NA,""
147,"2019-04-28",NA,"['num_1']",NA,"num_1",NA,NA,0,1,NA,0,"['2']",1.573184,"","",0,-1,-1,0,0,0,0,NA,NA,NA,NA,"",NA,""
147,"2019-04-28",NA,"['num_1']",NA,"num_1",NA,NA,1,1,NA,0,"['1']",16.20308,"","",0,-1,-1,0,0,0,0,0,0,0,0,"",NA,""
147,"2019-04-28",NA,"['num_1']",NA,"num_1",NA,NA,1,1,NA,0,"['3']",9.292045,"","",0,-1,-1,0,0,0,0,0,0,0,0,"",NA,""
148,"2019-01-26",NA,"['num_0']",NA,"num_0",NA,NA,NA,NA,NA,0,"",NA,"","",0,-1,-1,NA,NA,NA,NA,NA,NA,NA,NA,"",NA,""
148,"2019-01-26",NA,"['num_0']",NA,"num_0",NA,NA,NA,NA,NA,0,"",NA,"","['1']",0,-1,-1,NA,NA,NA,NA,NA,NA,NA,NA,"",NA,""
148,"2019-01-26",NA,"['num_0']",NA,"num_0",NA,NA,NA,NA,NA,0,"",NA,"","['1']",0,-1,-1,NA,NA,NA,NA,NA,NA,NA,NA,"",NA,""
148,"2019-01-26",NA,"['num_0']",NA,"num_0",NA,NA,NA,NA,NA,0,"",NA,"","['1']",0,-1,-1,NA,NA,NA,NA,NA,NA,NA,NA,"",NA,""
148,"2019-01-26",NA,"['num_0']",NA,"num_0",NA,NA,NA,NA,NA,0,"",NA,"","['2']",0,-1,-1,NA,NA,NA,NA,NA,NA,NA,NA,"",NA,""
148,"2019-01-26",NA,"['num_0']",NA,"num_0",NA,NA,NA,NA,NA,0,"",NA,"none 1back back   ","",0,-1,-1,NA,NA,NA,NA,NA,NA,NA,NA,"return",33.95944,"none 1back back   "
148,"2019-01-26",NA,"['num_0']",NA,"num_0",NA,NA,0,1,NA,0,"['4']",7.421189,"","",0,-1,-1,0,0,0,0,NA,NA,NA,NA,"",NA,""
148,"2019-01-26",NA,"['num_0']",NA,"num_0",NA,NA,1,1,NA,0,"['2']",3.91906,"","",0,-1,-1,0,0,0,0,NA,NA,NA,NA,"",NA,""
148,"2019-01-26",NA,"['num_0']",NA,"num_0",NA,NA,1,1,NA,0,"['4']",3.564517,"","",0,-1,-1,0,0,0,0,NA,NA,NA,NA,"",NA,""
148,"2019-01-26",NA,"['num_0']",NA,"num_0",NA,NA,0,1,NA,0,"['1']",2.377281,"","",0,-1,-1,0,0,0,0,NA,NA,NA,NA,"",NA,""
148,"2019-01-26",NA,"['num_0']",NA,"num_0",NA,NA,0,1,NA,0,"['1']",3.617155,"","",0,-1,-1,0,0,0,0,NA,NA,NA,NA,"",NA,""
148,"2019-01-26",NA,"['num_0']",NA,"num_0",NA,NA,1,1,NA,0,"['3']",2.897207,"","",0,-1,-1,0,0,0,0,NA,NA,NA,NA,"",NA,""
148,"2019-01-26",NA,"['num_0']",NA,"num_0",NA,NA,1,1,NA,0,"['4']",2.878856,"","",0,-1,-1,0,0,0,0,NA,NA,NA,NA,"",NA,""
148,"2019-01-26",NA,"['num_0']",NA,"num_0",NA,NA,0,1,NA,0,"['4']",4.454922,"","",0,-1,-1,0,0,0,0,NA,NA,NA,NA,"",NA,""
148,"2019-01-26",NA,"['num_0']",NA,"num_0",NA,NA,0,1,NA,0,"['3']",2.997937,"","",0,-1,-1,0,0,0,0,NA,NA,NA,NA,"",NA,""
148,"2019-01-26",NA,"['num_0']",NA,"num_0",NA,NA,1,1,NA,0,"['1']",25.31203,"","",0,-1,-1,0,0,0,0,0,0,0,0,"",NA,""
148,"2019-01-26",NA,"['num_0']",NA,"num_0",NA,NA,0,1,NA,0,"['2']",13.34317,"","",0,-1,-1,0,0,0,0,0,0,0,0,"",NA,""
149,"2019-01-27",NA,"['num_7']",NA,"num_7",NA,NA,NA,NA,NA,0,"",NA,NA,"",0,-1,-1,NA,NA,NA,NA,NA,NA,NA,NA,"",NA,NA
149,"2019-01-27",NA,"['num_7']",NA,"num_7",NA,NA,NA,NA,NA,0,"",NA,NA,"['1']",0,-1,-1,NA,NA,NA,NA,NA,NA,NA,NA,"",NA,NA
149,"2019-01-27",NA,"['num_7']",NA,"num_7",NA,NA,NA,NA,NA,0,"",NA,NA,"['1']",0,-1,-1,NA,NA,NA,NA,NA,NA,NA,NA,"",NA,NA
149,"2019-01-27",NA,"['num_7']",NA,"num_7",NA,NA,NA,NA,NA,0,"",NA,NA,"['1']",0,-1,-1,NA,NA,NA,NA,NA,NA,NA,NA,"",NA,NA
149,"2019-01-27",NA,"['num_7']",NA,"num_7",NA,NA,NA,NA,NA,0,"",NA,NA,"['2']",0,-1,-1,NA,NA,NA,NA,NA,NA,NA,NA,"",NA,NA
149,"2019-01-27",NA,"['num_7']",NA,"num_7",NA,NA,NA,NA,NA,0,"",NA,NA,"",0,-1,-1,NA,NA,NA,NA,NA,NA,NA,NA,"return",1.522609,NA
149,"2019-01-27",NA,"['num_7']",NA,"num_7",NA,NA,1,1,NA,0,"['3']",6.382799,NA,"",0,-1,-1,0,0,0,0,NA,NA,NA,NA,"",NA,NA
149,"2019-01-27",NA,"['num_7']",NA,"num_7",NA,NA,1,1,NA,0,"['2']",4.136807,NA,"",0,-1,-1,0,0,0,0,NA,NA,NA,NA,"",NA,NA
149,"2019-01-27",NA,"['num_7']",NA,"num_7",NA,NA,1,1,NA,0,"['4']",1.875032,NA,"",0,-1,-1,0,0,0,0,NA,NA,NA,NA,"",NA,NA
149,"2019-01-27",NA,"['num_7']",NA,"num_7",NA,NA,0,1,NA,0,"['1']",2.310312,NA,"",0,-1,-1,0,0,0,0,NA,NA,NA,NA,"",NA,NA
149,"2019-01-27",NA,"['num_7']",NA,"num_7",NA,NA,1,1,NA,0,"['2']",2.060071,NA,"",0,-1,-1,0,0,0,0,NA,NA,NA,NA,"",NA,NA
149,"2019-01-27",NA,"['num_7']",NA,"num_7",NA,NA,0,1,NA,0,"['4']",2.359965,NA,"",0,-1,-1,0,0,0,0,NA,NA,NA,NA,"",NA,NA
149,"2019-01-27",NA,"['num_7']",NA,"num_7",NA,NA,1,1,NA,0,"['4']",1.907743,NA,"",0,-1,-1,0,0,0,0,NA,NA,NA,NA,"",NA,NA
149,"2019-01-27",NA,"['num_7']",NA,"num_7",NA,NA,0,1,NA,0,"['1']",2.310514,NA,"",0,-1,-1,0,0,0,0,NA,NA,NA,NA,"",NA,NA
149,"2019-01-27",NA,"['num_7']",NA,"num_7",NA,NA,0,1,NA,0,"['3']",2.15964,NA,"",0,-1,-1,0,0,0,0,NA,NA,NA,NA,"",NA,NA
149,"2019-01-27",NA,"['num_7']",NA,"num_7",NA,NA,0,1,NA,0,"['3']",18.6935,NA,"",0,-1,-1,0,0,0,0,0,0,0,0,"",NA,NA
149,"2019-01-27",NA,"['num_7']",NA,"num_7",NA,NA,0,1,NA,0,"['1']",8.703778,NA,"",0,-1,-1,0,0,0,0,0,0,0,0,"",NA,NA
150,"2019-02-22",NA,"['num_7']",NA,"num_7",NA,NA,NA,NA,NA,0,"",NA,"","",0,-1,-1,NA,NA,NA,NA,NA,NA,NA,NA,"",NA,""
150,"2019-02-22",NA,"['num_7']",NA,"num_7",NA,NA,NA,NA,NA,0,"",NA,"","['2']",0,-1,-1,NA,NA,NA,NA,NA,NA,NA,NA,"",NA,""
150,"2019-02-22",NA,"['num_7']",NA,"num_7",NA,NA,NA,NA,NA,0,"",NA,"","['1']",0,-1,-1,NA,NA,NA,NA,NA,NA,NA,NA,"",NA,""
150,"2019-02-22",NA,"['num_7']",NA,"num_7",NA,NA,NA,NA,NA,0,"",NA,"","['1']",0,-1,-1,NA,NA,NA,NA,NA,NA,NA,NA,"",NA,""
150,"2019-02-22",NA,"['num_7']",NA,"num_7",NA,NA,NA,NA,NA,0,"",NA,"","['1']",0,-1,-1,NA,NA,NA,NA,NA,NA,NA,NA,"",NA,""
150,"2019-02-22",NA,"['num_7']",NA,"num_7",NA,NA,NA,NA,NA,0,"",NA,"opiano","",0,-1,-1,NA,NA,NA,NA,NA,NA,NA,NA,"return",6.342656,"opiano"
150,"2019-02-22",NA,"['num_7']",NA,"num_7",NA,NA,1,1,NA,0,"['3']",3.884325,"","",0,-1,-1,0,0,0,0,NA,NA,NA,NA,"",NA,""
150,"2019-02-22",NA,"['num_7']",NA,"num_7",NA,NA,1,1,NA,0,"['2']",3.381684,"","",0,-1,-1,0,0,0,0,NA,NA,NA,NA,"",NA,""
150,"2019-02-22",NA,"['num_7']",NA,"num_7",NA,NA,1,1,NA,0,"['4']",6.364253,"","",0,-1,-1,0,0,0,0,NA,NA,NA,NA,"",NA,""
150,"2019-02-22",NA,"['num_7']",NA,"num_7",NA,NA,0,1,NA,0,"['1']",3.701,"","",0,-1,-1,0,0,0,0,NA,NA,NA,NA,"",NA,""
150,"2019-02-22",NA,"['num_7']",NA,"num_7",NA,NA,1,1,NA,0,"['2']",4.638198,"","",0,-1,-1,0,0,0,0,NA,NA,NA,NA,"",NA,""
150,"2019-02-22",NA,"['num_7']",NA,"num_7",NA,NA,1,1,NA,0,"['3']",6.211183,"","",0,-1,-1,0,0,0,0,NA,NA,NA,NA,"",NA,""
150,"2019-02-22",NA,"['num_7']",NA,"num_7",NA,NA,0,1,NA,0,"['1']",2.562001,"","",0,-1,-1,0,0,0,0,NA,NA,NA,NA,"",NA,""
150,"2019-02-22",NA,"['num_7']",NA,"num_7",NA,NA,0,1,NA,0,"['1']",3.214017,"","",0,-1,-1,0,0,0,0,NA,NA,NA,NA,"",NA,""
150,"2019-02-22",NA,"['num_7']",NA,"num_7",NA,NA,0,1,NA,0,"['3']",3.868031,"","",0,-1,-1,0,0,0,0,NA,NA,NA,NA,"",NA,""
150,"2019-02-22",NA,"['num_7']",NA,"num_7",NA,NA,0,1,NA,0,"['3']",76.74225,"","",0,-1,-1,0,0,0,0,0,0,0,0,"",NA,""
150,"2019-02-22",NA,"['num_7']",NA,"num_7",NA,NA,1,1,NA,0,"['3']",29.83432,"","",0,-1,-1,0,0,0,0,0,0,0,0,"",NA,""
151,"2019-05-17",NA,"['num_4']",NA,"num_4",NA,NA,NA,NA,NA,0,"",NA,NA,"",0,-1,-1,NA,NA,NA,NA,NA,NA,NA,NA,"",NA,NA
151,"2019-05-17",NA,"['num_4']",NA,"num_4",NA,NA,NA,NA,NA,0,"",NA,NA,"['1']",0,-1,-1,NA,NA,NA,NA,NA,NA,NA,NA,"",NA,NA
151,"2019-05-17",NA,"['num_4']",NA,"num_4",NA,NA,NA,NA,NA,0,"",NA,NA,"['1']",0,-1,-1,NA,NA,NA,NA,NA,NA,NA,NA,"",NA,NA
151,"2019-05-17",NA,"['num_4']",NA,"num_4",NA,NA,NA,NA,NA,0,"",NA,NA,"['2']",0,-1,-1,NA,NA,NA,NA,NA,NA,NA,NA,"",NA,NA
151,"2019-05-17",NA,"['num_4']",NA,"num_4",NA,NA,NA,NA,NA,0,"",NA,NA,"['2']",0,-1,-1,NA,NA,NA,NA,NA,NA,NA,NA,"",NA,NA
151,"2019-05-17",NA,"['num_4']",NA,"num_4",NA,NA,NA,NA,NA,0,"",NA,NA,"",0,-1,-1,NA,NA,NA,NA,NA,NA,NA,NA,"return",0.8012256,NA
151,"2019-05-17",NA,"['num_4']",NA,"num_4",NA,NA,1,1,NA,0,"['3']",4.965033,NA,"",0,-1,-1,0,0,0,0,NA,NA,NA,NA,"",NA,NA
151,"2019-05-17",NA,"['num_4']",NA,"num_4",NA,NA,1,1,NA,0,"['2']",2.4284,NA,"",0,-1,-1,0,0,0,0,NA,NA,NA,NA,"",NA,NA
151,"2019-05-17",NA,"['num_4']",NA,"num_4",NA,NA,1,1,NA,0,"['4']",1.423583,NA,"",0,-1,-1,0,0,0,0,NA,NA,NA,NA,"",NA,NA
151,"2019-05-17",NA,"['num_4']",NA,"num_4",NA,NA,1,1,NA,0,"['4']",0.8865556,NA,"",0,-1,-1,0,0,0,0,NA,NA,NA,NA,"",NA,NA
151,"2019-05-17",NA,"['num_4']",NA,"num_4",NA,NA,1,1,NA,0,"['2']",2.596006,NA,"",0,-1,-1,0,0,0,0,NA,NA,NA,NA,"",NA,NA
151,"2019-05-17",NA,"['num_4']",NA,"num_4",NA,NA,1,1,NA,0,"['3']",1.305452,NA,"",0,-1,-1,0,0,0,0,NA,NA,NA,NA,"",NA,NA
151,"2019-05-17",NA,"['num_4']",NA,"num_4",NA,NA,1,1,NA,0,"['4']",2.947594,NA,"",0,-1,-1,0,0,0,0,NA,NA,NA,NA,"",NA,NA
151,"2019-05-17",NA,"['num_4']",NA,"num_4",NA,NA,0,1,NA,0,"['1']",2.459455,NA,"",0,-1,-1,0,0,0,0,NA,NA,NA,NA,"",NA,NA
151,"2019-05-17",NA,"['num_4']",NA,"num_4",NA,NA,0,1,NA,0,"['3']",6.178591,NA,"",0,-1,-1,0,0,0,0,NA,NA,NA,NA,"",NA,NA
151,"2019-05-17",NA,"['num_4']",NA,"num_4",NA,NA,0,1,NA,0,"['2']",16.62701,NA,"",0,-1,-1,0,0,0,0,0,0,0,0,"",NA,NA
151,"2019-05-17",NA,"['num_4']",NA,"num_4",NA,NA,0,1,NA,0,"['2']",9.340321,NA,"",0,-1,-1,0,0,0,0,0,0,0,0,"",NA,NA
152,"2018-11-17",NA,"['num_7']",NA,"num_7",NA,NA,NA,NA,NA,0,"",NA,"","",0,-1,-1,NA,NA,NA,NA,NA,NA,NA,NA,"",NA,""
152,"2018-11-17",NA,"['num_7']",NA,"num_7",NA,NA,NA,NA,NA,0,"",NA,"","['1']",0,-1,-1,NA,NA,NA,NA,NA,NA,NA,NA,"",NA,""
152,"2018-11-17",NA,"['num_7']",NA,"num_7",NA,NA,NA,NA,NA,0,"",NA,"","['3']",0,-1,-1,NA,NA,NA,NA,NA,NA,NA,NA,"",NA,""
152,"2018-11-17",NA,"['num_7']",NA,"num_7",NA,NA,NA,NA,NA,0,"",NA,"","['1']",0,-1,-1,NA,NA,NA,NA,NA,NA,NA,NA,"",NA,""
152,"2018-11-17",NA,"['num_7']",NA,"num_7",NA,NA,NA,NA,NA,0,"",NA,"","['1']",0,-1,-1,NA,NA,NA,NA,NA,NA,NA,NA,"",NA,""
152,"2018-11-17",NA,"['num_7']",NA,"num_7",NA,NA,NA,NA,NA,0,"",NA,"piano","",0,-1,-1,NA,NA,NA,NA,NA,NA,NA,NA,"return",5.595174,"piano"
152,"2018-11-17",NA,"['num_7']",NA,"num_7",NA,NA,1,1,NA,0,"['3']",3.909745,"","",0,-1,-1,0,0,0,0,NA,NA,NA,NA,"",NA,""
152,"2018-11-17",NA,"['num_7']",NA,"num_7",NA,NA,1,1,NA,0,"['2']",3.082686,"","",0,-1,-1,0,0,0,0,NA,NA,NA,NA,"",NA,""
152,"2018-11-17",NA,"['num_7']",NA,"num_7",NA,NA,1,1,NA,0,"['4']",2.360978,"","",0,-1,-1,0,0,0,0,NA,NA,NA,NA,"",NA,""
152,"2018-11-17",NA,"['num_7']",NA,"num_7",NA,NA,0,1,NA,0,"['1']",2.426428,"","",0,-1,-1,0,0,0,0,NA,NA,NA,NA,"",NA,""
152,"2018-11-17",NA,"['num_7']",NA,"num_7",NA,NA,1,1,NA,0,"['2']",2.059536,"","",0,-1,-1,0,0,0,0,NA,NA,NA,NA,"",NA,""
152,"2018-11-17",NA,"['num_7']",NA,"num_7",NA,NA,0,1,NA,0,"['4']",2.812955,"","",0,-1,-1,0,0,0,0,NA,NA,NA,NA,"",NA,""
152,"2018-11-17",NA,"['num_7']",NA,"num_7",NA,NA,0,1,NA,0,"['1']",2.17563,"","",0,-1,-1,0,0,0,0,NA,NA,NA,NA,"",NA,""
152,"2018-11-17",NA,"['num_7']",NA,"num_7",NA,NA,0,1,NA,0,"['1']",2.545258,"","",0,-1,-1,0,0,0,0,NA,NA,NA,NA,"",NA,""
152,"2018-11-17",NA,"['num_7']",NA,"num_7",NA,NA,0,1,NA,0,"['3']",1.774075,"","",0,-1,-1,0,0,0,0,NA,NA,NA,NA,"",NA,""
152,"2018-11-17",NA,"['num_7']",NA,"num_7",NA,NA,1,1,NA,0,"['1']",15.32273,"","",0,-1,-1,0,0,0,0,0,0,0,0,"",NA,""
152,"2018-11-17",NA,"['num_7']",NA,"num_7",NA,NA,1,1,NA,0,"['3']",8.401017,"","",0,-1,-1,0,0,0,0,0,0,0,0,"",NA,""
153,"2018-07-30",NA,"['num_4']",NA,"num_4",NA,NA,NA,NA,NA,0,"",NA,"","",0,-1,-1,NA,NA,NA,NA,NA,NA,NA,NA,"",NA,""
