randomPaw,allowableKey,correctKey,blank,pawPatrol1,pawPatrol2,pawPatrol3,pawPatrol4,trials.thisRepN,trials.thisTrialN,trials.thisN,trials.thisIndex,trials_2.thisRepN,trials_2.thisTrialN,trials_2.thisN,trials_2.thisIndex,trials_3.thisRepN,trials_3.thisTrialN,trials_3.thisN,trials_3.thisIndex,trials_4.thisRepN,trials_4.thisTrialN,trials_4.thisN,trials_4.thisIndex,trialCorrect,key_resp_9.keys,key_resp_9.corr,key_resp_9.rt,date,frameRate,expName,session,participant,
min2.png,"['2', '1', '3', '4']",['2'],allBlank.png,,,,,,,,,0,0,0,1,,,,,,,,,1,['2'],0,[0.567986011505127],2018_Feb_21_1545,59.9110968907,sequenceLearningTask,001,001,
min1.png,"['2', '1', '3', '4']",['1'],allBlank.png,,,,,,,,,0,1,1,0,,,,,,,,,1,['1'],0,[0.48395705223083496],2018_Feb_21_1545,59.9110968907,sequenceLearningTask,001,001,
min3.png,"['2', '1', '3', '4']",['3'],allBlank.png,,,,,,,,,0,2,2,2,,,,,,,,,1,['3'],0,[0.3008289337158203],2018_Feb_21_1545,59.9110968907,sequenceLearningTask,001,001,
min4.png,"['2', '1', '3', '4']",['4'],allBlank.png,,,,,,,,,0,3,3,3,,,,,,,,,1,['4'],0,[0.3252270221710205],2018_Feb_21_1545,59.9110968907,sequenceLearningTask,001,001,
min1.png,"['2', '1', '3', '4']",['1'],allBlank.png,,,,,,,,,1,0,4,0,,,,,,,,,1,['1'],0,[0.4094240665435791],2018_Feb_21_1545,59.9110968907,sequenceLearningTask,001,001,
min2.png,"['2', '1', '3', '4']",['2'],allBlank.png,,,,,,,,,1,1,5,1,,,,,,,,,1,['2'],0,[0.390078067779541],2018_Feb_21_1545,59.9110968907,sequenceLearningTask,001,001,
min3.png,"['2', '1', '3', '4']",['3'],allBlank.png,,,,,,,,,1,2,6,2,,,,,,,,,1,['3'],0,[0.2611520290374756],2018_Feb_21_1545,59.9110968907,sequenceLearningTask,001,001,
min4.png,"['2', '1', '3', '4']",['4'],allBlank.png,,,,,,,,,1,3,7,3,,,,,,,,,1,['4'],0,[0.2603888511657715],2018_Feb_21_1545,59.9110968907,sequenceLearningTask,001,001,
min1.png,"['2', '1', '3', '4']",['1'],allBlank.png,,,,,,,,,2,0,8,0,,,,,,,,,1,['1'],0,[0.34371209144592285],2018_Feb_21_1545,59.9110968907,sequenceLearningTask,001,001,
min3.png,"['2', '1', '3', '4']",['3'],allBlank.png,,,,,,,,,2,1,9,2,,,,,,,,,1,['3'],0,[0.2605559825897217],2018_Feb_21_1545,59.9110968907,sequenceLearningTask,001,001,
min2.png,"['2', '1', '3', '4']",['2'],allBlank.png,,,,,,,,,2,2,10,1,,,,,,,,,1,['2'],0,[0.210252046585083],2018_Feb_21_1545,59.9110968907,sequenceLearningTask,001,001,
min4.png,"['2', '1', '3', '4']",['4'],allBlank.png,,,,,,,,,2,3,11,3,,,,,,,,,1,['4'],0,[0.1615440845489502],2018_Feb_21_1545,59.9110968907,sequenceLearningTask,001,001,
min3.png,"['2', '1', '3', '4']",['3'],allBlank.png,,,,,,,,,3,0,12,2,,,,,,,,,0,"['2', '3']",0,"[0.3441658020019531, 0.6785387992858887]",2018_Feb_21_1545,59.9110968907,sequenceLearningTask,001,001,
min2.png,"['2', '1', '3', '4']",['2'],allBlank.png,,,,,,,,,3,1,13,1,,,,,,,,,1,['2'],0,[0.24632000923156738],2018_Feb_21_1545,59.9110968907,sequenceLearningTask,001,001,
min1.png,"['2', '1', '3', '4']",['1'],allBlank.png,,,,,,,,,3,2,14,0,,,,,,,,,1,['1'],0,[0.278980016708374],2018_Feb_21_1545,59.9110968907,sequenceLearningTask,001,001,
min4.png,"['2', '1', '3', '4']",['4'],allBlank.png,,,,,,,,,3,3,15,3,,,,,,,,,1,['4'],0,[0.32755184173583984],2018_Feb_21_1545,59.9110968907,sequenceLearningTask,001,001,
min2.png,"['2', '1', '3', '4']",['2'],allBlank.png,,,,,,,,,4,0,16,1,,,,,,,,,1,['2'],0,[0.2939941883087158],2018_Feb_21_1545,59.9110968907,sequenceLearningTask,001,001,
min4.png,"['2', '1', '3', '4']",['4'],allBlank.png,,,,,,,,,4,1,17,3,,,,,,,,,1,['4'],0,[0.29777097702026367],2018_Feb_21_1545,59.9110968907,sequenceLearningTask,001,001,
min1.png,"['2', '1', '3', '4']",['1'],allBlank.png,,,,,,,,,4,2,18,0,,,,,,,,,1,['1'],0,[0.3299071788787842],2018_Feb_21_1545,59.9110968907,sequenceLearningTask,001,001,
min3.png,"['2', '1', '3', '4']",['3'],allBlank.png,,,,,,,,,4,3,19,2,,,,,,,,,1,['3'],0,[0.24546504020690918],2018_Feb_21_1545,59.9110968907,sequenceLearningTask,001,001,
min2.png,"['2', '1', '3', '4']",['2'],allBlank.png,,,,,,,,,5,0,20,1,,,,,,,,,1,['2'],0,[0.23030996322631836],2018_Feb_21_1545,59.9110968907,sequenceLearningTask,001,001,
min3.png,"['2', '1', '3', '4']",['3'],allBlank.png,,,,,,,,,5,1,21,2,,,,,,,,,0,"['4', '3']",0,"[0.18638086318969727, 0.6036908626556396]",2018_Feb_21_1545,59.9110968907,sequenceLearningTask,001,001,
min4.png,"['2', '1', '3', '4']",['4'],allBlank.png,,,,,,,,,5,2,22,3,,,,,,,,,1,['4'],0,[0.3372030258178711],2018_Feb_21_1545,59.9110968907,sequenceLearningTask,001,001,
min1.png,"['2', '1', '3', '4']",['1'],allBlank.png,,,,,,,,,5,3,23,0,,,,,,,,,1,['1'],0,[0.3971388339996338],2018_Feb_21_1545,59.9110968907,sequenceLearningTask,001,001,
min1.png,"['2', '1', '3', '4']",['1'],allBlank.png,,,,,,,,,6,0,24,0,,,,,,,,,1,['1'],0,[0.4537971019744873],2018_Feb_21_1545,59.9110968907,sequenceLearningTask,001,001,
min2.png,"['2', '1', '3', '4']",['2'],allBlank.png,,,,,,,,,6,1,25,1,,,,,,,,,1,['2'],0,[0.7366771697998047],2018_Feb_21_1545,59.9110968907,sequenceLearningTask,001,001,
min3.png,"['2', '1', '3', '4']",['3'],allBlank.png,,,,,,,,,6,2,26,2,,,,,,,,,1,['3'],0,[0.2506258487701416],2018_Feb_21_1545,59.9110968907,sequenceLearningTask,001,001,
min4.png,"['2', '1', '3', '4']",['4'],allBlank.png,,,,,,,,,6,3,27,3,,,,,,,,,1,['4'],0,[0.25306105613708496],2018_Feb_21_1545,59.9110968907,sequenceLearningTask,001,001,
min2.png,"['2', '1', '3', '4']",['2'],allBlank.png,,,,,,,,,7,0,28,1,,,,,,,,,1,['2'],0,[0.28676700592041016],2018_Feb_21_1545,59.9110968907,sequenceLearningTask,001,001,
min4.png,"['2', '1', '3', '4']",['4'],allBlank.png,,,,,,,,,7,1,29,3,,,,,,,,,1,['4'],0,[0.3029968738555908],2018_Feb_21_1545,59.9110968907,sequenceLearningTask,001,001,
min3.png,"['2', '1', '3', '4']",['3'],allBlank.png,,,,,,,,,7,2,30,2,,,,,,,,,1,['3'],0,[0.46971893310546875],2018_Feb_21_1545,59.9110968907,sequenceLearningTask,001,001,
min1.png,"['2', '1', '3', '4']",['1'],allBlank.png,,,,,,,,,7,3,31,0,,,,,,,,,1,['1'],0,[0.403033971786499],2018_Feb_21_1545,59.9110968907,sequenceLearningTask,001,001,
min1.png,"['2', '1', '3', '4']",['1'],allBlank.png,,,,,,,,,8,0,32,0,,,,,,,,,1,['1'],0,[0.42080092430114746],2018_Feb_21_1545,59.9110968907,sequenceLearningTask,001,001,
min2.png,"['2', '1', '3', '4']",['2'],allBlank.png,,,,,,,,,8,1,33,1,,,,,,,,,1,['2'],0,[0.25237107276916504],2018_Feb_21_1545,59.9110968907,sequenceLearningTask,001,001,
min3.png,"['2', '1', '3', '4']",['3'],allBlank.png,,,,,,,,,8,2,34,2,,,,,,,,,1,['3'],0,[0.21985101699829102],2018_Feb_21_1545,59.9110968907,sequenceLearningTask,001,001,
min4.png,"['2', '1', '3', '4']",['4'],allBlank.png,,,,,,,,,8,3,35,3,,,,,,,,,1,['4'],0,[0.23794889450073242],2018_Feb_21_1545,59.9110968907,sequenceLearningTask,001,001,
min3.png,"['2', '1', '3', '4']",['3'],allBlank.png,,,,,,,,,9,0,36,2,,,,,,,,,1,['3'],0,[0.5224709510803223],2018_Feb_21_1545,59.9110968907,sequenceLearningTask,001,001,
min4.png,"['2', '1', '3', '4']",['4'],allBlank.png,,,,,,,,,9,1,37,3,,,,,,,,,1,['4'],0,[0.33970212936401367],2018_Feb_21_1545,59.9110968907,sequenceLearningTask,001,001,
min2.png,"['2', '1', '3', '4']",['2'],allBlank.png,,,,,,,,,9,2,38,1,,,,,,,,,1,['2'],0,[0.30239176750183105],2018_Feb_21_1545,59.9110968907,sequenceLearningTask,001,001,
min1.png,"['2', '1', '3', '4']",['1'],allBlank.png,,,,,,,,,9,3,39,0,,,,,,,,,0,"['3', '1']",0,"[0.16869902610778809, 0.46976208686828613]",2018_Feb_21_1545,59.9110968907,sequenceLearningTask,001,001,
min4.png,"['2', '1', '3', '4']",['4'],allBlank.png,,,,,,,,,10,0,40,3,,,,,,,,,1,['4'],0,[0.33580493927001953],2018_Feb_21_1545,59.9110968907,sequenceLearningTask,001,001,
min2.png,"['2', '1', '3', '4']",['2'],allBlank.png,,,,,,,,,10,1,41,1,,,,,,,,,1,['2'],0,[0.2710719108581543],2018_Feb_21_1545,59.9110968907,sequenceLearningTask,001,001,
min3.png,"['2', '1', '3', '4']",['3'],allBlank.png,,,,,,,,,10,2,42,2,,,,,,,,,1,['3'],0,[0.28587889671325684],2018_Feb_21_1545,59.9110968907,sequenceLearningTask,001,001,
min1.png,"['2', '1', '3', '4']",['1'],allBlank.png,,,,,,,,,10,3,43,0,,,,,,,,,0,"['4', '2', '1']",0,"[0.18689584732055664, 0.5424098968505859, 0.7927918434143066]",2018_Feb_21_1545,59.9110968907,sequenceLearningTask,001,001,
min4.png,"['2', '1', '3', '4']",['4'],allBlank.png,,,,,,,,,11,0,44,3,,,,,,,,,1,['4'],0,[0.36008191108703613],2018_Feb_21_1545,59.9110968907,sequenceLearningTask,001,001,
min1.png,"['2', '1', '3', '4']",['1'],allBlank.png,,,,,,,,,11,1,45,0,,,,,,,,,0,"['2', '1']",0,"[0.29336118698120117, 0.593332052230835]",2018_Feb_21_1545,59.9110968907,sequenceLearningTask,001,001,
min3.png,"['2', '1', '3', '4']",['3'],allBlank.png,,,,,,,,,11,2,46,2,,,,,,,,,1,['3'],0,[0.2600078582763672],2018_Feb_21_1545,59.9110968907,sequenceLearningTask,001,001,
min2.png,"['2', '1', '3', '4']",['2'],allBlank.png,,,,,,,,,11,3,47,1,,,,,,,,,1,['2'],0,[0.2104649543762207],2018_Feb_21_1545,59.9110968907,sequenceLearningTask,001,001,
min4.png,"['2', '1', '3', '4']",['4'],allBlank.png,,,,,,,,,12,0,48,3,,,,,,,,,1,['4'],0,[0.21030187606811523],2018_Feb_21_1545,59.9110968907,sequenceLearningTask,001,001,
min1.png,"['2', '1', '3', '4']",['1'],allBlank.png,,,,,,,,,12,1,49,0,,,,,,,,,1,['1'],0,[0.31099700927734375],2018_Feb_21_1545,59.9110968907,sequenceLearningTask,001,001,
min3.png,"['2', '1', '3', '4']",['3'],allBlank.png,,,,,,,,,12,2,50,2,,,,,,,,,1,['3'],0,[0.2791879177093506],2018_Feb_21_1545,59.9110968907,sequenceLearningTask,001,001,
min2.png,"['2', '1', '3', '4']",['2'],allBlank.png,,,,,,,,,12,3,51,1,,,,,,,,,1,['2'],0,[0.19405889511108398],2018_Feb_21_1545,59.9110968907,sequenceLearningTask,001,001,
min3.png,"['2', '1', '3', '4']",['3'],allBlank.png,,,,,,,,,13,0,52,2,,,,,,,,,0,"['4', '3']",0,"[0.2284390926361084, 0.562096118927002]",2018_Feb_21_1545,59.9110968907,sequenceLearningTask,001,001,
min2.png,"['2', '1', '3', '4']",['2'],allBlank.png,,,,,,,,,13,1,53,1,,,,,,,,,1,['2'],0,[0.5266079902648926],2018_Feb_21_1545,59.9110968907,sequenceLearningTask,001,001,
min1.png,"['2', '1', '3', '4']",['1'],allBlank.png,,,,,,,,,13,2,54,0,,,,,,,,,1,['1'],0,[0.3617680072784424],2018_Feb_21_1545,59.9110968907,sequenceLearningTask,001,001,
min4.png,"['2', '1', '3', '4']",['4'],allBlank.png,,,,,,,,,13,3,55,3,,,,,,,,,1,['4'],0,[0.32909202575683594],2018_Feb_21_1545,59.9110968907,sequenceLearningTask,001,001,
min2.png,"['2', '1', '3', '4']",['2'],allBlank.png,,,,,,,,,14,0,56,1,,,,,,,,,1,['2'],0,[0.28018903732299805],2018_Feb_21_1545,59.9110968907,sequenceLearningTask,001,001,
min4.png,"['2', '1', '3', '4']",['4'],allBlank.png,,,,,,,,,14,1,57,3,,,,,,,,,1,['4'],0,[0.3293628692626953],2018_Feb_21_1545,59.9110968907,sequenceLearningTask,001,001,
min3.png,"['2', '1', '3', '4']",['3'],allBlank.png,,,,,,,,,14,2,58,2,,,,,,,,,1,['3'],0,[0.40197300910949707],2018_Feb_21_1545,59.9110968907,sequenceLearningTask,001,001,
min1.png,"['2', '1', '3', '4']",['1'],allBlank.png,,,,,,,,,14,3,59,0,,,,,,,,,0,"['2', '1']",0,"[0.1864168643951416, 0.4700908660888672]",2018_Feb_21_1545,59.9110968907,sequenceLearningTask,001,001,
min1.png,"['2', '1', '3', '4']",['1'],allBlank.png,,,,,,,,,15,0,60,0,,,,,,,,,0,"['2', '1']",0,"[0.24735593795776367, 0.580786943435669]",2018_Feb_21_1545,59.9110968907,sequenceLearningTask,001,001,
min4.png,"['2', '1', '3', '4']",['4'],allBlank.png,,,,,,,,,15,1,61,3,,,,,,,,,1,['4'],0,[0.4363839626312256],2018_Feb_21_1545,59.9110968907,sequenceLearningTask,001,001,
min2.png,"['2', '1', '3', '4']",['2'],allBlank.png,,,,,,,,,15,2,62,1,,,,,,,,,1,['2'],0,[0.2701740264892578],2018_Feb_21_1545,59.9110968907,sequenceLearningTask,001,001,
min3.png,"['2', '1', '3', '4']",['3'],allBlank.png,,,,,,,,,15,3,63,2,,,,,,,,,1,['3'],0,[0.2692079544067383],2018_Feb_21_1545,59.9110968907,sequenceLearningTask,001,001,
min1.png,"['2', '1', '3', '4']",['1'],allBlank.png,,,,,,,,,16,0,64,0,,,,,,,,,1,['1'],0,[0.3693418502807617],2018_Feb_21_1545,59.9110968907,sequenceLearningTask,001,001,
min3.png,"['2', '1', '3', '4']",['3'],allBlank.png,,,,,,,,,16,1,65,2,,,,,,,,,1,['3'],0,[0.41763901710510254],2018_Feb_21_1545,59.9110968907,sequenceLearningTask,001,001,
min4.png,"['2', '1', '3', '4']",['4'],allBlank.png,,,,,,,,,16,2,66,3,,,,,,,,,1,['4'],0,[0.32057714462280273],2018_Feb_21_1545,59.9110968907,sequenceLearningTask,001,001,
min2.png,"['2', '1', '3', '4']",['2'],allBlank.png,,,,,,,,,16,3,67,1,,,,,,,,,1,['2'],0,[0.3023059368133545],2018_Feb_21_1545,59.9110968907,sequenceLearningTask,001,001,
min1.png,"['2', '1', '3', '4']",['1'],allBlank.png,,,,,,,,,17,0,68,0,,,,,,,,,1,['1'],0,[0.33550500869750977],2018_Feb_21_1545,59.9110968907,sequenceLearningTask,001,001,
min3.png,"['2', '1', '3', '4']",['3'],allBlank.png,,,,,,,,,17,1,69,2,,,,,,,,,1,['3'],0,[0.25318002700805664],2018_Feb_21_1545,59.9110968907,sequenceLearningTask,001,001,
min2.png,"['2', '1', '3', '4']",['2'],allBlank.png,,,,,,,,,17,2,70,1,,,,,,,,,1,['2'],0,[0.2536931037902832],2018_Feb_21_1545,59.9110968907,sequenceLearningTask,001,001,
min4.png,"['2', '1', '3', '4']",['4'],allBlank.png,,,,,,,,,17,3,71,3,,,,,,,,,1,['4'],0,[0.254608154296875],2018_Feb_21_1545,59.9110968907,sequenceLearningTask,001,001,
min2.png,"['2', '1', '3', '4']",['2'],allBlank.png,,,,,,,,,18,0,72,1,,,,,,,,,1,['2'],0,[0.32024097442626953],2018_Feb_21_1545,59.9110968907,sequenceLearningTask,001,001,
min1.png,"['2', '1', '3', '4']",['1'],allBlank.png,,,,,,,,,18,1,73,0,,,,,,,,,1,['1'],0,[0.35474085807800293],2018_Feb_21_1545,59.9110968907,sequenceLearningTask,001,001,
min4.png,"['2', '1', '3', '4']",['4'],allBlank.png,,,,,,,,,18,2,74,3,,,,,,,,,1,['4'],0,[0.322019100189209],2018_Feb_21_1545,59.9110968907,sequenceLearningTask,001,001,
min3.png,"['2', '1', '3', '4']",['3'],allBlank.png,,,,,,,,,18,3,75,2,,,,,,,,,1,['3'],0,[0.3883798122406006],2018_Feb_21_1545,59.9110968907,sequenceLearningTask,001,001,
min3.png,"['2', '1', '3', '4']",['3'],allBlank.png,,,,,,,,,19,0,76,2,,,,,,,,,1,['3'],0,[0.42255210876464844],2018_Feb_21_1545,59.9110968907,sequenceLearningTask,001,001,
min1.png,"['2', '1', '3', '4']",['1'],allBlank.png,,,,,,,,,19,1,77,0,,,,,,,,,1,['1'],0,[0.3570389747619629],2018_Feb_21_1545,59.9110968907,sequenceLearningTask,001,001,
min2.png,"['2', '1', '3', '4']",['2'],allBlank.png,,,,,,,,,19,2,78,1,,,,,,,,,1,['2'],0,[0.4023590087890625],2018_Feb_21_1545,59.9110968907,sequenceLearningTask,001,001,
min4.png,"['2', '1', '3', '4']",['4'],allBlank.png,,,,,,,,,19,3,79,3,,,,,,,,,1,['4'],0,[0.2859649658203125],2018_Feb_21_1545,59.9110968907,sequenceLearningTask,001,001,
min4.png,"['2', '1', '3', '4']",['4'],allBlank.png,,,,,,,,,20,0,80,3,,,,,,,,,1,['4'],0,[0.3527829647064209],2018_Feb_21_1545,59.9110968907,sequenceLearningTask,001,001,
min3.png,"['2', '1', '3', '4']",['3'],allBlank.png,,,,,,,,,20,1,81,2,,,,,,,,,1,['3'],0,[0.3186650276184082],2018_Feb_21_1545,59.9110968907,sequenceLearningTask,001,001,
min2.png,"['2', '1', '3', '4']",['2'],allBlank.png,,,,,,,,,20,2,82,1,,,,,,,,,1,['2'],0,[0.341951847076416],2018_Feb_21_1545,59.9110968907,sequenceLearningTask,001,001,
min1.png,"['2', '1', '3', '4']",['1'],allBlank.png,,,,,,,,,20,3,83,0,,,,,,,,,1,['1'],0,[0.2761850357055664],2018_Feb_21_1545,59.9110968907,sequenceLearningTask,001,001,
min3.png,"['2', '1', '3', '4']",['3'],allBlank.png,,,,,,,,,21,0,84,2,,,,,,,,,1,['3'],0,[0.24268412590026855],2018_Feb_21_1545,59.9110968907,sequenceLearningTask,001,001,
min1.png,"['2', '1', '3', '4']",['1'],allBlank.png,,,,,,,,,21,1,85,0,,,,,,,,,0,"['2', '1']",0,"[0.2602219581604004, 0.5768489837646484]",2018_Feb_21_1545,59.9110968907,sequenceLearningTask,001,001,
min2.png,"['2', '1', '3', '4']",['2'],allBlank.png,,,,,,,,,21,2,86,1,,,,,,,,,0,"['4', '2']",0,"[0.17748594284057617, 0.5430269241333008]",2018_Feb_21_1545,59.9110968907,sequenceLearningTask,001,001,
min4.png,"['2', '1', '3', '4']",['4'],allBlank.png,,,,,,,,,21,3,87,3,,,,,,,,,1,['4'],0,[0.27794718742370605],2018_Feb_21_1545,59.9110968907,sequenceLearningTask,001,001,
min1.png,"['2', '1', '3', '4']",['1'],allBlank.png,,,,,,,,,22,0,88,0,,,,,,,,,1,['1'],0,[0.36205291748046875],2018_Feb_21_1545,59.9110968907,sequenceLearningTask,001,001,
min3.png,"['2', '1', '3', '4']",['3'],allBlank.png,,,,,,,,,22,1,89,2,,,,,,,,,1,['3'],0,[0.26027393341064453],2018_Feb_21_1545,59.9110968907,sequenceLearningTask,001,001,
min4.png,"['2', '1', '3', '4']",['4'],allBlank.png,,,,,,,,,22,2,90,3,,,,,,,,,1,['4'],0,[0.3285489082336426],2018_Feb_21_1545,59.9110968907,sequenceLearningTask,001,001,
min2.png,"['2', '1', '3', '4']",['2'],allBlank.png,,,,,,,,,22,3,91,1,,,,,,,,,1,['2'],0,[0.24417495727539062],2018_Feb_21_1545,59.9110968907,sequenceLearningTask,001,001,
min2.png,"['2', '1', '3', '4']",['2'],allBlank.png,,,,,,,,,23,0,92,1,,,,,,,,,0,"['1', '2']",0,"[0.3961200714111328, 0.779426097869873]",2018_Feb_21_1545,59.9110968907,sequenceLearningTask,001,001,
min4.png,"['2', '1', '3', '4']",['4'],allBlank.png,,,,,,,,,23,1,93,3,,,,,,,,,1,['4'],0,[0.3958771228790283],2018_Feb_21_1545,59.9110968907,sequenceLearningTask,001,001,
min1.png,"['2', '1', '3', '4']",['1'],allBlank.png,,,,,,,,,23,2,94,0,,,,,,,,,1,['1'],0,[0.5273880958557129],2018_Feb_21_1545,59.9110968907,sequenceLearningTask,001,001,
min3.png,"['2', '1', '3', '4']",['3'],allBlank.png,,,,,,,,,23,3,95,2,,,,,,,,,1,['3'],0,[0.25305604934692383],2018_Feb_21_1545,59.9110968907,sequenceLearningTask,001,001,
min4.png,"['2', '1', '3', '4']",['4'],allBlank.png,,,,,,,,,24,0,96,3,,,,,,,,,1,['4'],0,[0.3471369743347168],2018_Feb_21_1545,59.9110968907,sequenceLearningTask,001,001,
min2.png,"['2', '1', '3', '4']",['2'],allBlank.png,,,,,,,,,24,1,97,1,,,,,,,,,1,['2'],0,[0.24772095680236816],2018_Feb_21_1545,59.9110968907,sequenceLearningTask,001,001,
min1.png,"['2', '1', '3', '4']",['1'],allBlank.png,,,,,,,,,24,2,98,0,,,,,,,,,1,['1'],0,[0.41977405548095703],2018_Feb_21_1545,59.9110968907,sequenceLearningTask,001,001,
min3.png,"['2', '1', '3', '4']",['3'],allBlank.png,,,,,,,,,24,3,99,2,,,,,,,,,0,"['4', '3']",0,"[0.21999692916870117, 0.519960880279541]",2018_Feb_21_1545,59.9110968907,sequenceLearningTask,001,001,
,,,allBlank.png,min1.png,min2.png,min3.png,min4.png,,,,,,,,,0,0,0,0,,,,,1,['4'],0,[0.30341410636901855],2018_Feb_21_1545,59.9110968907,sequenceLearningTask,001,001,
,,,allBlank.png,min1.png,min2.png,min3.png,min4.png,,,,,,,,,1,0,1,0,,,,,0,"['3', '4']",0,"[0.17562603950500488, 0.42546701431274414]",2018_Feb_21_1545,59.9110968907,sequenceLearningTask,001,001,
,,,allBlank.png,min1.png,min2.png,min3.png,min4.png,,,,,,,,,2,0,2,0,,,,,0,"['3', '4']",0,"[0.00045299530029296875, 0.14537787437438965]",2018_Feb_21_1545,59.9110968907,sequenceLearningTask,001,001,
,,,allBlank.png,min1.png,min2.png,min3.png,min4.png,,,,,,,,,3,0,3,0,,,,,1,['4'],0,[0.2134859561920166],2018_Feb_21_1545,59.9110968907,sequenceLearningTask,001,001,
,,,allBlank.png,min1.png,min2.png,min3.png,min4.png,,,,,,,,,4,0,4,0,,,,,0,"['3', '4']",0,"[0.07041597366333008, 0.5369949340820312]",2018_Feb_21_1545,59.9110968907,sequenceLearningTask,001,001,
,,,allBlank.png,min1.png,min2.png,min3.png,min4.png,,,,,,,,,5,0,5,0,,,,,0,"['3', '4']",0,"[0.08539891242980957, 0.39972496032714844]",2018_Feb_21_1545,59.9110968907,sequenceLearningTask,001,001,
,,,allBlank.png,min1.png,min2.png,min3.png,min4.png,,,,,,,,,6,0,6,0,,,,,0,"['3', '4']",0,"[0.12731313705444336, 0.42692995071411133]",2018_Feb_21_1545,59.9110968907,sequenceLearningTask,001,001,
,,,allBlank.png,min1.png,min2.png,min3.png,min4.png,,,,,,,,,7,0,7,0,,,,,1,['4'],0,[0.29713892936706543],2018_Feb_21_1545,59.9110968907,sequenceLearningTask,001,001,
,,,allBlank.png,min1.png,min2.png,min3.png,min4.png,,,,,,,,,8,0,8,0,,,,,0,"['3', '1', '4']",0,"[0.0004508495330810547, 0.2693610191345215, 0.47015905380249023]",2018_Feb_21_1545,59.9110968907,sequenceLearningTask,001,001,
,,,allBlank.png,min1.png,min2.png,min3.png,min4.png,,,,,,,,,9,0,9,0,,,,,0,"['3', '4']",0,"[0.18647098541259766, 0.4029688835144043]",2018_Feb_21_1545,59.9110968907,sequenceLearningTask,001,001,
,,,allBlank.png,min1.png,min2.png,min3.png,min4.png,,,,,,,,,0,0,0,0,,,,,1,['4'],0,[0.32764506340026855],2018_Feb_21_1545,59.9110968907,sequenceLearningTask,001,001,
,,,allBlank.png,min1.png,min2.png,min3.png,min4.png,,,,,,,,,1,0,1,0,,,,,1,['4'],0,[0.23397302627563477],2018_Feb_21_1545,59.9110968907,sequenceLearningTask,001,001,
,,,allBlank.png,min1.png,min2.png,min3.png,min4.png,,,,,,,,,2,0,2,0,,,,,1,['4'],0,[0.10258197784423828],2018_Feb_21_1545,59.9110968907,sequenceLearningTask,001,001,
,,,allBlank.png,min1.png,min2.png,min3.png,min4.png,,,,,,,,,3,0,3,0,,,,,1,['4'],0,[0.25606417655944824],2018_Feb_21_1545,59.9110968907,sequenceLearningTask,001,001,
,,,allBlank.png,min1.png,min2.png,min3.png,min4.png,,,,,,,,,4,0,4,0,,,,,1,['4'],0,[0.39179301261901855],2018_Feb_21_1545,59.9110968907,sequenceLearningTask,001,001,
,,,allBlank.png,min1.png,min2.png,min3.png,min4.png,,,,,,,,,5,0,5,0,,,,,1,['4'],0,[0.3289761543273926],2018_Feb_21_1545,59.9110968907,sequenceLearningTask,001,001,
,,,allBlank.png,min1.png,min2.png,min3.png,min4.png,,,,,,,,,6,0,6,0,,,,,1,['4'],0,[0.2865891456604004],2018_Feb_21_1545,59.9110968907,sequenceLearningTask,001,001,
,,,allBlank.png,min1.png,min2.png,min3.png,min4.png,,,,,,,,,7,0,7,0,,,,,0,"['3', '4']",0,"[0.1876230239868164, 0.438007116317749]",2018_Feb_21_1545,59.9110968907,sequenceLearningTask,001,001,
,,,allBlank.png,min1.png,min2.png,min3.png,min4.png,,,,,,,,,8,0,8,0,,,,,1,['4'],0,[0.3532378673553467],2018_Feb_21_1545,59.9110968907,sequenceLearningTask,001,001,
,,,allBlank.png,min1.png,min2.png,min3.png,min4.png,,,,,,,,,9,0,9,0,,,,,1,['4'],0,[0.34393882751464844],2018_Feb_21_1545,59.9110968907,sequenceLearningTask,001,001,
min2.png,"['2', '1', '3', '4']",['2'],allBlank.png,,,,,,,,,,,,,,,,,0,0,0,1,1,['2'],0,[0.7024929523468018],2018_Feb_21_1545,59.9110968907,sequenceLearningTask,001,001,
min1.png,"['2', '1', '3', '4']",['1'],allBlank.png,,,,,,,,,,,,,,,,,0,1,1,0,1,['1'],0,[0.5026788711547852],2018_Feb_21_1545,59.9110968907,sequenceLearningTask,001,001,
min3.png,"['2', '1', '3', '4']",['3'],allBlank.png,,,,,,,,,,,,,,,,,0,2,2,2,1,['3'],0,[0.6543681621551514],2018_Feb_21_1545,59.9110968907,sequenceLearningTask,001,001,
min4.png,"['2', '1', '3', '4']",['4'],allBlank.png,,,,,,,,,,,,,,,,,0,3,3,3,1,['4'],0,[0.5534420013427734],2018_Feb_21_1545,59.9110968907,sequenceLearningTask,001,001,
min4.png,"['2', '1', '3', '4']",['4'],allBlank.png,,,,,,,,,,,,,,,,,1,0,4,3,1,['4'],0,[0.4859800338745117],2018_Feb_21_1545,59.9110968907,sequenceLearningTask,001,001,
min3.png,"['2', '1', '3', '4']",['3'],allBlank.png,,,,,,,,,,,,,,,,,1,1,5,2,0,"['4', '3']",0,"[0.9529688358306885, 1.5349059104919434]",2018_Feb_21_1545,59.9110968907,sequenceLearningTask,001,001,
min2.png,"['2', '1', '3', '4']",['2'],allBlank.png,,,,,,,,,,,,,,,,,1,2,6,1,1,['2'],0,[0.7046360969543457],2018_Feb_21_1545,59.9110968907,sequenceLearningTask,001,001,
min1.png,"['2', '1', '3', '4']",['1'],allBlank.png,,,,,,,,,,,,,,,,,1,3,7,0,1,['1'],0,[0.769010066986084],2018_Feb_21_1545,59.9110968907,sequenceLearningTask,001,001,
min1.png,"['2', '1', '3', '4']",['1'],allBlank.png,,,,,,,,,,,,,,,,,2,0,8,0,1,['1'],0,[0.6557960510253906],2018_Feb_21_1545,59.9110968907,sequenceLearningTask,001,001,
min3.png,"['2', '1', '3', '4']",['3'],allBlank.png,,,,,,,,,,,,,,,,,2,1,9,2,1,['3'],0,[0.35659313201904297],2018_Feb_21_1545,59.9110968907,sequenceLearningTask,001,001,
min4.png,"['2', '1', '3', '4']",['4'],allBlank.png,,,,,,,,,,,,,,,,,2,2,10,3,1,['4'],0,[0.7028250694274902],2018_Feb_21_1545,59.9110968907,sequenceLearningTask,001,001,
min2.png,"['2', '1', '3', '4']",['2'],allBlank.png,,,,,,,,,,,,,,,,,2,3,11,1,1,['2'],0,[0.5684430599212646],2018_Feb_21_1545,59.9110968907,sequenceLearningTask,001,001,
min3.png,"['2', '1', '3', '4']",['3'],allBlank.png,,,,,,,,,,,,,,,,,3,0,12,2,1,['3'],0,[0.5859439373016357],2018_Feb_21_1545,59.9110968907,sequenceLearningTask,001,001,
min2.png,"['2', '1', '3', '4']",['2'],allBlank.png,,,,,,,,,,,,,,,,,3,1,13,1,1,['2'],0,[0.49135589599609375],2018_Feb_21_1545,59.9110968907,sequenceLearningTask,001,001,
min4.png,"['2', '1', '3', '4']",['4'],allBlank.png,,,,,,,,,,,,,,,,,3,2,14,3,1,['4'],0,[0.4256420135498047],2018_Feb_21_1545,59.9110968907,sequenceLearningTask,001,001,
min1.png,"['2', '1', '3', '4']",['1'],allBlank.png,,,,,,,,,,,,,,,,,3,3,15,0,1,['1'],0,[0.39202404022216797],2018_Feb_21_1545,59.9110968907,sequenceLearningTask,001,001,
min2.png,"['2', '1', '3', '4']",['2'],allBlank.png,,,,,,,,,,,,,,,,,4,0,16,1,1,['2'],0,[0.46013689041137695],2018_Feb_21_1545,59.9110968907,sequenceLearningTask,001,001,
min3.png,"['2', '1', '3', '4']",['3'],allBlank.png,,,,,,,,,,,,,,,,,4,1,17,2,1,['3'],0,[0.2937750816345215],2018_Feb_21_1545,59.9110968907,sequenceLearningTask,001,001,
min4.png,"['2', '1', '3', '4']",['4'],allBlank.png,,,,,,,,,,,,,,,,,4,2,18,3,1,['4'],0,[0.5770769119262695],2018_Feb_21_1545,59.9110968907,sequenceLearningTask,001,001,
min1.png,"['2', '1', '3', '4']",['1'],allBlank.png,,,,,,,,,,,,,,,,,4,3,19,0,1,['1'],0,[0.45949292182922363],2018_Feb_21_1545,59.9110968907,sequenceLearningTask,001,001,
min3.png,"['2', '1', '3', '4']",['3'],allBlank.png,,,,,,,,,,,,,,,,,5,0,20,2,1,['3'],0,[0.6091179847717285],2018_Feb_21_1545,59.9110968907,sequenceLearningTask,001,001,
min2.png,"['2', '1', '3', '4']",['2'],allBlank.png,,,,,,,,,,,,,,,,,5,1,21,1,1,['2'],0,[0.5784659385681152],2018_Feb_21_1545,59.9110968907,sequenceLearningTask,001,001,
min4.png,"['2', '1', '3', '4']",['4'],allBlank.png,,,,,,,,,,,,,,,,,5,2,22,3,1,['4'],0,[0.5472421646118164],2018_Feb_21_1545,59.9110968907,sequenceLearningTask,001,001,
min1.png,"['2', '1', '3', '4']",['1'],allBlank.png,,,,,,,,,,,,,,,,,5,3,23,0,1,['1'],0,[0.5960299968719482],2018_Feb_21_1545,59.9110968907,sequenceLearningTask,001,001,
min1.png,"['2', '1', '3', '4']",['1'],allBlank.png,,,,,,,,,,,,,,,,,6,0,24,0,1,['1'],0,[0.44769787788391113],2018_Feb_21_1545,59.9110968907,sequenceLearningTask,001,001,
min3.png,"['2', '1', '3', '4']",['3'],allBlank.png,,,,,,,,,,,,,,,,,6,1,25,2,1,['3'],0,[0.34684109687805176],2018_Feb_21_1545,59.9110968907,sequenceLearningTask,001,001,
min2.png,"['2', '1', '3', '4']",['2'],allBlank.png,,,,,,,,,,,,,,,,,6,2,26,1,1,['2'],0,[0.7955670356750488],2018_Feb_21_1545,59.9110968907,sequenceLearningTask,001,001,
min4.png,"['2', '1', '3', '4']",['4'],allBlank.png,,,,,,,,,,,,,,,,,6,3,27,3,1,['4'],0,[0.514362096786499],2018_Feb_21_1545,59.9110968907,sequenceLearningTask,001,001,
min1.png,"['2', '1', '3', '4']",['1'],allBlank.png,,,,,,,,,,,,,,,,,7,0,28,0,1,['1'],0,[0.38408994674682617],2018_Feb_21_1545,59.9110968907,sequenceLearningTask,001,001,
min3.png,"['2', '1', '3', '4']",['3'],allBlank.png,,,,,,,,,,,,,,,,,7,1,29,2,1,['3'],0,[0.435621976852417],2018_Feb_21_1545,59.9110968907,sequenceLearningTask,001,001,
min2.png,"['2', '1', '3', '4']",['2'],allBlank.png,,,,,,,,,,,,,,,,,7,2,30,1,1,['2'],0,[0.4535701274871826],2018_Feb_21_1545,59.9110968907,sequenceLearningTask,001,001,
min4.png,"['2', '1', '3', '4']",['4'],allBlank.png,,,,,,,,,,,,,,,,,7,3,31,3,1,['4'],0,[0.9653279781341553],2018_Feb_21_1545,59.9110968907,sequenceLearningTask,001,001,
min2.png,"['2', '1', '3', '4']",['2'],allBlank.png,,,,,,,,,,,,,,,,,8,0,32,1,1,['2'],0,[0.5377600193023682],2018_Feb_21_1545,59.9110968907,sequenceLearningTask,001,001,
min1.png,"['2', '1', '3', '4']",['1'],allBlank.png,,,,,,,,,,,,,,,,,8,1,33,0,1,['1'],0,[0.6822891235351562],2018_Feb_21_1545,59.9110968907,sequenceLearningTask,001,001,
min4.png,"['2', '1', '3', '4']",['4'],allBlank.png,,,,,,,,,,,,,,,,,8,2,34,3,1,['4'],0,[0.5195391178131104],2018_Feb_21_1545,59.9110968907,sequenceLearningTask,001,001,
min3.png,"['2', '1', '3', '4']",['3'],allBlank.png,,,,,,,,,,,,,,,,,8,3,35,2,1,['3'],0,[0.40273499488830566],2018_Feb_21_1545,59.9110968907,sequenceLearningTask,001,001,
min3.png,"['2', '1', '3', '4']",['3'],allBlank.png,,,,,,,,,,,,,,,,,9,0,36,2,0,"['4', '3']",0,"[0.45303797721862793, 0.8203608989715576]",2018_Feb_21_1545,59.9110968907,sequenceLearningTask,001,001,
min4.png,"['2', '1', '3', '4']",['4'],allBlank.png,,,,,,,,,,,,,,,,,9,1,37,3,1,['4'],0,[0.41976213455200195],2018_Feb_21_1545,59.9110968907,sequenceLearningTask,001,001,
min2.png,"['2', '1', '3', '4']",['2'],allBlank.png,,,,,,,,,,,,,,,,,9,2,38,1,1,['2'],0,[0.43804097175598145],2018_Feb_21_1545,59.9110968907,sequenceLearningTask,001,001,
min1.png,"['2', '1', '3', '4']",['1'],allBlank.png,,,,,,,,,,,,,,,,,9,3,39,0,1,['1'],0,[0.3373119831085205],2018_Feb_21_1545,59.9110968907,sequenceLearningTask,001,001,
min4.png,"['2', '1', '3', '4']",['4'],allBlank.png,,,,,,,,,,,,,,,,,10,0,40,3,1,['4'],0,[0.40534400939941406],2018_Feb_21_1545,59.9110968907,sequenceLearningTask,001,001,
min1.png,"['2', '1', '3', '4']",['1'],allBlank.png,,,,,,,,,,,,,,,,,10,1,41,0,1,['1'],0,[0.3369729518890381],2018_Feb_21_1545,59.9110968907,sequenceLearningTask,001,001,
min3.png,"['2', '1', '3', '4']",['3'],allBlank.png,,,,,,,,,,,,,,,,,10,2,42,2,1,['3'],0,[0.27242207527160645],2018_Feb_21_1545,59.9110968907,sequenceLearningTask,001,001,
min2.png,"['2', '1', '3', '4']",['2'],allBlank.png,,,,,,,,,,,,,,,,,10,3,43,1,1,['2'],0,[0.28673505783081055],2018_Feb_21_1545,59.9110968907,sequenceLearningTask,001,001,
min3.png,"['2', '1', '3', '4']",['3'],allBlank.png,,,,,,,,,,,,,,,,,11,0,44,2,1,['3'],0,[0.5189120769500732],2018_Feb_21_1545,59.9110968907,sequenceLearningTask,001,001,
min2.png,"['2', '1', '3', '4']",['2'],allBlank.png,,,,,,,,,,,,,,,,,11,1,45,1,0,"['1', '2']",0,"[0.31459712982177734, 0.584075927734375]",2018_Feb_21_1545,59.9110968907,sequenceLearningTask,001,001,
min1.png,"['2', '1', '3', '4']",['1'],allBlank.png,,,,,,,,,,,,,,,,,11,2,46,0,1,['1'],0,[0.36913204193115234],2018_Feb_21_1545,59.9110968907,sequenceLearningTask,001,001,
min4.png,"['2', '1', '3', '4']",['4'],allBlank.png,,,,,,,,,,,,,,,,,11,3,47,3,1,['4'],0,[0.2677891254425049],2018_Feb_21_1545,59.9110968907,sequenceLearningTask,001,001,
min4.png,"['2', '1', '3', '4']",['4'],allBlank.png,,,,,,,,,,,,,,,,,12,0,48,3,1,['4'],0,[0.40923500061035156],2018_Feb_21_1545,59.9110968907,sequenceLearningTask,001,001,
min1.png,"['2', '1', '3', '4']",['1'],allBlank.png,,,,,,,,,,,,,,,,,12,1,49,0,1,['1'],0,[0.3756141662597656],2018_Feb_21_1545,59.9110968907,sequenceLearningTask,001,001,
min3.png,"['2', '1', '3', '4']",['3'],allBlank.png,,,,,,,,,,,,,,,,,12,2,50,2,1,['3'],0,[0.6434459686279297],2018_Feb_21_1545,59.9110968907,sequenceLearningTask,001,001,
min2.png,"['2', '1', '3', '4']",['2'],allBlank.png,,,,,,,,,,,,,,,,,12,3,51,1,1,['2'],0,[0.644158124923706],2018_Feb_21_1545,59.9110968907,sequenceLearningTask,001,001,
min1.png,"['2', '1', '3', '4']",['1'],allBlank.png,,,,,,,,,,,,,,,,,13,0,52,0,1,['1'],0,[0.41050004959106445],2018_Feb_21_1545,59.9110968907,sequenceLearningTask,001,001,
min2.png,"['2', '1', '3', '4']",['2'],allBlank.png,,,,,,,,,,,,,,,,,13,1,53,1,1,['2'],0,[0.42588305473327637],2018_Feb_21_1545,59.9110968907,sequenceLearningTask,001,001,
min4.png,"['2', '1', '3', '4']",['4'],allBlank.png,,,,,,,,,,,,,,,,,13,2,54,3,1,['4'],0,[0.6447360515594482],2018_Feb_21_1545,59.9110968907,sequenceLearningTask,001,001,
min3.png,"['2', '1', '3', '4']",['3'],allBlank.png,,,,,,,,,,,,,,,,,13,3,55,2,0,"['4', '3']",0,"[0.0003299713134765625, 0.36101293563842773]",2018_Feb_21_1545,59.9110968907,sequenceLearningTask,001,001,
min3.png,"['2', '1', '3', '4']",['3'],allBlank.png,,,,,,,,,,,,,,,,,14,0,56,2,1,['3'],0,[0.3959479331970215],2018_Feb_21_1545,59.9110968907,sequenceLearningTask,001,001,
min2.png,"['2', '1', '3', '4']",['2'],allBlank.png,,,,,,,,,,,,,,,,,14,1,57,1,1,['2'],0,[0.29494714736938477],2018_Feb_21_1545,59.9110968907,sequenceLearningTask,001,001,
min4.png,"['2', '1', '3', '4']",['4'],allBlank.png,,,,,,,,,,,,,,,,,14,2,58,3,1,['4'],0,[0.2345409393310547],2018_Feb_21_1545,59.9110968907,sequenceLearningTask,001,001,
min1.png,"['2', '1', '3', '4']",['1'],allBlank.png,,,,,,,,,,,,,,,,,14,3,59,0,1,['1'],0,[0.5297539234161377],2018_Feb_21_1545,59.9110968907,sequenceLearningTask,001,001,
min4.png,"['2', '1', '3', '4']",['4'],allBlank.png,,,,,,,,,,,,,,,,,15,0,60,3,1,['4'],0,[0.43082189559936523],2018_Feb_21_1545,59.9110968907,sequenceLearningTask,001,001,
min3.png,"['2', '1', '3', '4']",['3'],allBlank.png,,,,,,,,,,,,,,,,,15,1,61,2,0,"['4', '3']",0,"[0.43060803413391113, 0.5307989120483398]",2018_Feb_21_1545,59.9110968907,sequenceLearningTask,001,001,
min1.png,"['2', '1', '3', '4']",['1'],allBlank.png,,,,,,,,,,,,,,,,,15,2,62,0,1,['1'],0,[0.6542608737945557],2018_Feb_21_1545,59.9110968907,sequenceLearningTask,001,001,
min2.png,"['2', '1', '3', '4']",['2'],allBlank.png,,,,,,,,,,,,,,,,,15,3,63,1,1,['2'],0,[0.4478731155395508],2018_Feb_21_1545,59.9110968907,sequenceLearningTask,001,001,
min3.png,"['2', '1', '3', '4']",['3'],allBlank.png,,,,,,,,,,,,,,,,,16,0,64,2,1,['3'],0,[0.5815122127532959],2018_Feb_21_1545,59.9110968907,sequenceLearningTask,001,001,
min1.png,"['2', '1', '3', '4']",['1'],allBlank.png,,,,,,,,,,,,,,,,,16,1,65,0,1,['1'],0,[0.5858709812164307],2018_Feb_21_1545,59.9110968907,sequenceLearningTask,001,001,
min2.png,"['2', '1', '3', '4']",['2'],allBlank.png,,,,,,,,,,,,,,,,,16,2,66,1,1,['2'],0,[0.686743974685669],2018_Feb_21_1545,59.9110968907,sequenceLearningTask,001,001,
min4.png,"['2', '1', '3', '4']",['4'],allBlank.png,,,,,,,,,,,,,,,,,16,3,67,3,1,['4'],0,[0.6360130310058594],2018_Feb_21_1545,59.9110968907,sequenceLearningTask,001,001,
min3.png,"['2', '1', '3', '4']",['3'],allBlank.png,,,,,,,,,,,,,,,,,17,0,68,2,1,['3'],0,[0.9864518642425537],2018_Feb_21_1545,59.9110968907,sequenceLearningTask,001,001,
min2.png,"['2', '1', '3', '4']",['2'],allBlank.png,,,,,,,,,,,,,,,,,17,1,69,1,1,['2'],0,[0.3687019348144531],2018_Feb_21_1545,59.9110968907,sequenceLearningTask,001,001,
min1.png,"['2', '1', '3', '4']",['1'],allBlank.png,,,,,,,,,,,,,,,,,17,2,70,0,1,['1'],0,[0.38718104362487793],2018_Feb_21_1545,59.9110968907,sequenceLearningTask,001,001,
min4.png,"['2', '1', '3', '4']",['4'],allBlank.png,,,,,,,,,,,,,,,,,17,3,71,3,1,['4'],0,[0.28598499298095703],2018_Feb_21_1545,59.9110968907,sequenceLearningTask,001,001,
min1.png,"['2', '1', '3', '4']",['1'],allBlank.png,,,,,,,,,,,,,,,,,18,0,72,0,1,['1'],0,[0.3867199420928955],2018_Feb_21_1545,59.9110968907,sequenceLearningTask,001,001,
min4.png,"['2', '1', '3', '4']",['4'],allBlank.png,,,,,,,,,,,,,,,,,18,1,73,3,1,['4'],0,[0.4715571403503418],2018_Feb_21_1545,59.9110968907,sequenceLearningTask,001,001,
min3.png,"['2', '1', '3', '4']",['3'],allBlank.png,,,,,,,,,,,,,,,,,18,2,74,2,1,['3'],0,[0.5044369697570801],2018_Feb_21_1545,59.9110968907,sequenceLearningTask,001,001,
min2.png,"['2', '1', '3', '4']",['2'],allBlank.png,,,,,,,,,,,,,,,,,18,3,75,1,1,['2'],0,[0.3053929805755615],2018_Feb_21_1545,59.9110968907,sequenceLearningTask,001,001,
min1.png,"['2', '1', '3', '4']",['1'],allBlank.png,,,,,,,,,,,,,,,,,19,0,76,0,1,['1'],0,[0.33861804008483887],2018_Feb_21_1545,59.9110968907,sequenceLearningTask,001,001,
min2.png,"['2', '1', '3', '4']",['2'],allBlank.png,,,,,,,,,,,,,,,,,19,1,77,1,1,['2'],0,[0.45670104026794434],2018_Feb_21_1545,59.9110968907,sequenceLearningTask,001,001,
min3.png,"['2', '1', '3', '4']",['3'],allBlank.png,,,,,,,,,,,,,,,,,19,2,78,2,1,['3'],0,[0.30736398696899414],2018_Feb_21_1545,59.9110968907,sequenceLearningTask,001,001,
min4.png,"['2', '1', '3', '4']",['4'],allBlank.png,,,,,,,,,,,,,,,,,19,3,79,3,1,['4'],0,[0.28368186950683594],2018_Feb_21_1545,59.9110968907,sequenceLearningTask,001,001,
min2.png,"['2', '1', '3', '4']",['2'],allBlank.png,,,,,,,,,,,,,,,,,20,0,80,1,1,['2'],0,[0.5520761013031006],2018_Feb_21_1545,59.9110968907,sequenceLearningTask,001,001,
min3.png,"['2', '1', '3', '4']",['3'],allBlank.png,,,,,,,,,,,,,,,,,20,1,81,2,1,['3'],0,[0.3863670825958252],2018_Feb_21_1545,59.9110968907,sequenceLearningTask,001,001,
min1.png,"['2', '1', '3', '4']",['1'],allBlank.png,,,,,,,,,,,,,,,,,20,2,82,0,1,['1'],0,[0.35368990898132324],2018_Feb_21_1545,59.9110968907,sequenceLearningTask,001,001,
min4.png,"['2', '1', '3', '4']",['4'],allBlank.png,,,,,,,,,,,,,,,,,20,3,83,3,1,['4'],0,[0.3587830066680908],2018_Feb_21_1545,59.9110968907,sequenceLearningTask,001,001,
min4.png,"['2', '1', '3', '4']",['4'],allBlank.png,,,,,,,,,,,,,,,,,21,0,84,3,1,['4'],0,[0.4776301383972168],2018_Feb_21_1545,59.9110968907,sequenceLearningTask,001,001,
min2.png,"['2', '1', '3', '4']",['2'],allBlank.png,,,,,,,,,,,,,,,,,21,1,85,1,1,['2'],0,[0.3766658306121826],2018_Feb_21_1545,59.9110968907,sequenceLearningTask,001,001,
min1.png,"['2', '1', '3', '4']",['1'],allBlank.png,,,,,,,,,,,,,,,,,21,2,86,0,1,['1'],0,[0.41028809547424316],2018_Feb_21_1545,59.9110968907,sequenceLearningTask,001,001,
min3.png,"['2', '1', '3', '4']",['3'],allBlank.png,,,,,,,,,,,,,,,,,21,3,87,2,1,['3'],0,[0.3271338939666748],2018_Feb_21_1545,59.9110968907,sequenceLearningTask,001,001,
min4.png,"['2', '1', '3', '4']",['4'],allBlank.png,,,,,,,,,,,,,,,,,22,0,88,3,1,['4'],0,[0.5952458381652832],2018_Feb_21_1545,59.9110968907,sequenceLearningTask,001,001,
min2.png,"['2', '1', '3', '4']",['2'],allBlank.png,,,,,,,,,,,,,,,,,22,1,89,1,1,['2'],0,[0.325714111328125],2018_Feb_21_1545,59.9110968907,sequenceLearningTask,001,001,
min1.png,"['2', '1', '3', '4']",['1'],allBlank.png,,,,,,,,,,,,,,,,,22,2,90,0,1,['1'],0,[0.5287261009216309],2018_Feb_21_1545,59.9110968907,sequenceLearningTask,001,001,
min3.png,"['2', '1', '3', '4']",['3'],allBlank.png,,,,,,,,,,,,,,,,,22,3,91,2,1,['3'],0,[0.4128561019897461],2018_Feb_21_1545,59.9110968907,sequenceLearningTask,001,001,
min3.png,"['2', '1', '3', '4']",['3'],allBlank.png,,,,,,,,,,,,,,,,,23,0,92,2,1,['3'],0,[0.4795680046081543],2018_Feb_21_1545,59.9110968907,sequenceLearningTask,001,001,
min2.png,"['2', '1', '3', '4']",['2'],allBlank.png,,,,,,,,,,,,,,,,,23,1,93,1,1,['2'],0,[0.4468410015106201],2018_Feb_21_1545,59.9110968907,sequenceLearningTask,001,001,
min1.png,"['2', '1', '3', '4']",['1'],allBlank.png,,,,,,,,,,,,,,,,,23,2,94,0,1,['1'],0,[0.6640539169311523],2018_Feb_21_1545,59.9110968907,sequenceLearningTask,001,001,
min4.png,"['2', '1', '3', '4']",['4'],allBlank.png,,,,,,,,,,,,,,,,,23,3,95,3,1,['4'],0,[0.6629738807678223],2018_Feb_21_1545,59.9110968907,sequenceLearningTask,001,001,
min4.png,"['2', '1', '3', '4']",['4'],allBlank.png,,,,,,,,,,,,,,,,,24,0,96,3,1,['4'],0,[0.5861690044403076],2018_Feb_21_1545,59.9110968907,sequenceLearningTask,001,001,
min3.png,"['2', '1', '3', '4']",['3'],allBlank.png,,,,,,,,,,,,,,,,,24,1,97,2,1,['3'],0,[0.6143789291381836],2018_Feb_21_1545,59.9110968907,sequenceLearningTask,001,001,
min2.png,"['2', '1', '3', '4']",['2'],allBlank.png,,,,,,,,,,,,,,,,,24,2,98,1,1,['2'],0,[0.5151119232177734],2018_Feb_21_1545,59.9110968907,sequenceLearningTask,001,001,
min1.png,"['2', '1', '3', '4']",['1'],allBlank.png,,,,,,,,,,,,,,,,,24,3,99,0,1,['1'],0,[0.4472367763519287],2018_Feb_21_1545,59.9110968907,sequenceLearningTask,001,001,
