randomPaw,allowableKey,correctKey,blank,pawPatrol1,pawPatrol2,pawPatrol3,pawPatrol4,trials.thisRepN,trials.thisTrialN,trials.thisN,trials.thisIndex,trials_1.thisRepN,trials_1.thisTrialN,trials_1.thisN,trials_1.thisIndex,trials_2.thisRepN,trials_2.thisTrialN,trials_2.thisN,trials_2.thisIndex,trials_3.thisRepN,trials_3.thisTrialN,trials_3.thisN,trials_3.thisIndex,trials_4.thisRepN,trials_4.thisTrialN,trials_4.thisN,trials_4.thisIndex,trialCorrect,key_resp_9.keys,key_resp_9.corr,key_resp_9.rt,key_resp_10.keys,key_resp_10.rt,date,frameRate,expName,session,participant,
min2.png,"['2', '1', '3', '4']",['2'],allBlank.png,,,,,,,,,0,0,0,1,,,,,,,,,,,,,1,['2'],0,[0.46971821784973145],,,2018_Feb_21_1616,59.7924664672,sequenceLearningTask,001,002_pilot,
min3.png,"['2', '1', '3', '4']",['3'],allBlank.png,,,,,,,,,0,1,1,2,,,,,,,,,,,,,1,['3'],0,[0.2768118381500244],,,2018_Feb_21_1616,59.7924664672,sequenceLearningTask,001,002_pilot,
min1.png,"['2', '1', '3', '4']",['1'],allBlank.png,,,,,,,,,0,2,2,0,,,,,,,,,,,,,1,['1'],0,[0.45860910415649414],,,2018_Feb_21_1616,59.7924664672,sequenceLearningTask,001,002_pilot,
min4.png,"['2', '1', '3', '4']",['4'],allBlank.png,,,,,,,,,0,3,3,3,,,,,,,,,,,,,1,['4'],0,[0.3106238842010498],,,2018_Feb_21_1616,59.7924664672,sequenceLearningTask,001,002_pilot,
min3.png,"['2', '1', '3', '4']",['3'],allBlank.png,,,,,,,,,1,0,4,2,,,,,,,,,,,,,1,['3'],0,[0.41129088401794434],,,2018_Feb_21_1616,59.7924664672,sequenceLearningTask,001,002_pilot,
min1.png,"['2', '1', '3', '4']",['1'],allBlank.png,,,,,,,,,1,1,5,0,,,,,,,,,,,,,1,['1'],0,[0.42846083641052246],,,2018_Feb_21_1616,59.7924664672,sequenceLearningTask,001,002_pilot,
min4.png,"['2', '1', '3', '4']",['4'],allBlank.png,,,,,,,,,1,2,6,3,,,,,,,,,,,,,1,['4'],0,[0.4113810062408447],,,2018_Feb_21_1616,59.7924664672,sequenceLearningTask,001,002_pilot,
min2.png,"['2', '1', '3', '4']",['2'],allBlank.png,,,,,,,,,1,3,7,1,,,,,,,,,,,,,1,['2'],0,[0.2617359161376953],,,2018_Feb_21_1616,59.7924664672,sequenceLearningTask,001,002_pilot,
min3.png,"['2', '1', '3', '4']",['3'],allBlank.png,,,,,,,,,2,0,8,2,,,,,,,,,,,,,1,['3'],0,[0.278148889541626],,,2018_Feb_21_1616,59.7924664672,sequenceLearningTask,001,002_pilot,
min2.png,"['2', '1', '3', '4']",['2'],allBlank.png,,,,,,,,,2,1,9,1,,,,,,,,,,,,,1,['2'],0,[0.3960580825805664],,,2018_Feb_21_1616,59.7924664672,sequenceLearningTask,001,002_pilot,
min4.png,"['2', '1', '3', '4']",['4'],allBlank.png,,,,,,,,,2,2,10,3,,,,,,,,,,,,,1,['4'],0,[0.3205280303955078],,,2018_Feb_21_1616,59.7924664672,sequenceLearningTask,001,002_pilot,
min1.png,"['2', '1', '3', '4']",['1'],allBlank.png,,,,,,,,,2,3,11,0,,,,,,,,,,,,,1,['1'],0,[0.2466259002685547],,,2018_Feb_21_1616,59.7924664672,sequenceLearningTask,001,002_pilot,
min1.png,"['2', '1', '3', '4']",['1'],allBlank.png,,,,,,,,,3,0,12,0,,,,,,,,,,,,,1,['1'],0,[0.4277160167694092],,,2018_Feb_21_1616,59.7924664672,sequenceLearningTask,001,002_pilot,
min4.png,"['2', '1', '3', '4']",['4'],allBlank.png,,,,,,,,,3,1,13,3,,,,,,,,,,,,,1,['4'],0,[0.47928714752197266],,,2018_Feb_21_1616,59.7924664672,sequenceLearningTask,001,002_pilot,
min2.png,"['2', '1', '3', '4']",['2'],allBlank.png,,,,,,,,,3,2,14,1,,,,,,,,,,,,,1,['2'],0,[0.27010393142700195],,,2018_Feb_21_1616,59.7924664672,sequenceLearningTask,001,002_pilot,
min3.png,"['2', '1', '3', '4']",['3'],allBlank.png,,,,,,,,,3,3,15,2,,,,,,,,,,,,,1,['3'],0,[0.3369591236114502],,,2018_Feb_21_1616,59.7924664672,sequenceLearningTask,001,002_pilot,
min1.png,"['2', '1', '3', '4']",['1'],allBlank.png,,,,,,,,,4,0,16,0,,,,,,,,,,,,,1,['1'],0,[0.5363368988037109],,,2018_Feb_21_1616,59.7924664672,sequenceLearningTask,001,002_pilot,
min4.png,"['2', '1', '3', '4']",['4'],allBlank.png,,,,,,,,,4,1,17,3,,,,,,,,,,,,,1,['4'],0,[0.4695100784301758],,,2018_Feb_21_1616,59.7924664672,sequenceLearningTask,001,002_pilot,
min3.png,"['2', '1', '3', '4']",['3'],allBlank.png,,,,,,,,,4,2,18,2,,,,,,,,,,,,,1,['3'],0,[0.4200439453125],,,2018_Feb_21_1616,59.7924664672,sequenceLearningTask,001,002_pilot,
min2.png,"['2', '1', '3', '4']",['2'],allBlank.png,,,,,,,,,4,3,19,1,,,,,,,,,,,,,1,['2'],0,[0.27011609077453613],,,2018_Feb_21_1616,59.7924664672,sequenceLearningTask,001,002_pilot,
min4.png,"['2', '1', '3', '4']",['4'],allBlank.png,,,,,,,,,5,0,20,3,,,,,,,,,,,,,1,['4'],0,[0.3542649745941162],,,2018_Feb_21_1616,59.7924664672,sequenceLearningTask,001,002_pilot,
min2.png,"['2', '1', '3', '4']",['2'],allBlank.png,,,,,,,,,5,1,21,1,,,,,,,,,,,,,1,['2'],0,[0.3201730251312256],,,2018_Feb_21_1616,59.7924664672,sequenceLearningTask,001,002_pilot,
min1.png,"['2', '1', '3', '4']",['1'],allBlank.png,,,,,,,,,5,2,22,0,,,,,,,,,,,,,1,['1'],0,[0.43712878227233887],,,2018_Feb_21_1616,59.7924664672,sequenceLearningTask,001,002_pilot,
min3.png,"['2', '1', '3', '4']",['3'],allBlank.png,,,,,,,,,5,3,23,2,,,,,,,,,,,,,1,['3'],0,[0.30350708961486816],,,2018_Feb_21_1616,59.7924664672,sequenceLearningTask,001,002_pilot,
min1.png,"['2', '1', '3', '4']",['1'],allBlank.png,,,,,,,,,6,0,24,0,,,,,,,,,,,,,1,['1'],0,[0.9705519676208496],,,2018_Feb_21_1616,59.7924664672,sequenceLearningTask,001,002_pilot,
min2.png,"['2', '1', '3', '4']",['2'],allBlank.png,,,,,,,,,6,1,25,1,,,,,,,,,,,,,0,"['3', '2']",0,"[0.37047815322875977, 0.4204061031341553]",,,2018_Feb_21_1616,59.7924664672,sequenceLearningTask,001,002_pilot,
min4.png,"['2', '1', '3', '4']",['4'],allBlank.png,,,,,,,,,6,2,26,3,,,,,,,,,,,,,1,['4'],0,[0.3706941604614258],,,2018_Feb_21_1616,59.7924664672,sequenceLearningTask,001,002_pilot,
min3.png,"['2', '1', '3', '4']",['3'],allBlank.png,,,,,,,,,6,3,27,2,,,,,,,,,,,,,1,['3'],0,[0.3213651180267334],,,2018_Feb_21_1616,59.7924664672,sequenceLearningTask,001,002_pilot,
min4.png,"['2', '1', '3', '4']",['4'],allBlank.png,,,,,,,,,7,0,28,3,,,,,,,,,,,,,1,['4'],0,[0.37216901779174805],,,2018_Feb_21_1616,59.7924664672,sequenceLearningTask,001,002_pilot,
min3.png,"['2', '1', '3', '4']",['3'],allBlank.png,,,,,,,,,7,1,29,2,,,,,,,,,,,,,1,['3'],0,[0.35646486282348633],,,2018_Feb_21_1616,59.7924664672,sequenceLearningTask,001,002_pilot,
min2.png,"['2', '1', '3', '4']",['2'],allBlank.png,,,,,,,,,7,2,30,1,,,,,,,,,,,,,1,['2'],0,[0.267042875289917],,,2018_Feb_21_1616,59.7924664672,sequenceLearningTask,001,002_pilot,
min1.png,"['2', '1', '3', '4']",['1'],allBlank.png,,,,,,,,,7,3,31,0,,,,,,,,,,,,,1,['1'],0,[0.3368959426879883],,,2018_Feb_21_1616,59.7924664672,sequenceLearningTask,001,002_pilot,
min3.png,"['2', '1', '3', '4']",['3'],allBlank.png,,,,,,,,,8,0,32,2,,,,,,,,,,,,,1,['3'],0,[0.24818015098571777],,,2018_Feb_21_1616,59.7924664672,sequenceLearningTask,001,002_pilot,
min2.png,"['2', '1', '3', '4']",['2'],allBlank.png,,,,,,,,,8,1,33,1,,,,,,,,,,,,,1,['2'],0,[0.2531108856201172],,,2018_Feb_21_1616,59.7924664672,sequenceLearningTask,001,002_pilot,
min4.png,"['2', '1', '3', '4']",['4'],allBlank.png,,,,,,,,,8,2,34,3,,,,,,,,,,,,,1,['4'],0,[0.20284295082092285],,,2018_Feb_21_1616,59.7924664672,sequenceLearningTask,001,002_pilot,
min1.png,"['2', '1', '3', '4']",['1'],allBlank.png,,,,,,,,,8,3,35,0,,,,,,,,,,,,,1,['1'],0,[0.2853529453277588],,,2018_Feb_21_1616,59.7924664672,sequenceLearningTask,001,002_pilot,
min4.png,"['2', '1', '3', '4']",['4'],allBlank.png,,,,,,,,,9,0,36,3,,,,,,,,,,,,,0,"['3', '4']",0,"[0.18679213523864746, 0.5756440162658691]",,,2018_Feb_21_1616,59.7924664672,sequenceLearningTask,001,002_pilot,
min1.png,"['2', '1', '3', '4']",['1'],allBlank.png,,,,,,,,,9,1,37,0,,,,,,,,,,,,,0,"['2', '1']",0,"[0.1926720142364502, 0.5070860385894775]",,,2018_Feb_21_1616,59.7924664672,sequenceLearningTask,001,002_pilot,
min2.png,"['2', '1', '3', '4']",['2'],allBlank.png,,,,,,,,,9,2,38,1,,,,,,,,,,,,,1,['2'],0,[0.40883803367614746],,,2018_Feb_21_1616,59.7924664672,sequenceLearningTask,001,002_pilot,
min3.png,"['2', '1', '3', '4']",['3'],allBlank.png,,,,,,,,,9,3,39,2,,,,,,,,,,,,,1,['3'],0,[0.2589249610900879],,,2018_Feb_21_1616,59.7924664672,sequenceLearningTask,001,002_pilot,
min4.png,"['2', '1', '3', '4']",['4'],allBlank.png,,,,,,,,,10,0,40,3,,,,,,,,,,,,,1,['4'],0,[0.2749171257019043],,,2018_Feb_21_1616,59.7924664672,sequenceLearningTask,001,002_pilot,
min2.png,"['2', '1', '3', '4']",['2'],allBlank.png,,,,,,,,,10,1,41,1,,,,,,,,,,,,,1,['2'],0,[0.327725887298584],,,2018_Feb_21_1616,59.7924664672,sequenceLearningTask,001,002_pilot,
min1.png,"['2', '1', '3', '4']",['1'],allBlank.png,,,,,,,,,10,2,42,0,,,,,,,,,,,,,1,['1'],0,[0.37583112716674805],,,2018_Feb_21_1616,59.7924664672,sequenceLearningTask,001,002_pilot,
min3.png,"['2', '1', '3', '4']",['3'],allBlank.png,,,,,,,,,10,3,43,2,,,,,,,,,,,,,1,['3'],0,[0.2282721996307373],,,2018_Feb_21_1616,59.7924664672,sequenceLearningTask,001,002_pilot,
min4.png,"['2', '1', '3', '4']",['4'],allBlank.png,,,,,,,,,11,0,44,3,,,,,,,,,,,,,1,['4'],0,[0.3196079730987549],,,2018_Feb_21_1616,59.7924664672,sequenceLearningTask,001,002_pilot,
min2.png,"['2', '1', '3', '4']",['2'],allBlank.png,,,,,,,,,11,1,45,1,,,,,,,,,,,,,1,['2'],0,[0.20964312553405762],,,2018_Feb_21_1616,59.7924664672,sequenceLearningTask,001,002_pilot,
min1.png,"['2', '1', '3', '4']",['1'],allBlank.png,,,,,,,,,11,2,46,0,,,,,,,,,,,,,1,['1'],0,[0.24600696563720703],,,2018_Feb_21_1616,59.7924664672,sequenceLearningTask,001,002_pilot,
min3.png,"['2', '1', '3', '4']",['3'],allBlank.png,,,,,,,,,11,3,47,2,,,,,,,,,,,,,1,['3'],0,[0.2133641242980957],,,2018_Feb_21_1616,59.7924664672,sequenceLearningTask,001,002_pilot,
min3.png,"['2', '1', '3', '4']",['3'],allBlank.png,,,,,,,,,12,0,48,2,,,,,,,,,,,,,0,"['4', '3']",0,"[0.21328496932983398, 0.5297939777374268]",,,2018_Feb_21_1616,59.7924664672,sequenceLearningTask,001,002_pilot,
min2.png,"['2', '1', '3', '4']",['2'],allBlank.png,,,,,,,,,12,1,49,1,,,,,,,,,,,,,1,['2'],0,[0.24678397178649902],,,2018_Feb_21_1616,59.7924664672,sequenceLearningTask,001,002_pilot,
min4.png,"['2', '1', '3', '4']",['4'],allBlank.png,,,,,,,,,12,2,50,3,,,,,,,,,,,,,1,['4'],0,[0.2636117935180664],,,2018_Feb_21_1616,59.7924664672,sequenceLearningTask,001,002_pilot,
min1.png,"['2', '1', '3', '4']",['1'],allBlank.png,,,,,,,,,12,3,51,0,,,,,,,,,,,,,1,['1'],0,[0.2969069480895996],,,2018_Feb_21_1616,59.7924664672,sequenceLearningTask,001,002_pilot,
min2.png,"['2', '1', '3', '4']",['2'],allBlank.png,,,,,,,,,13,0,52,1,,,,,,,,,,,,,1,['2'],0,[0.37709903717041016],,,2018_Feb_21_1616,59.7924664672,sequenceLearningTask,001,002_pilot,
min1.png,"['2', '1', '3', '4']",['1'],allBlank.png,,,,,,,,,13,1,53,0,,,,,,,,,,,,,1,['1'],0,[0.3967459201812744],,,2018_Feb_21_1616,59.7924664672,sequenceLearningTask,001,002_pilot,
min4.png,"['2', '1', '3', '4']",['4'],allBlank.png,,,,,,,,,13,2,54,3,,,,,,,,,,,,,1,['4'],0,[0.47812891006469727],,,2018_Feb_21_1616,59.7924664672,sequenceLearningTask,001,002_pilot,
min3.png,"['2', '1', '3', '4']",['3'],allBlank.png,,,,,,,,,13,3,55,2,,,,,,,,,,,,,1,['3'],0,[1.6035828590393066],,,2018_Feb_21_1616,59.7924664672,sequenceLearningTask,001,002_pilot,
min2.png,"['2', '1', '3', '4']",['2'],allBlank.png,,,,,,,,,14,0,56,1,,,,,,,,,,,,,1,['2'],0,[0.5037198066711426],,,2018_Feb_21_1616,59.7924664672,sequenceLearningTask,001,002_pilot,
min3.png,"['2', '1', '3', '4']",['3'],allBlank.png,,,,,,,,,14,1,57,2,,,,,,,,,,,,,1,['3'],0,[0.43648505210876465],,,2018_Feb_21_1616,59.7924664672,sequenceLearningTask,001,002_pilot,
min1.png,"['2', '1', '3', '4']",['1'],allBlank.png,,,,,,,,,14,2,58,0,,,,,,,,,,,,,1,['1'],0,[0.4027869701385498],,,2018_Feb_21_1616,59.7924664672,sequenceLearningTask,001,002_pilot,
min4.png,"['2', '1', '3', '4']",['4'],allBlank.png,,,,,,,,,14,3,59,3,,,,,,,,,,,,,1,['4'],0,[0.3369131088256836],,,2018_Feb_21_1616,59.7924664672,sequenceLearningTask,001,002_pilot,
min2.png,"['2', '1', '3', '4']",['2'],allBlank.png,,,,,,,,,15,0,60,1,,,,,,,,,,,,,1,['2'],0,[0.31940603256225586],,,2018_Feb_21_1616,59.7924664672,sequenceLearningTask,001,002_pilot,
min3.png,"['2', '1', '3', '4']",['3'],allBlank.png,,,,,,,,,15,1,61,2,,,,,,,,,,,,,1,['3'],0,[0.23732781410217285],,,2018_Feb_21_1616,59.7924664672,sequenceLearningTask,001,002_pilot,
min1.png,"['2', '1', '3', '4']",['1'],allBlank.png,,,,,,,,,15,2,62,0,,,,,,,,,,,,,1,['1'],0,[0.3870279788970947],,,2018_Feb_21_1616,59.7924664672,sequenceLearningTask,001,002_pilot,
min4.png,"['2', '1', '3', '4']",['4'],allBlank.png,,,,,,,,,15,3,63,3,,,,,,,,,,,,,1,['4'],0,[0.2711210250854492],,,2018_Feb_21_1616,59.7924664672,sequenceLearningTask,001,002_pilot,
min1.png,"['2', '1', '3', '4']",['1'],allBlank.png,,,,,,,,,16,0,64,0,,,,,,,,,,,,,1,['1'],0,[0.4043910503387451],,,2018_Feb_21_1616,59.7924664672,sequenceLearningTask,001,002_pilot,
min4.png,"['2', '1', '3', '4']",['4'],allBlank.png,,,,,,,,,16,1,65,3,,,,,,,,,,,,,0,"['3', '4']",0,"[0.2045581340789795, 0.47085094451904297]",,,2018_Feb_21_1616,59.7924664672,sequenceLearningTask,001,002_pilot,
min2.png,"['2', '1', '3', '4']",['2'],allBlank.png,,,,,,,,,16,2,66,1,,,,,,,,,,,,,1,['2'],0,[0.2711172103881836],,,2018_Feb_21_1616,59.7924664672,sequenceLearningTask,001,002_pilot,
min3.png,"['2', '1', '3', '4']",['3'],allBlank.png,,,,,,,,,16,3,67,2,,,,,,,,,,,,,1,['3'],0,[0.25582003593444824],,,2018_Feb_21_1616,59.7924664672,sequenceLearningTask,001,002_pilot,
min3.png,"['2', '1', '3', '4']",['3'],allBlank.png,,,,,,,,,17,0,68,2,,,,,,,,,,,,,1,['3'],0,[0.35665416717529297],,,2018_Feb_21_1616,59.7924664672,sequenceLearningTask,001,002_pilot,
min4.png,"['2', '1', '3', '4']",['4'],allBlank.png,,,,,,,,,17,1,69,3,,,,,,,,,,,,,1,['4'],0,[0.3202788829803467],,,2018_Feb_21_1616,59.7924664672,sequenceLearningTask,001,002_pilot,
min2.png,"['2', '1', '3', '4']",['2'],allBlank.png,,,,,,,,,17,2,70,1,,,,,,,,,,,,,1,['2'],0,[0.35395193099975586],,,2018_Feb_21_1616,59.7924664672,sequenceLearningTask,001,002_pilot,
min1.png,"['2', '1', '3', '4']",['1'],allBlank.png,,,,,,,,,17,3,71,0,,,,,,,,,,,,,1,['1'],0,[0.38628292083740234],,,2018_Feb_21_1616,59.7924664672,sequenceLearningTask,001,002_pilot,
min4.png,"['2', '1', '3', '4']",['4'],allBlank.png,,,,,,,,,18,0,72,3,,,,,,,,,,,,,0,"['3', '4']",0,"[0.25315308570861816, 0.5868589878082275]",,,2018_Feb_21_1616,59.7924664672,sequenceLearningTask,001,002_pilot,
min2.png,"['2', '1', '3', '4']",['2'],allBlank.png,,,,,,,,,18,1,73,1,,,,,,,,,,,,,1,['2'],0,[0.2869429588317871],,,2018_Feb_21_1616,59.7924664672,sequenceLearningTask,001,002_pilot,
min3.png,"['2', '1', '3', '4']",['3'],allBlank.png,,,,,,,,,18,2,74,2,,,,,,,,,,,,,1,['3'],0,[0.2525608539581299],,,2018_Feb_21_1616,59.7924664672,sequenceLearningTask,001,002_pilot,
min1.png,"['2', '1', '3', '4']",['1'],allBlank.png,,,,,,,,,18,3,75,0,,,,,,,,,,,,,1,['1'],0,[0.291748046875],,,2018_Feb_21_1616,59.7924664672,sequenceLearningTask,001,002_pilot,
min2.png,"['2', '1', '3', '4']",['2'],allBlank.png,,,,,,,,,19,0,76,1,,,,,,,,,,,,,1,['2'],0,[0.4237828254699707],,,2018_Feb_21_1616,59.7924664672,sequenceLearningTask,001,002_pilot,
min4.png,"['2', '1', '3', '4']",['4'],allBlank.png,,,,,,,,,19,1,77,3,,,,,,,,,,,,,1,['4'],0,[0.32618212699890137],,,2018_Feb_21_1616,59.7924664672,sequenceLearningTask,001,002_pilot,
min3.png,"['2', '1', '3', '4']",['3'],allBlank.png,,,,,,,,,19,2,78,2,,,,,,,,,,,,,1,['3'],0,[0.34069395065307617],,,2018_Feb_21_1616,59.7924664672,sequenceLearningTask,001,002_pilot,
min1.png,"['2', '1', '3', '4']",['1'],allBlank.png,,,,,,,,,19,3,79,0,,,,,,,,,,,,,1,['1'],0,[0.4098551273345947],,,2018_Feb_21_1616,59.7924664672,sequenceLearningTask,001,002_pilot,
min4.png,"['2', '1', '3', '4']",['4'],allBlank.png,,,,,,,,,20,0,80,3,,,,,,,,,,,,,1,['4'],0,[0.3278388977050781],,,2018_Feb_21_1616,59.7924664672,sequenceLearningTask,001,002_pilot,
min3.png,"['2', '1', '3', '4']",['3'],allBlank.png,,,,,,,,,20,1,81,2,,,,,,,,,,,,,1,['3'],0,[0.3946969509124756],,,2018_Feb_21_1616,59.7924664672,sequenceLearningTask,001,002_pilot,
min1.png,"['2', '1', '3', '4']",['1'],allBlank.png,,,,,,,,,20,2,82,0,,,,,,,,,,,,,1,['1'],0,[0.4120919704437256],,,2018_Feb_21_1616,59.7924664672,sequenceLearningTask,001,002_pilot,
min2.png,"['2', '1', '3', '4']",['2'],allBlank.png,,,,,,,,,20,3,83,1,,,,,,,,,,,,,1,['2'],0,[0.26232004165649414],,,2018_Feb_21_1616,59.7924664672,sequenceLearningTask,001,002_pilot,
min2.png,"['2', '1', '3', '4']",['2'],allBlank.png,,,,,,,,,21,0,84,1,,,,,,,,,,,,,1,['2'],0,[0.36159205436706543],,,2018_Feb_21_1616,59.7924664672,sequenceLearningTask,001,002_pilot,
min4.png,"['2', '1', '3', '4']",['4'],allBlank.png,,,,,,,,,21,1,85,3,,,,,,,,,,,,,1,['4'],0,[0.3457369804382324],,,2018_Feb_21_1616,59.7924664672,sequenceLearningTask,001,002_pilot,
min3.png,"['2', '1', '3', '4']",['3'],allBlank.png,,,,,,,,,21,2,86,2,,,,,,,,,,,,,1,['3'],0,[0.2785348892211914],,,2018_Feb_21_1616,59.7924664672,sequenceLearningTask,001,002_pilot,
min1.png,"['2', '1', '3', '4']",['1'],allBlank.png,,,,,,,,,21,3,87,0,,,,,,,,,,,,,1,['1'],0,[0.3627300262451172],,,2018_Feb_21_1616,59.7924664672,sequenceLearningTask,001,002_pilot,
min3.png,"['2', '1', '3', '4']",['3'],allBlank.png,,,,,,,,,22,0,88,2,,,,,,,,,,,,,1,['3'],0,[0.2634110450744629],,,2018_Feb_21_1616,59.7924664672,sequenceLearningTask,001,002_pilot,
min2.png,"['2', '1', '3', '4']",['2'],allBlank.png,,,,,,,,,22,1,89,1,,,,,,,,,,,,,1,['2'],0,[0.2631349563598633],,,2018_Feb_21_1616,59.7924664672,sequenceLearningTask,001,002_pilot,
min1.png,"['2', '1', '3', '4']",['1'],allBlank.png,,,,,,,,,22,2,90,0,,,,,,,,,,,,,1,['1'],0,[0.47901391983032227],,,2018_Feb_21_1616,59.7924664672,sequenceLearningTask,001,002_pilot,
min4.png,"['2', '1', '3', '4']",['4'],allBlank.png,,,,,,,,,22,3,91,3,,,,,,,,,,,,,0,"['3', '4']",0,"[0.2705118656158447, 0.4543178081512451]",,,2018_Feb_21_1616,59.7924664672,sequenceLearningTask,001,002_pilot,
min3.png,"['2', '1', '3', '4']",['3'],allBlank.png,,,,,,,,,23,0,92,2,,,,,,,,,,,,,1,['3'],0,[0.43016791343688965],,,2018_Feb_21_1616,59.7924664672,sequenceLearningTask,001,002_pilot,
min1.png,"['2', '1', '3', '4']",['1'],allBlank.png,,,,,,,,,23,1,93,0,,,,,,,,,,,,,1,['1'],0,[0.3961927890777588],,,2018_Feb_21_1616,59.7924664672,sequenceLearningTask,001,002_pilot,
min2.png,"['2', '1', '3', '4']",['2'],allBlank.png,,,,,,,,,23,2,94,1,,,,,,,,,,,,,1,['2'],0,[0.23618316650390625],,,2018_Feb_21_1616,59.7924664672,sequenceLearningTask,001,002_pilot,
min4.png,"['2', '1', '3', '4']",['4'],allBlank.png,,,,,,,,,23,3,95,3,,,,,,,,,,,,,1,['4'],0,[0.36710405349731445],,,2018_Feb_21_1616,59.7924664672,sequenceLearningTask,001,002_pilot,
min2.png,"['2', '1', '3', '4']",['2'],allBlank.png,,,,,,,,,24,0,96,1,,,,,,,,,,,,,1,['2'],0,[0.5205001831054688],,,2018_Feb_21_1616,59.7924664672,sequenceLearningTask,001,002_pilot,
min4.png,"['2', '1', '3', '4']",['4'],allBlank.png,,,,,,,,,24,1,97,3,,,,,,,,,,,,,0,"['3', '4']",0,"[0.367218017578125, 0.7366609573364258]",,,2018_Feb_21_1616,59.7924664672,sequenceLearningTask,001,002_pilot,
min3.png,"['2', '1', '3', '4']",['3'],allBlank.png,,,,,,,,,24,2,98,2,,,,,,,,,,,,,1,['3'],0,[0.27031493186950684],,,2018_Feb_21_1616,59.7924664672,sequenceLearningTask,001,002_pilot,
min1.png,"['2', '1', '3', '4']",['1'],allBlank.png,,,,,,,,,24,3,99,0,,,,,,,,,,,,,1,['1'],0,[0.35372114181518555],,,2018_Feb_21_1616,59.7924664672,sequenceLearningTask,001,002_pilot,
,,,allBlank.png,min1.png,min2.png,min3.png,min4.png,,,,,,,,,0,0,0,0,,,,,,,,,0,"['3', '4']",0,"[0.0003848075866699219, 0.36871886253356934]",,,2018_Feb_21_1616,59.7924664672,sequenceLearningTask,001,002_pilot,
,,,allBlank.png,min1.png,min2.png,min3.png,min4.png,,,,,,,,,1,0,1,0,,,,,,,,,0,"['3', '4']",0,"[0.1778879165649414, 0.5112287998199463]",,,2018_Feb_21_1616,59.7924664672,sequenceLearningTask,001,002_pilot,
,,,allBlank.png,min1.png,min2.png,min3.png,min4.png,,,,,,,,,2,0,2,0,,,,,,,,,1,['4'],0,[0.0003540515899658203],,,2018_Feb_21_1616,59.7924664672,sequenceLearningTask,001,002_pilot,
,,,allBlank.png,min1.png,min2.png,min3.png,min4.png,,,,,,,,,3,0,3,0,,,,,,,,,0,"['3', '4']",0,"[0.13629817962646484, 0.46976304054260254]",,,2018_Feb_21_1616,59.7924664672,sequenceLearningTask,001,002_pilot,
,,,allBlank.png,min1.png,min2.png,min3.png,min4.png,,,,,,,,,4,0,4,0,,,,,,,,,1,['4'],0,[0.2867300510406494],,,2018_Feb_21_1616,59.7924664672,sequenceLearningTask,001,002_pilot,
,,,allBlank.png,min1.png,min2.png,min3.png,min4.png,,,,,,,,,5,0,5,0,,,,,,,,,1,['4'],0,[0.3604929447174072],,,2018_Feb_21_1616,59.7924664672,sequenceLearningTask,001,002_pilot,
,,,allBlank.png,min1.png,min2.png,min3.png,min4.png,,,,,,,,,6,0,6,0,,,,,,,,,1,['4'],0,[0.3203291893005371],,,2018_Feb_21_1616,59.7924664672,sequenceLearningTask,001,002_pilot,
,,,allBlank.png,min1.png,min2.png,min3.png,min4.png,,,,,,,,,7,0,7,0,,,,,,,,,1,['4'],0,[0.3856799602508545],,,2018_Feb_21_1616,59.7924664672,sequenceLearningTask,001,002_pilot,
,,,allBlank.png,min1.png,min2.png,min3.png,min4.png,,,,,,,,,8,0,8,0,,,,,,,,,0,"['3', '4']",0,"[0.00047397613525390625, 0.5043280124664307]",,,2018_Feb_21_1616,59.7924664672,sequenceLearningTask,001,002_pilot,
,,,allBlank.png,min1.png,min2.png,min3.png,min4.png,,,,,,,,,9,0,9,0,,,,,,,,,1,['4'],0,[0.35196900367736816],,,2018_Feb_21_1616,59.7924664672,sequenceLearningTask,001,002_pilot,
,,,allBlank.png,min1.png,min2.png,min3.png,min4.png,,,,,,,,,,,,,0,0,0,0,,,,,1,['4'],0,[0.464385986328125],,,2018_Feb_21_1616,59.7924664672,sequenceLearningTask,001,002_pilot,
,,,allBlank.png,min1.png,min2.png,min3.png,min4.png,,,,,,,,,,,,,1,0,1,0,,,,,0,"['3', '4']",0,"[0.18680191040039062, 0.43665480613708496]",,,2018_Feb_21_1616,59.7924664672,sequenceLearningTask,001,002_pilot,
,,,allBlank.png,min1.png,min2.png,min3.png,min4.png,,,,,,,,,,,,,2,0,2,0,,,,,1,['4'],0,[0.489332914352417],,,2018_Feb_21_1616,59.7924664672,sequenceLearningTask,001,002_pilot,
,,,allBlank.png,min1.png,min2.png,min3.png,min4.png,,,,,,,,,,,,,3,0,3,0,,,,,1,['4'],0,[0.3416600227355957],,,2018_Feb_21_1616,59.7924664672,sequenceLearningTask,001,002_pilot,
,,,allBlank.png,min1.png,min2.png,min3.png,min4.png,,,,,,,,,,,,,4,0,4,0,,,,,0,"['3', '4']",0,"[0.24520206451416016, 0.3623960018157959]",,,2018_Feb_21_1616,59.7924664672,sequenceLearningTask,001,002_pilot,
,,,allBlank.png,min1.png,min2.png,min3.png,min4.png,,,,,,,,,,,,,5,0,5,0,,,,,0,"['3', '4']",0,"[0.18663311004638672, 0.43692922592163086]",,,2018_Feb_21_1616,59.7924664672,sequenceLearningTask,001,002_pilot,
,,,allBlank.png,min1.png,min2.png,min3.png,min4.png,,,,,,,,,,,,,6,0,6,0,,,,,1,['4'],0,[0.0865180492401123],,,2018_Feb_21_1616,59.7924664672,sequenceLearningTask,001,002_pilot,
,,,allBlank.png,min1.png,min2.png,min3.png,min4.png,,,,,,,,,,,,,7,0,7,0,,,,,0,"['3', '4']",0,"[0.26929497718811035, 0.35316991806030273]",,,2018_Feb_21_1616,59.7924664672,sequenceLearningTask,001,002_pilot,
,,,allBlank.png,min1.png,min2.png,min3.png,min4.png,,,,,,,,,,,,,8,0,8,0,,,,,0,"['3', '4']",0,"[0.0003800392150878906, 0.4769740104675293]",,,2018_Feb_21_1616,59.7924664672,sequenceLearningTask,001,002_pilot,
,,,allBlank.png,min1.png,min2.png,min3.png,min4.png,,,,,,,,,,,,,9,0,9,0,,,,,0,"['3', '4']",0,"[0.2627851963043213, 0.47952699661254883]",,,2018_Feb_21_1616,59.7924664672,sequenceLearningTask,001,002_pilot,
min4.png,"['2', '1', '3', '4']",['4'],allBlank.png,,,,,,,,,,,,,,,,,,,,,0,0,0,3,1,['4'],0,[0.45345592498779297],,,2018_Feb_21_1616,59.7924664672,sequenceLearningTask,001,002_pilot,
min3.png,"['2', '1', '3', '4']",['3'],allBlank.png,,,,,,,,,,,,,,,,,,,,,0,1,1,2,1,['3'],0,[0.3283989429473877],,,2018_Feb_21_1616,59.7924664672,sequenceLearningTask,001,002_pilot,
min1.png,"['2', '1', '3', '4']",['1'],allBlank.png,,,,,,,,,,,,,,,,,,,,,0,2,2,0,0,"['2', '1']",0,"[0.22053217887878418, 0.4534721374511719]",,,2018_Feb_21_1616,59.7924664672,sequenceLearningTask,001,002_pilot,
min2.png,"['2', '1', '3', '4']",['2'],allBlank.png,,,,,,,,,,,,,,,,,,,,,0,3,3,1,1,['2'],0,[0.2996490001678467],,,2018_Feb_21_1616,59.7924664672,sequenceLearningTask,001,002_pilot,
min1.png,"['2', '1', '3', '4']",['1'],allBlank.png,,,,,,,,,,,,,,,,,,,,,1,0,4,0,1,['1'],0,[0.503842830657959],,,2018_Feb_21_1616,59.7924664672,sequenceLearningTask,001,002_pilot,
min2.png,"['2', '1', '3', '4']",['2'],allBlank.png,,,,,,,,,,,,,,,,,,,,,1,1,5,1,1,['2'],0,[0.42021679878234863],,,2018_Feb_21_1616,59.7924664672,sequenceLearningTask,001,002_pilot,
min4.png,"['2', '1', '3', '4']",['4'],allBlank.png,,,,,,,,,,,,,,,,,,,,,1,2,6,3,1,['4'],0,[0.35044002532958984],,,2018_Feb_21_1616,59.7924664672,sequenceLearningTask,001,002_pilot,
min3.png,"['2', '1', '3', '4']",['3'],allBlank.png,,,,,,,,,,,,,,,,,,,,,1,3,7,2,1,['3'],0,[0.318878173828125],,,2018_Feb_21_1616,59.7924664672,sequenceLearningTask,001,002_pilot,
min4.png,"['2', '1', '3', '4']",['4'],allBlank.png,,,,,,,,,,,,,,,,,,,,,2,0,8,3,0,"['2', '4']",0,"[0.16989707946777344, 0.4365711212158203]",,,2018_Feb_21_1616,59.7924664672,sequenceLearningTask,001,002_pilot,
min1.png,"['2', '1', '3', '4']",['1'],allBlank.png,,,,,,,,,,,,,,,,,,,,,2,1,9,0,1,['1'],0,[0.2870299816131592],,,2018_Feb_21_1616,59.7924664672,sequenceLearningTask,001,002_pilot,
min3.png,"['2', '1', '3', '4']",['3'],allBlank.png,,,,,,,,,,,,,,,,,,,,,2,2,10,2,1,['3'],0,[0.21913599967956543],,,2018_Feb_21_1616,59.7924664672,sequenceLearningTask,001,002_pilot,
min2.png,"['2', '1', '3', '4']",['2'],allBlank.png,,,,,,,,,,,,,,,,,,,,,2,3,11,1,1,['2'],0,[0.25333404541015625],,,2018_Feb_21_1616,59.7924664672,sequenceLearningTask,001,002_pilot,
min3.png,"['2', '1', '3', '4']",['3'],allBlank.png,,,,,,,,,,,,,,,,,,,,,3,0,12,2,1,['3'],0,[0.5375301837921143],,,2018_Feb_21_1616,59.7924664672,sequenceLearningTask,001,002_pilot,
min1.png,"['2', '1', '3', '4']",['1'],allBlank.png,,,,,,,,,,,,,,,,,,,,,3,1,13,0,1,['1'],0,[0.3703949451446533],,,2018_Feb_21_1616,59.7924664672,sequenceLearningTask,001,002_pilot,
min2.png,"['2', '1', '3', '4']",['2'],allBlank.png,,,,,,,,,,,,,,,,,,,,,3,2,14,1,1,['2'],0,[0.33832383155822754],,,2018_Feb_21_1616,59.7924664672,sequenceLearningTask,001,002_pilot,
min4.png,"['2', '1', '3', '4']",['4'],allBlank.png,,,,,,,,,,,,,,,,,,,,,3,3,15,3,1,['4'],0,[0.30605602264404297],,,2018_Feb_21_1616,59.7924664672,sequenceLearningTask,001,002_pilot,
min1.png,"['2', '1', '3', '4']",['1'],allBlank.png,,,,,,,,,,,,,,,,,,,,,4,0,16,0,1,['1'],0,[0.3391709327697754],,,2018_Feb_21_1616,59.7924664672,sequenceLearningTask,001,002_pilot,
min2.png,"['2', '1', '3', '4']",['2'],allBlank.png,,,,,,,,,,,,,,,,,,,,,4,1,17,1,0,"['3', '2']",0,"[0.18636202812194824, 0.533689022064209]",,,2018_Feb_21_1616,59.7924664672,sequenceLearningTask,001,002_pilot,
min4.png,"['2', '1', '3', '4']",['4'],allBlank.png,,,,,,,,,,,,,,,,,,,,,4,2,18,3,1,['4'],0,[0.3039379119873047],,,2018_Feb_21_1616,59.7924664672,sequenceLearningTask,001,002_pilot,
min3.png,"['2', '1', '3', '4']",['3'],allBlank.png,,,,,,,,,,,,,,,,,,,,,4,3,19,2,1,['3'],0,[0.35372304916381836],,,2018_Feb_21_1616,59.7924664672,sequenceLearningTask,001,002_pilot,
min1.png,"['2', '1', '3', '4']",['1'],allBlank.png,,,,,,,,,,,,,,,,,,,,,5,0,20,0,1,['1'],0,[0.35260701179504395],,,2018_Feb_21_1616,59.7924664672,sequenceLearningTask,001,002_pilot,
min4.png,"['2', '1', '3', '4']",['4'],allBlank.png,,,,,,,,,,,,,,,,,,,,,5,1,21,3,1,['4'],0,[0.35362720489501953],,,2018_Feb_21_1616,59.7924664672,sequenceLearningTask,001,002_pilot,
min2.png,"['2', '1', '3', '4']",['2'],allBlank.png,,,,,,,,,,,,,,,,,,,,,5,2,22,1,1,['2'],0,[0.25303101539611816],,,2018_Feb_21_1616,59.7924664672,sequenceLearningTask,001,002_pilot,
min3.png,"['2', '1', '3', '4']",['3'],allBlank.png,,,,,,,,,,,,,,,,,,,,,5,3,23,2,1,['3'],0,[0.22090387344360352],,,2018_Feb_21_1616,59.7924664672,sequenceLearningTask,001,002_pilot,
min2.png,"['2', '1', '3', '4']",['2'],allBlank.png,,,,,,,,,,,,,,,,,,,,,6,0,24,1,1,['2'],0,[0.3898429870605469],,,2018_Feb_21_1616,59.7924664672,sequenceLearningTask,001,002_pilot,
min1.png,"['2', '1', '3', '4']",['1'],allBlank.png,,,,,,,,,,,,,,,,,,,,,6,1,25,0,1,['1'],0,[0.34238100051879883],,,2018_Feb_21_1616,59.7924664672,sequenceLearningTask,001,002_pilot,
min3.png,"['2', '1', '3', '4']",['3'],allBlank.png,,,,,,,,,,,,,,,,,,,,,6,2,26,2,1,['3'],0,[0.2772400379180908],,,2018_Feb_21_1616,59.7924664672,sequenceLearningTask,001,002_pilot,
min4.png,"['2', '1', '3', '4']",['4'],allBlank.png,,,,,,,,,,,,,,,,,,,,,6,3,27,3,1,['4'],0,[0.5107760429382324],,,2018_Feb_21_1616,59.7924664672,sequenceLearningTask,001,002_pilot,
min4.png,"['2', '1', '3', '4']",['4'],allBlank.png,,,,,,,,,,,,,,,,,,,,,7,0,28,3,1,['4'],0,[0.39415812492370605],,,2018_Feb_21_1616,59.7924664672,sequenceLearningTask,001,002_pilot,
min2.png,"['2', '1', '3', '4']",['2'],allBlank.png,,,,,,,,,,,,,,,,,,,,,7,1,29,1,1,['2'],0,[0.27814292907714844],,,2018_Feb_21_1616,59.7924664672,sequenceLearningTask,001,002_pilot,
min1.png,"['2', '1', '3', '4']",['1'],allBlank.png,,,,,,,,,,,,,,,,,,,,,7,2,30,0,1,['1'],0,[0.3624868392944336],,,2018_Feb_21_1616,59.7924664672,sequenceLearningTask,001,002_pilot,
min3.png,"['2', '1', '3', '4']",['3'],allBlank.png,,,,,,,,,,,,,,,,,,,,,7,3,31,2,1,['3'],0,[0.17583584785461426],,,2018_Feb_21_1616,59.7924664672,sequenceLearningTask,001,002_pilot,
min2.png,"['2', '1', '3', '4']",['2'],allBlank.png,,,,,,,,,,,,,,,,,,,,,8,0,32,1,1,['2'],0,[0.11240100860595703],,,2018_Feb_21_1616,59.7924664672,sequenceLearningTask,001,002_pilot,
min4.png,"['2', '1', '3', '4']",['4'],allBlank.png,,,,,,,,,,,,,,,,,,,,,8,1,33,3,1,['4'],0,[0.29668498039245605],,,2018_Feb_21_1616,59.7924664672,sequenceLearningTask,001,002_pilot,
min3.png,"['2', '1', '3', '4']",['3'],allBlank.png,,,,,,,,,,,,,,,,,,,,,8,2,34,2,1,['3'],0,[0.3970608711242676],,,2018_Feb_21_1616,59.7924664672,sequenceLearningTask,001,002_pilot,
min1.png,"['2', '1', '3', '4']",['1'],allBlank.png,,,,,,,,,,,,,,,,,,,,,8,3,35,0,1,['1'],0,[0.26211094856262207],,,2018_Feb_21_1616,59.7924664672,sequenceLearningTask,001,002_pilot,
min4.png,"['2', '1', '3', '4']",['4'],allBlank.png,,,,,,,,,,,,,,,,,,,,,9,0,36,3,1,['4'],0,[0.34670281410217285],,,2018_Feb_21_1616,59.7924664672,sequenceLearningTask,001,002_pilot,
min3.png,"['2', '1', '3', '4']",['3'],allBlank.png,,,,,,,,,,,,,,,,,,,,,9,1,37,2,0,"['4', '3']",0,"[0.3643219470977783, 0.7119669914245605]",,,2018_Feb_21_1616,59.7924664672,sequenceLearningTask,001,002_pilot,
min1.png,"['2', '1', '3', '4']",['1'],allBlank.png,,,,,,,,,,,,,,,,,,,,,9,2,38,0,1,['1'],0,[0.34650397300720215],,,2018_Feb_21_1616,59.7924664672,sequenceLearningTask,001,002_pilot,
min2.png,"['2', '1', '3', '4']",['2'],allBlank.png,,,,,,,,,,,,,,,,,,,,,9,3,39,1,1,['2'],0,[0.39696812629699707],,,2018_Feb_21_1616,59.7924664672,sequenceLearningTask,001,002_pilot,
min4.png,"['2', '1', '3', '4']",['4'],allBlank.png,,,,,,,,,,,,,,,,,,,,,10,0,40,3,1,['4'],0,[0.37806105613708496],,,2018_Feb_21_1616,59.7924664672,sequenceLearningTask,001,002_pilot,
min3.png,"['2', '1', '3', '4']",['3'],allBlank.png,,,,,,,,,,,,,,,,,,,,,10,1,41,2,1,['3'],0,[0.3474850654602051],,,2018_Feb_21_1616,59.7924664672,sequenceLearningTask,001,002_pilot,
min2.png,"['2', '1', '3', '4']",['2'],allBlank.png,,,,,,,,,,,,,,,,,,,,,10,2,42,1,1,['2'],0,[0.331679105758667],,,2018_Feb_21_1616,59.7924664672,sequenceLearningTask,001,002_pilot,
min1.png,"['2', '1', '3', '4']",['1'],allBlank.png,,,,,,,,,,,,,,,,,,,,,10,3,43,0,1,['1'],0,[0.2837648391723633],,,2018_Feb_21_1616,59.7924664672,sequenceLearningTask,001,002_pilot,
min1.png,"['2', '1', '3', '4']",['1'],allBlank.png,,,,,,,,,,,,,,,,,,,,,11,0,44,0,1,['1'],0,[0.40377092361450195],,,2018_Feb_21_1616,59.7924664672,sequenceLearningTask,001,002_pilot,
min4.png,"['2', '1', '3', '4']",['4'],allBlank.png,,,,,,,,,,,,,,,,,,,,,11,1,45,3,1,['4'],0,[0.33672308921813965],,,2018_Feb_21_1616,59.7924664672,sequenceLearningTask,001,002_pilot,
min3.png,"['2', '1', '3', '4']",['3'],allBlank.png,,,,,,,,,,,,,,,,,,,,,11,2,46,2,1,['3'],0,[0.3699188232421875],,,2018_Feb_21_1616,59.7924664672,sequenceLearningTask,001,002_pilot,
min2.png,"['2', '1', '3', '4']",['2'],allBlank.png,,,,,,,,,,,,,,,,,,,,,11,3,47,1,1,['2'],0,[0.3030521869659424],,,2018_Feb_21_1616,59.7924664672,sequenceLearningTask,001,002_pilot,
min3.png,"['2', '1', '3', '4']",['3'],allBlank.png,,,,,,,,,,,,,,,,,,,,,12,0,48,2,1,['3'],0,[0.37053394317626953],,,2018_Feb_21_1616,59.7924664672,sequenceLearningTask,001,002_pilot,
min1.png,"['2', '1', '3', '4']",['1'],allBlank.png,,,,,,,,,,,,,,,,,,,,,12,1,49,0,1,['1'],0,[0.3200950622558594],,,2018_Feb_21_1616,59.7924664672,sequenceLearningTask,001,002_pilot,
min2.png,"['2', '1', '3', '4']",['2'],allBlank.png,,,,,,,,,,,,,,,,,,,,,12,2,50,1,1,['2'],0,[0.4006540775299072],,,2018_Feb_21_1616,59.7924664672,sequenceLearningTask,001,002_pilot,
min4.png,"['2', '1', '3', '4']",['4'],allBlank.png,,,,,,,,,,,,,,,,,,,,,12,3,51,3,1,['4'],0,[0.32054996490478516],,,2018_Feb_21_1616,59.7924664672,sequenceLearningTask,001,002_pilot,
min2.png,"['2', '1', '3', '4']",['2'],allBlank.png,,,,,,,,,,,,,,,,,,,,,13,0,52,1,1,['2'],0,[0.40343785285949707],,,2018_Feb_21_1616,59.7924664672,sequenceLearningTask,001,002_pilot,
min1.png,"['2', '1', '3', '4']",['1'],allBlank.png,,,,,,,,,,,,,,,,,,,,,13,1,53,0,1,['1'],0,[0.3880889415740967],,,2018_Feb_21_1616,59.7924664672,sequenceLearningTask,001,002_pilot,
min4.png,"['2', '1', '3', '4']",['4'],allBlank.png,,,,,,,,,,,,,,,,,,,,,13,2,54,3,1,['4'],0,[0.4051539897918701],,,2018_Feb_21_1616,59.7924664672,sequenceLearningTask,001,002_pilot,
min3.png,"['2', '1', '3', '4']",['3'],allBlank.png,,,,,,,,,,,,,,,,,,,,,13,3,55,2,1,['3'],0,[0.42246484756469727],,,2018_Feb_21_1616,59.7924664672,sequenceLearningTask,001,002_pilot,
min4.png,"['2', '1', '3', '4']",['4'],allBlank.png,,,,,,,,,,,,,,,,,,,,,14,0,56,3,1,['4'],0,[0.4005401134490967],,,2018_Feb_21_1616,59.7924664672,sequenceLearningTask,001,002_pilot,
min3.png,"['2', '1', '3', '4']",['3'],allBlank.png,,,,,,,,,,,,,,,,,,,,,14,1,57,2,1,['3'],0,[0.5012938976287842],,,2018_Feb_21_1616,59.7924664672,sequenceLearningTask,001,002_pilot,
min1.png,"['2', '1', '3', '4']",['1'],allBlank.png,,,,,,,,,,,,,,,,,,,,,14,2,58,0,1,['1'],0,[0.30278515815734863],,,2018_Feb_21_1616,59.7924664672,sequenceLearningTask,001,002_pilot,
min2.png,"['2', '1', '3', '4']",['2'],allBlank.png,,,,,,,,,,,,,,,,,,,,,14,3,59,1,1,['2'],0,[0.3501570224761963],,,2018_Feb_21_1616,59.7924664672,sequenceLearningTask,001,002_pilot,
min3.png,"['2', '1', '3', '4']",['3'],allBlank.png,,,,,,,,,,,,,,,,,,,,,15,0,60,2,1,['3'],0,[0.283005952835083],,,2018_Feb_21_1616,59.7924664672,sequenceLearningTask,001,002_pilot,
min2.png,"['2', '1', '3', '4']",['2'],allBlank.png,,,,,,,,,,,,,,,,,,,,,15,1,61,1,1,['2'],0,[0.4372091293334961],,,2018_Feb_21_1616,59.7924664672,sequenceLearningTask,001,002_pilot,
min1.png,"['2', '1', '3', '4']",['1'],allBlank.png,,,,,,,,,,,,,,,,,,,,,15,2,62,0,1,['1'],0,[0.30937695503234863],,,2018_Feb_21_1616,59.7924664672,sequenceLearningTask,001,002_pilot,
min4.png,"['2', '1', '3', '4']",['4'],allBlank.png,,,,,,,,,,,,,,,,,,,,,15,3,63,3,1,['4'],0,[0.29256391525268555],,,2018_Feb_21_1616,59.7924664672,sequenceLearningTask,001,002_pilot,
min3.png,"['2', '1', '3', '4']",['3'],allBlank.png,,,,,,,,,,,,,,,,,,,,,16,0,64,2,1,['3'],0,[0.3439929485321045],,,2018_Feb_21_1616,59.7924664672,sequenceLearningTask,001,002_pilot,
min1.png,"['2', '1', '3', '4']",['1'],allBlank.png,,,,,,,,,,,,,,,,,,,,,16,1,65,0,1,['1'],0,[0.3762640953063965],,,2018_Feb_21_1616,59.7924664672,sequenceLearningTask,001,002_pilot,
min2.png,"['2', '1', '3', '4']",['2'],allBlank.png,,,,,,,,,,,,,,,,,,,,,16,2,66,1,0,"['3', '2']",0,"[0.17763495445251465, 0.5944039821624756]",,,2018_Feb_21_1616,59.7924664672,sequenceLearningTask,001,002_pilot,
min4.png,"['2', '1', '3', '4']",['4'],allBlank.png,,,,,,,,,,,,,,,,,,,,,16,3,67,3,1,['4'],0,[0.34459686279296875],,,2018_Feb_21_1616,59.7924664672,sequenceLearningTask,001,002_pilot,
min3.png,"['2', '1', '3', '4']",['3'],allBlank.png,,,,,,,,,,,,,,,,,,,,,17,0,68,2,1,['3'],0,[0.27784109115600586],,,2018_Feb_21_1616,59.7924664672,sequenceLearningTask,001,002_pilot,
min4.png,"['2', '1', '3', '4']",['4'],allBlank.png,,,,,,,,,,,,,,,,,,,,,17,1,69,3,1,['4'],0,[0.36211419105529785],,,2018_Feb_21_1616,59.7924664672,sequenceLearningTask,001,002_pilot,
min1.png,"['2', '1', '3', '4']",['1'],allBlank.png,,,,,,,,,,,,,,,,,,,,,17,2,70,0,1,['1'],0,[0.41263818740844727],,,2018_Feb_21_1616,59.7924664672,sequenceLearningTask,001,002_pilot,
min2.png,"['2', '1', '3', '4']",['2'],allBlank.png,,,,,,,,,,,,,,,,,,,,,17,3,71,1,1,['2'],0,[0.443695068359375],,,2018_Feb_21_1616,59.7924664672,sequenceLearningTask,001,002_pilot,
min4.png,"['2', '1', '3', '4']",['4'],allBlank.png,,,,,,,,,,,,,,,,,,,,,18,0,72,3,1,['4'],0,[0.3962380886077881],,,2018_Feb_21_1616,59.7924664672,sequenceLearningTask,001,002_pilot,
min2.png,"['2', '1', '3', '4']",['2'],allBlank.png,,,,,,,,,,,,,,,,,,,,,18,1,73,1,1,['2'],0,[0.32951903343200684],,,2018_Feb_21_1616,59.7924664672,sequenceLearningTask,001,002_pilot,
min1.png,"['2', '1', '3', '4']",['1'],allBlank.png,,,,,,,,,,,,,,,,,,,,,18,2,74,0,1,['1'],0,[0.4467599391937256],,,2018_Feb_21_1616,59.7924664672,sequenceLearningTask,001,002_pilot,
min3.png,"['2', '1', '3', '4']",['3'],allBlank.png,,,,,,,,,,,,,,,,,,,,,18,3,75,2,1,['3'],0,[0.33043503761291504],,,2018_Feb_21_1616,59.7924664672,sequenceLearningTask,001,002_pilot,
min2.png,"['2', '1', '3', '4']",['2'],allBlank.png,,,,,,,,,,,,,,,,,,,,,19,0,76,1,1,['2'],0,[0.23064398765563965],,,2018_Feb_21_1616,59.7924664672,sequenceLearningTask,001,002_pilot,
min4.png,"['2', '1', '3', '4']",['4'],allBlank.png,,,,,,,,,,,,,,,,,,,,,19,1,77,3,1,['4'],0,[0.1626429557800293],,,2018_Feb_21_1616,59.7924664672,sequenceLearningTask,001,002_pilot,
min3.png,"['2', '1', '3', '4']",['3'],allBlank.png,,,,,,,,,,,,,,,,,,,,,19,2,78,2,1,['3'],0,[0.4036710262298584],,,2018_Feb_21_1616,59.7924664672,sequenceLearningTask,001,002_pilot,
min1.png,"['2', '1', '3', '4']",['1'],allBlank.png,,,,,,,,,,,,,,,,,,,,,19,3,79,0,1,['1'],0,[0.32842493057250977],,,2018_Feb_21_1616,59.7924664672,sequenceLearningTask,001,002_pilot,
min3.png,"['2', '1', '3', '4']",['3'],allBlank.png,,,,,,,,,,,,,,,,,,,,,20,0,80,2,1,['3'],0,[0.21451711654663086],,,2018_Feb_21_1616,59.7924664672,sequenceLearningTask,001,002_pilot,
min1.png,"['2', '1', '3', '4']",['1'],allBlank.png,,,,,,,,,,,,,,,,,,,,,20,1,81,0,0,"['2', '1']",0,"[0.25336694717407227, 0.5027999877929688]",,,2018_Feb_21_1616,59.7924664672,sequenceLearningTask,001,002_pilot,
min2.png,"['2', '1', '3', '4']",['2'],allBlank.png,,,,,,,,,,,,,,,,,,,,,20,2,82,1,0,"['4', '2']",0,"[0.22012591361999512, 0.4537968635559082]",,,2018_Feb_21_1616,59.7924664672,sequenceLearningTask,001,002_pilot,
min4.png,"['2', '1', '3', '4']",['4'],allBlank.png,,,,,,,,,,,,,,,,,,,,,20,3,83,3,1,['4'],0,[0.2700810432434082],,,2018_Feb_21_1616,59.7924664672,sequenceLearningTask,001,002_pilot,
min1.png,"['2', '1', '3', '4']",['1'],allBlank.png,,,,,,,,,,,,,,,,,,,,,21,0,84,0,1,['1'],0,[0.3674299716949463],,,2018_Feb_21_1616,59.7924664672,sequenceLearningTask,001,002_pilot,
min3.png,"['2', '1', '3', '4']",['3'],allBlank.png,,,,,,,,,,,,,,,,,,,,,21,1,85,2,1,['3'],0,[0.2867240905761719],,,2018_Feb_21_1616,59.7924664672,sequenceLearningTask,001,002_pilot,
min4.png,"['2', '1', '3', '4']",['4'],allBlank.png,,,,,,,,,,,,,,,,,,,,,21,2,86,3,1,['4'],0,[0.40157389640808105],,,2018_Feb_21_1616,59.7924664672,sequenceLearningTask,001,002_pilot,
min2.png,"['2', '1', '3', '4']",['2'],allBlank.png,,,,,,,,,,,,,,,,,,,,,21,3,87,1,1,['2'],0,[0.3705868721008301],,,2018_Feb_21_1616,59.7924664672,sequenceLearningTask,001,002_pilot,
min2.png,"['2', '1', '3', '4']",['2'],allBlank.png,,,,,,,,,,,,,,,,,,,,,22,0,88,1,1,['2'],0,[0.45290684700012207],,,2018_Feb_21_1616,59.7924664672,sequenceLearningTask,001,002_pilot,
min3.png,"['2', '1', '3', '4']",['3'],allBlank.png,,,,,,,,,,,,,,,,,,,,,22,1,89,2,1,['3'],0,[0.3708369731903076],,,2018_Feb_21_1616,59.7924664672,sequenceLearningTask,001,002_pilot,
min4.png,"['2', '1', '3', '4']",['4'],allBlank.png,,,,,,,,,,,,,,,,,,,,,22,2,90,3,1,['4'],0,[0.38793087005615234],,,2018_Feb_21_1616,59.7924664672,sequenceLearningTask,001,002_pilot,
min1.png,"['2', '1', '3', '4']",['1'],allBlank.png,,,,,,,,,,,,,,,,,,,,,22,3,91,0,1,['1'],0,[0.3206901550292969],,,2018_Feb_21_1616,59.7924664672,sequenceLearningTask,001,002_pilot,
min1.png,"['2', '1', '3', '4']",['1'],allBlank.png,,,,,,,,,,,,,,,,,,,,,23,0,92,0,0,"['3', '1']",0,"[0.20440196990966797, 0.47133898735046387]",,,2018_Feb_21_1616,59.7924664672,sequenceLearningTask,001,002_pilot,
min4.png,"['2', '1', '3', '4']",['4'],allBlank.png,,,,,,,,,,,,,,,,,,,,,23,1,93,3,1,['4'],0,[0.38869619369506836],,,2018_Feb_21_1616,59.7924664672,sequenceLearningTask,001,002_pilot,
min2.png,"['2', '1', '3', '4']",['2'],allBlank.png,,,,,,,,,,,,,,,,,,,,,23,2,94,1,1,['2'],0,[0.2726149559020996],,,2018_Feb_21_1616,59.7924664672,sequenceLearningTask,001,002_pilot,
min3.png,"['2', '1', '3', '4']",['3'],allBlank.png,,,,,,,,,,,,,,,,,,,,,23,3,95,2,1,['3'],0,[0.2856130599975586],,,2018_Feb_21_1616,59.7924664672,sequenceLearningTask,001,002_pilot,
min3.png,"['2', '1', '3', '4']",['3'],allBlank.png,,,,,,,,,,,,,,,,,,,,,24,0,96,2,1,['3'],0,[0.386584997177124],,,2018_Feb_21_1616,59.7924664672,sequenceLearningTask,001,002_pilot,
min4.png,"['2', '1', '3', '4']",['4'],allBlank.png,,,,,,,,,,,,,,,,,,,,,24,1,97,3,1,['4'],0,[0.3530278205871582],,,2018_Feb_21_1616,59.7924664672,sequenceLearningTask,001,002_pilot,
min1.png,"['2', '1', '3', '4']",['1'],allBlank.png,,,,,,,,,,,,,,,,,,,,,24,2,98,0,1,['1'],0,[0.30243396759033203],,,2018_Feb_21_1616,59.7924664672,sequenceLearningTask,001,002_pilot,
min2.png,"['2', '1', '3', '4']",['2'],allBlank.png,,,,,,,,,,,,,,,,,,,,,24,3,99,1,1,['2'],0,[0.4034748077392578],,,2018_Feb_21_1616,59.7924664672,sequenceLearningTask,001,002_pilot,
,,,,,,,,,,,,,,,,,,,,,,,,,,,,,,,,space,2.07054805756,2018_Feb_21_1616,59.7924664672,sequenceLearningTask,001,002_pilot,
