pawPatrol1,pawPatrol2,pawPatrol3,pawPatrol4,blank,randomPaw,allowableKey,correctKey,trials.thisRepN,trials.thisTrialN,trials.thisN,trials.thisIndex,trials_2.thisRepN,trials_2.thisTrialN,trials_2.thisN,trials_2.thisIndex,trials_3.thisRepN,trials_3.thisTrialN,trials_3.thisN,trials_3.thisIndex,trials_5.thisRepN,trials_5.thisTrialN,trials_5.thisN,trials_5.thisIndex,trials_4.thisRepN,trials_4.thisTrialN,trials_4.thisN,trials_4.thisIndex,trialCorrect,key_resp_9.keys,key_resp_9.corr,key_resp_9.rt,key_resp_5.keys,key_resp_5.corr,key_resp_5.rt,key_resp_7.keys,key_resp_7.corr,key_resp_7.rt,key_resp_6.keys,key_resp_6.corr,key_resp_6.rt,key_resp_8.keys,key_resp_8.corr,key_resp_8.rt,key_resp_10.keys,key_resp_10.rt,date,frameRate,expName,session,participant,
min1.png,min2.png,min3.png,min4.png,allBlank.png,,,,,,,,,,,,0,0,0,0,,,,,,,,,0,"['3', '4']",0,"[0.22007203102111816, 0.45523715019226074]",,,,,,,,,,,,,,,2018_Feb_21_1419,None,sequenceLearningTask,001,999,
min1.png,min2.png,min3.png,min4.png,allBlank.png,,,,,,,,,,,,1,0,1,0,,,,,,,,,1,['4'],0,[0.3511168956756592],,,,,,,,,,,,,,,2018_Feb_21_1419,None,sequenceLearningTask,001,999,
min1.png,min2.png,min3.png,min4.png,allBlank.png,,,,,,,,,,,,2,0,2,0,,,,,,,,,1,['4'],0,[0.0004000663757324219],,,,,,,,,,,,,,,2018_Feb_21_1419,None,sequenceLearningTask,001,999,
min1.png,min2.png,min3.png,min4.png,allBlank.png,,,,,,,,,,,,3,0,3,0,,,,,,,,,1,['4'],0,[0.3878960609436035],,,,,,,,,,,,,,,2018_Feb_21_1419,None,sequenceLearningTask,001,999,
min1.png,min2.png,min3.png,min4.png,allBlank.png,,,,,,,,,,,,4,0,4,0,,,,,,,,,1,['4'],0,[0.1452779769897461],,,,,,,,,,,,,,,2018_Feb_21_1419,None,sequenceLearningTask,001,999,
min1.png,min2.png,min3.png,min4.png,allBlank.png,,,,,,,,,,,,5,0,5,0,,,,,,,,,0,"['3', '4']",0,"[0.02973794937133789, 0.5998620986938477]",,,,,,,,,,,,,,,2018_Feb_21_1419,None,sequenceLearningTask,001,999,
min1.png,min2.png,min3.png,min4.png,allBlank.png,,,,,,,,,,,,6,0,6,0,,,,,,,,,0,"['3', '4']",0,"[0.1909198760986328, 0.5239219665527344]",,,,,,,,,,,,,,,2018_Feb_21_1419,None,sequenceLearningTask,001,999,
min1.png,min2.png,min3.png,min4.png,allBlank.png,,,,,,,,,,,,7,0,7,0,,,,,,,,,0,"['3', '4']",0,"[0.25893497467041016, 0.5277941226959229]",,,,,,,,,,,,,,,2018_Feb_21_1419,None,sequenceLearningTask,001,999,
min1.png,min2.png,min3.png,min4.png,allBlank.png,,,,,,,,,,,,8,0,8,0,,,,,,,,,1,['4'],0,[0.2766609191894531],,,,,,,,,,,,,,,2018_Feb_21_1419,None,sequenceLearningTask,001,999,
min1.png,min2.png,min3.png,min4.png,allBlank.png,,,,,,,,,,,,9,0,9,0,,,,,,,,,0,"['3', '4']",0,"[0.29872918128967285, 0.5005509853363037]",,,,,,,,,,,,,,,2018_Feb_21_1419,None,sequenceLearningTask,001,999,
min1.png,min2.png,min3.png,min4.png,allBlank.png,,,,,,,,,,,,,,,,0,0,0,0,,,,,,,,,['1'],0,[0.7708311080932617],['3'],0,[0.07747817039489746],['1'],0,[0.27396106719970703],['2'],0,[0.0003590583801269531],,,2018_Feb_21_1419,None,sequenceLearningTask,001,999,
min1.png,min2.png,min3.png,min4.png,allBlank.png,,,,,,,,,,,,,,,,1,0,1,0,,,,,,,,,['1'],0,[0.2963278293609619],['3'],0,[0.4130580425262451],['2'],0,[0.1985180377960205],['1'],0,[0.08053398132324219],,,2018_Feb_21_1419,None,sequenceLearningTask,001,999,
min1.png,min2.png,min3.png,min4.png,allBlank.png,,,,,,,,,,,,,,,,2,0,2,0,,,,,,,,,"['1', '1']",0,[0.0003662109375],"['1', '1', '1']",0,[0.0027489662170410156],"['1', '1', '1']",0,[0.0007328987121582031],"['1', '1', '1']",0,[0.0003159046173095703],,,2018_Feb_21_1419,None,sequenceLearningTask,001,999,
min1.png,min2.png,min3.png,min4.png,allBlank.png,,,,,,,,,,,,,,,,3,0,3,0,,,,,,,,,"['1', '1', '1']",0,[0.0021119117736816406],"['1', '1', '1']",0,[0.0007889270782470703],"['1', '1']",0,[0.0003521442413330078],"['1', '1', '1']",0,[0.00074005126953125],,,2018_Feb_21_1419,None,sequenceLearningTask,001,999,
min1.png,min2.png,min3.png,min4.png,allBlank.png,,,,,,,,,,,,,,,,4,0,4,0,,,,,,,,,"['1', '1', '1']",0,[0.0023620128631591797],['1'],0,[0.0006539821624755859],['1'],0,[0.4187650680541992],['1'],0,[0.2852799892425537],,,2018_Feb_21_1419,None,sequenceLearningTask,001,999,
min1.png,min2.png,min3.png,min4.png,allBlank.png,,,,,,,,,,,,,,,,5,0,5,0,,,,,,,,,['1'],0,[0.0024499893188476562],"['1', '1', '1']",0,[0.0004551410675048828],"['1', '1', '1']",0,[0.0022618770599365234],"['1', '1']",0,[0.00039196014404296875],,,2018_Feb_21_1419,None,sequenceLearningTask,001,999,
min1.png,min2.png,min3.png,min4.png,allBlank.png,,,,,,,,,,,,,,,,6,0,6,0,,,,,,,,,"['1', '1', '1']",0,[0.0010280609130859375],"['1', '1']",0,[0.0006890296936035156],"['1', '1']",0,[0.0003509521484375],"['1', '1', '1']",0,[0.0004551410675048828],,,2018_Feb_21_1419,None,sequenceLearningTask,001,999,
min1.png,min2.png,min3.png,min4.png,allBlank.png,,,,,,,,,,,,,,,,7,0,7,0,,,,,,,,,"['1', '1']",0,[0.0012328624725341797],"['1', '1']",0,[0.0005788803100585938],"['1', '1']",0,[0.0004639625549316406],"['1', '1']",0,[0.001132965087890625],,,2018_Feb_21_1419,None,sequenceLearningTask,001,999,
min1.png,min2.png,min3.png,min4.png,allBlank.png,,,,,,,,,,,,,,,,8,0,8,0,,,,,,,,,"['1', '1']",0,[0.0008528232574462891],"['1', '1', '1']",0,[0.0020499229431152344],"['1', '1']",0,[0.002463102340698242],"['1', '1']",0,[0.00032901763916015625],,,2018_Feb_21_1419,None,sequenceLearningTask,001,999,
min1.png,min2.png,min3.png,min4.png,allBlank.png,,,,,,,,,,,,,,,,9,0,9,0,,,,,,,,,"['1', '1']",0,[0.0005459785461425781],"['1', '1']",0,[0.0004520416259765625],"['1', '1']",0,[0.002344846725463867],"['1', '1']",0,[0.00035500526428222656],,,2018_Feb_21_1419,None,sequenceLearningTask,001,999,
,,,,allBlank.png,min1.png,"['2', '1', '3', '4']",['1'],,,,,,,,,,,,,,,,,0,0,0,0,,"['1', '1', '1']",0,[0.00035691261291503906],,,,,,,,,,,,,,,2018_Feb_21_1419,None,sequenceLearningTask,001,999,
,,,,allBlank.png,min4.png,"['2', '1', '3', '4']",['4'],,,,,,,,,,,,,,,,,0,1,1,3,,['4'],0,[0.40962982177734375],,,,,,,,,,,,,,,2018_Feb_21_1419,None,sequenceLearningTask,001,999,
,,,,allBlank.png,min3.png,"['2', '1', '3', '4']",['3'],,,,,,,,,,,,,,,,,0,2,2,2,,['3'],0,[0.36051201820373535],,,,,,,,,,,,,,,2018_Feb_21_1419,None,sequenceLearningTask,001,999,
,,,,allBlank.png,min2.png,"['2', '1', '3', '4']",['2'],,,,,,,,,,,,,,,,,0,3,3,1,,['2'],0,[0.2924981117248535],,,,,,,,,,,,,,,2018_Feb_21_1419,None,sequenceLearningTask,001,999,
,,,,allBlank.png,min1.png,"['2', '1', '3', '4']",['1'],,,,,,,,,,,,,,,,,1,0,4,0,,['1'],0,[0.39031195640563965],,,,,,,,,,,,,,,2018_Feb_21_1419,None,sequenceLearningTask,001,999,
,,,,allBlank.png,min3.png,"['2', '1', '3', '4']",['3'],,,,,,,,,,,,,,,,,1,1,5,2,,['3'],0,[0.4596130847930908],,,,,,,,,,,,,,,2018_Feb_21_1419,None,sequenceLearningTask,001,999,
,,,,allBlank.png,min2.png,"['2', '1', '3', '4']",['2'],,,,,,,,,,,,,,,,,1,2,6,1,,['2'],0,[0.24038410186767578],,,,,,,,,,,,,,,2018_Feb_21_1419,None,sequenceLearningTask,001,999,
,,,,allBlank.png,min4.png,"['2', '1', '3', '4']",['4'],,,,,,,,,,,,,,,,,1,3,7,3,,['4'],0,[0.16199803352355957],,,,,,,,,,,,,,,2018_Feb_21_1419,None,sequenceLearningTask,001,999,
,,,,allBlank.png,min2.png,"['2', '1', '3', '4']",['2'],,,,,,,,,,,,,,,,,2,0,8,1,,['4'],0,[0.19573187828063965],,,,,,,,,,,,,,,2018_Feb_21_1419,None,sequenceLearningTask,001,999,
,,,,allBlank.png,min4.png,"['2', '1', '3', '4']",['4'],,,,,,,,,,,,,,,,,2,1,9,3,,['4'],0,[0.44992613792419434],,,,,,,,,,,,,,,2018_Feb_21_1419,None,sequenceLearningTask,001,999,
,,,,allBlank.png,min3.png,"['2', '1', '3', '4']",['3'],,,,,,,,,,,,,,,,,2,2,10,2,,['4'],0,[0.14775300025939941],,,,,,,,,,,,,,,2018_Feb_21_1419,None,sequenceLearningTask,001,999,
,,,,allBlank.png,min1.png,"['2', '1', '3', '4']",['1'],,,,,,,,,,,,,,,,,2,3,11,0,,['4'],0,[0.05999016761779785],,,,,,,,,,,,,,,2018_Feb_21_1419,None,sequenceLearningTask,001,999,
,,,,allBlank.png,min3.png,"['2', '1', '3', '4']",['3'],,,,,,,,,,,,,,,,,3,0,12,2,,['1'],0,[0.4277670383453369],,,,,,,,,,,,,,,2018_Feb_21_1419,None,sequenceLearningTask,001,999,
,,,,allBlank.png,min1.png,"['2', '1', '3', '4']",['1'],,,,,,,,,,,,,,,,,3,1,13,0,,['1'],0,[0.7303099632263184],,,,,,,,,,,,,,,2018_Feb_21_1419,None,sequenceLearningTask,001,999,
,,,,allBlank.png,min4.png,"['2', '1', '3', '4']",['4'],,,,,,,,,,,,,,,,,3,2,14,3,,['4'],0,[0.37897586822509766],,,,,,,,,,,,,,,2018_Feb_21_1419,None,sequenceLearningTask,001,999,
,,,,allBlank.png,min2.png,"['2', '1', '3', '4']",['2'],,,,,,,,,,,,,,,,,3,3,15,1,,['2'],0,[0.24416399002075195],,,,,,,,,,,,,,,2018_Feb_21_1419,None,sequenceLearningTask,001,999,
,,,,allBlank.png,min1.png,"['2', '1', '3', '4']",['1'],,,,,,,,,,,,,,,,,4,0,16,0,,['1'],0,[0.4142138957977295],,,,,,,,,,,,,,,2018_Feb_21_1419,None,sequenceLearningTask,001,999,
,,,,allBlank.png,min4.png,"['2', '1', '3', '4']",['4'],,,,,,,,,,,,,,,,,4,1,17,3,,['3'],0,[0.2791099548339844],,,,,,,,,,,,,,,2018_Feb_21_1419,None,sequenceLearningTask,001,999,
,,,,allBlank.png,min3.png,"['2', '1', '3', '4']",['3'],,,,,,,,,,,,,,,,,4,2,18,2,,['2'],0,[0.2642228603363037],,,,,,,,,,,,,,,2018_Feb_21_1419,None,sequenceLearningTask,001,999,
,,,,allBlank.png,min2.png,"['2', '1', '3', '4']",['2'],,,,,,,,,,,,,,,,,4,3,19,1,,['2'],0,[0.5982940196990967],,,,,,,,,,,,,,,2018_Feb_21_1419,None,sequenceLearningTask,001,999,
,,,,allBlank.png,min2.png,"['2', '1', '3', '4']",['2'],,,,,,,,,,,,,,,,,5,0,20,1,,['2'],0,[0.4506559371948242],,,,,,,,,,,,,,,2018_Feb_21_1419,None,sequenceLearningTask,001,999,
,,,,allBlank.png,min1.png,"['2', '1', '3', '4']",['1'],,,,,,,,,,,,,,,,,5,1,21,0,,['4'],0,[0.09921598434448242],,,,,,,,,,,,,,,2018_Feb_21_1419,None,sequenceLearningTask,001,999,
,,,,allBlank.png,min3.png,"['2', '1', '3', '4']",['3'],,,,,,,,,,,,,,,,,5,2,22,2,,['2'],0,[0.2535879611968994],,,,,,,,,,,,,,,2018_Feb_21_1419,None,sequenceLearningTask,001,999,
,,,,allBlank.png,min4.png,"['2', '1', '3', '4']",['4'],,,,,,,,,,,,,,,,,5,3,23,3,,['4'],0,[0.18409419059753418],,,,,,,,,,,,,,,2018_Feb_21_1419,None,sequenceLearningTask,001,999,
,,,,allBlank.png,min4.png,"['2', '1', '3', '4']",['4'],,,,,,,,,,,,,,,,,6,0,24,3,,['2'],0,[0.3818020820617676],,,,,,,,,,,,,,,2018_Feb_21_1419,None,sequenceLearningTask,001,999,
,,,,allBlank.png,min1.png,"['2', '1', '3', '4']",['1'],,,,,,,,,,,,,,,,,6,1,25,0,,['1'],0,[0.08288908004760742],,,,,,,,,,,,,,,2018_Feb_21_1419,None,sequenceLearningTask,001,999,
,,,,allBlank.png,min2.png,"['2', '1', '3', '4']",['2'],,,,,,,,,,,,,,,,,6,2,26,1,,['3'],0,[0.1836690902709961],,,,,,,,,,,,,,,2018_Feb_21_1419,None,sequenceLearningTask,001,999,
,,,,allBlank.png,min3.png,"['2', '1', '3', '4']",['3'],,,,,,,,,,,,,,,,,6,3,27,2,,['4'],0,[0.819835901260376],,,,,,,,,,,,,,,2018_Feb_21_1419,None,sequenceLearningTask,001,999,
,,,,allBlank.png,min4.png,"['2', '1', '3', '4']",['4'],,,,,,,,,,,,,,,,,7,0,28,3,,['4'],0,[0.38957905769348145],,,,,,,,,,,,,,,2018_Feb_21_1419,None,sequenceLearningTask,001,999,
,,,,allBlank.png,min1.png,"['2', '1', '3', '4']",['1'],,,,,,,,,,,,,,,,,7,1,29,0,,['2'],0,[0.25139522552490234],,,,,,,,,,,,,,,2018_Feb_21_1419,None,sequenceLearningTask,001,999,
,,,,allBlank.png,min2.png,"['2', '1', '3', '4']",['2'],,,,,,,,,,,,,,,,,7,2,30,1,,['2'],0,[0.43401098251342773],,,,,,,,,,,,,,,2018_Feb_21_1419,None,sequenceLearningTask,001,999,
,,,,allBlank.png,min3.png,"['2', '1', '3', '4']",['3'],,,,,,,,,,,,,,,,,7,3,31,2,,['3'],0,[0.4695749282836914],,,,,,,,,,,,,,,2018_Feb_21_1419,None,sequenceLearningTask,001,999,
,,,,allBlank.png,min3.png,"['2', '1', '3', '4']",['3'],,,,,,,,,,,,,,,,,8,0,32,2,,['4'],0,[0.1874070167541504],,,,,,,,,,,,,,,2018_Feb_21_1419,None,sequenceLearningTask,001,999,
,,,,allBlank.png,min2.png,"['2', '1', '3', '4']",['2'],,,,,,,,,,,,,,,,,8,1,33,1,,['2'],0,[0.3225729465484619],,,,,,,,,,,,,,,2018_Feb_21_1419,None,sequenceLearningTask,001,999,
,,,,allBlank.png,min1.png,"['2', '1', '3', '4']",['1'],,,,,,,,,,,,,,,,,8,2,34,0,,['1'],0,[0.551934003829956],,,,,,,,,,,,,,,2018_Feb_21_1419,None,sequenceLearningTask,001,999,
,,,,allBlank.png,min4.png,"['2', '1', '3', '4']",['4'],,,,,,,,,,,,,,,,,8,3,35,3,,['4'],0,[0.4376339912414551],,,,,,,,,,,,,,,2018_Feb_21_1419,None,sequenceLearningTask,001,999,
,,,,allBlank.png,min1.png,"['2', '1', '3', '4']",['1'],,,,,,,,,,,,,,,,,9,0,36,0,,['2'],0,[0.27168893814086914],,,,,,,,,,,,,,,2018_Feb_21_1419,None,sequenceLearningTask,001,999,
,,,,allBlank.png,min2.png,"['2', '1', '3', '4']",['2'],,,,,,,,,,,,,,,,,9,1,37,1,,['2'],0,[0.472761869430542],,,,,,,,,,,,,,,2018_Feb_21_1419,None,sequenceLearningTask,001,999,
,,,,allBlank.png,min3.png,"['2', '1', '3', '4']",['3'],,,,,,,,,,,,,,,,,9,2,38,2,,['3'],0,[0.2898530960083008],,,,,,,,,,,,,,,2018_Feb_21_1419,None,sequenceLearningTask,001,999,
,,,,allBlank.png,min4.png,"['2', '1', '3', '4']",['4'],,,,,,,,,,,,,,,,,9,3,39,3,,['4'],0,[0.243743896484375],,,,,,,,,,,,,,,2018_Feb_21_1419,None,sequenceLearningTask,001,999,
,,,,allBlank.png,min3.png,"['2', '1', '3', '4']",['3'],,,,,,,,,,,,,,,,,10,0,40,2,,['3'],0,[0.35935401916503906],,,,,,,,,,,,,,,2018_Feb_21_1419,None,sequenceLearningTask,001,999,
,,,,allBlank.png,min1.png,"['2', '1', '3', '4']",['1'],,,,,,,,,,,,,,,,,10,1,41,0,,['1'],0,[0.37210702896118164],,,,,,,,,,,,,,,2018_Feb_21_1419,None,sequenceLearningTask,001,999,
,,,,allBlank.png,min4.png,"['2', '1', '3', '4']",['4'],,,,,,,,,,,,,,,,,10,2,42,3,,['4'],0,[0.3778419494628906],,,,,,,,,,,,,,,2018_Feb_21_1419,None,sequenceLearningTask,001,999,
,,,,allBlank.png,min2.png,"['2', '1', '3', '4']",['2'],,,,,,,,,,,,,,,,,10,3,43,1,,['2'],0,[0.3181009292602539],,,,,,,,,,,,,,,2018_Feb_21_1419,None,sequenceLearningTask,001,999,
,,,,allBlank.png,min1.png,"['2', '1', '3', '4']",['1'],,,,,,,,,,,,,,,,,11,0,44,0,,['1'],0,[0.37519407272338867],,,,,,,,,,,,,,,2018_Feb_21_1419,None,sequenceLearningTask,001,999,
,,,,allBlank.png,min4.png,"['2', '1', '3', '4']",['4'],,,,,,,,,,,,,,,,,11,1,45,3,,['4'],0,[0.411531925201416],,,,,,,,,,,,,,,2018_Feb_21_1419,None,sequenceLearningTask,001,999,
,,,,allBlank.png,min3.png,"['2', '1', '3', '4']",['3'],,,,,,,,,,,,,,,,,11,2,46,2,,['2'],0,[0.2771430015563965],,,,,,,,,,,,,,,2018_Feb_21_1419,None,sequenceLearningTask,001,999,
,,,,allBlank.png,min2.png,"['2', '1', '3', '4']",['2'],,,,,,,,,,,,,,,,,11,3,47,1,,['2'],0,[0.31088900566101074],,,,,,,,,,,,,,,2018_Feb_21_1419,None,sequenceLearningTask,001,999,
,,,,allBlank.png,min2.png,"['2', '1', '3', '4']",['2'],,,,,,,,,,,,,,,,,12,0,48,1,,['1'],0,[0.14133191108703613],,,,,,,,,,,,,,,2018_Feb_21_1419,None,sequenceLearningTask,001,999,
,,,,allBlank.png,min3.png,"['2', '1', '3', '4']",['3'],,,,,,,,,,,,,,,,,12,1,49,2,,['3'],0,[0.5441629886627197],,,,,,,,,,,,,,,2018_Feb_21_1419,None,sequenceLearningTask,001,999,
,,,,allBlank.png,min1.png,"['2', '1', '3', '4']",['1'],,,,,,,,,,,,,,,,,12,2,50,0,,['1'],0,[0.3653409481048584],,,,,,,,,,,,,,,2018_Feb_21_1419,None,sequenceLearningTask,001,999,
,,,,allBlank.png,min4.png,"['2', '1', '3', '4']",['4'],,,,,,,,,,,,,,,,,12,3,51,3,,['4'],0,[0.31388092041015625],,,,,,,,,,,,,,,2018_Feb_21_1419,None,sequenceLearningTask,001,999,
,,,,allBlank.png,min4.png,"['2', '1', '3', '4']",['4'],,,,,,,,,,,,,,,,,13,0,52,3,,['4'],0,[0.3806917667388916],,,,,,,,,,,,,,,2018_Feb_21_1419,None,sequenceLearningTask,001,999,
,,,,allBlank.png,min2.png,"['2', '1', '3', '4']",['2'],,,,,,,,,,,,,,,,,13,1,53,1,,['2'],0,[0.345714807510376],,,,,,,,,,,,,,,2018_Feb_21_1419,None,sequenceLearningTask,001,999,
,,,,allBlank.png,min3.png,"['2', '1', '3', '4']",['3'],,,,,,,,,,,,,,,,,13,2,54,2,,['3'],0,[0.2564890384674072],,,,,,,,,,,,,,,2018_Feb_21_1419,None,sequenceLearningTask,001,999,
,,,,allBlank.png,min1.png,"['2', '1', '3', '4']",['1'],,,,,,,,,,,,,,,,,13,3,55,0,,['1'],0,[0.3498659133911133],,,,,,,,,,,,,,,2018_Feb_21_1419,None,sequenceLearningTask,001,999,
,,,,allBlank.png,min3.png,"['2', '1', '3', '4']",['3'],,,,,,,,,,,,,,,,,14,0,56,2,,['4'],0,[0.3191678524017334],,,,,,,,,,,,,,,2018_Feb_21_1419,None,sequenceLearningTask,001,999,
,,,,allBlank.png,min1.png,"['2', '1', '3', '4']",['1'],,,,,,,,,,,,,,,,,14,1,57,0,,['2'],0,[0.278195858001709],,,,,,,,,,,,,,,2018_Feb_21_1419,None,sequenceLearningTask,001,999,
,,,,allBlank.png,min4.png,"['2', '1', '3', '4']",['4'],,,,,,,,,,,,,,,,,14,2,58,3,,['4'],0,[0.22693204879760742],,,,,,,,,,,,,,,2018_Feb_21_1419,None,sequenceLearningTask,001,999,
,,,,allBlank.png,min2.png,"['2', '1', '3', '4']",['2'],,,,,,,,,,,,,,,,,14,3,59,1,,['2'],0,[0.17971491813659668],,,,,,,,,,,,,,,2018_Feb_21_1419,None,sequenceLearningTask,001,999,
,,,,allBlank.png,min1.png,"['2', '1', '3', '4']",['1'],,,,,,,,,,,,,,,,,15,0,60,0,,['1'],0,[0.4470689296722412],,,,,,,,,,,,,,,2018_Feb_21_1419,None,sequenceLearningTask,001,999,
,,,,allBlank.png,min3.png,"['2', '1', '3', '4']",['3'],,,,,,,,,,,,,,,,,15,1,61,2,,['3'],0,[0.43795299530029297],,,,,,,,,,,,,,,2018_Feb_21_1419,None,sequenceLearningTask,001,999,
,,,,allBlank.png,min4.png,"['2', '1', '3', '4']",['4'],,,,,,,,,,,,,,,,,15,2,62,3,,['4'],0,[0.5020308494567871],,,,,,,,,,,,,,,2018_Feb_21_1419,None,sequenceLearningTask,001,999,
,,,,allBlank.png,min2.png,"['2', '1', '3', '4']",['2'],,,,,,,,,,,,,,,,,15,3,63,1,,['2'],0,[0.30138611793518066],,,,,,,,,,,,,,,2018_Feb_21_1419,None,sequenceLearningTask,001,999,
,,,,allBlank.png,min2.png,"['2', '1', '3', '4']",['2'],,,,,,,,,,,,,,,,,16,0,64,1,,['2'],0,[0.5029900074005127],,,,,,,,,,,,,,,2018_Feb_21_1419,None,sequenceLearningTask,001,999,
,,,,allBlank.png,min3.png,"['2', '1', '3', '4']",['3'],,,,,,,,,,,,,,,,,16,1,65,2,,['3'],0,[0.28589820861816406],,,,,,,,,,,,,,,2018_Feb_21_1419,None,sequenceLearningTask,001,999,
,,,,allBlank.png,min1.png,"['2', '1', '3', '4']",['1'],,,,,,,,,,,,,,,,,16,2,66,0,,['1'],0,[0.5141379833221436],,,,,,,,,,,,,,,2018_Feb_21_1419,None,sequenceLearningTask,001,999,
,,,,allBlank.png,min4.png,"['2', '1', '3', '4']",['4'],,,,,,,,,,,,,,,,,16,3,67,3,,['4'],0,[0.3516578674316406],,,,,,,,,,,,,,,2018_Feb_21_1419,None,sequenceLearningTask,001,999,
,,,,allBlank.png,min1.png,"['2', '1', '3', '4']",['1'],,,,,,,,,,,,,,,,,17,0,68,0,,['1'],0,[0.5022189617156982],,,,,,,,,,,,,,,2018_Feb_21_1419,None,sequenceLearningTask,001,999,
,,,,allBlank.png,min4.png,"['2', '1', '3', '4']",['4'],,,,,,,,,,,,,,,,,17,1,69,3,,['3'],0,[0.09890913963317871],,,,,,,,,,,,,,,2018_Feb_21_1419,None,sequenceLearningTask,001,999,
,,,,allBlank.png,min2.png,"['2', '1', '3', '4']",['2'],,,,,,,,,,,,,,,,,17,2,70,1,,['2'],0,[0.11632084846496582],,,,,,,,,,,,,,,2018_Feb_21_1419,None,sequenceLearningTask,001,999,
,,,,allBlank.png,min3.png,"['2', '1', '3', '4']",['3'],,,,,,,,,,,,,,,,,17,3,71,2,,['4'],0,[0.03980898857116699],,,,,,,,,,,,,,,2018_Feb_21_1419,None,sequenceLearningTask,001,999,
,,,,allBlank.png,min4.png,"['2', '1', '3', '4']",['4'],,,,,,,,,,,,,,,,,18,0,72,3,,['2'],0,[0.08408904075622559],,,,,,,,,,,,,,,2018_Feb_21_1419,None,sequenceLearningTask,001,999,
,,,,allBlank.png,min1.png,"['2', '1', '3', '4']",['1'],,,,,,,,,,,,,,,,,18,1,73,0,,['4'],0,[0.03330183029174805],,,,,,,,,,,,,,,2018_Feb_21_1419,None,sequenceLearningTask,001,999,
,,,,allBlank.png,min3.png,"['2', '1', '3', '4']",['3'],,,,,,,,,,,,,,,,,18,2,74,2,,['2'],0,[0.003126859664916992],,,,,,,,,,,,,,,2018_Feb_21_1419,None,sequenceLearningTask,001,999,
,,,,allBlank.png,min2.png,"['2', '1', '3', '4']",['2'],,,,,,,,,,,,,,,,,18,3,75,1,,['4'],0,[0.0024139881134033203],,,,,,,,,,,,,,,2018_Feb_21_1419,None,sequenceLearningTask,001,999,
,,,,allBlank.png,min4.png,"['2', '1', '3', '4']",['4'],,,,,,,,,,,,,,,,,19,0,76,3,,['2'],0,[0.0022308826446533203],,,,,,,,,,,,,,,2018_Feb_21_1419,None,sequenceLearningTask,001,999,
,,,,allBlank.png,min2.png,"['2', '1', '3', '4']",['2'],,,,,,,,,,,,,,,,,19,1,77,1,,['4'],0,[0.08975911140441895],,,,,,,,,,,,,,,2018_Feb_21_1419,None,sequenceLearningTask,001,999,
,,,,allBlank.png,min1.png,"['2', '1', '3', '4']",['1'],,,,,,,,,,,,,,,,,19,2,78,0,,['2'],0,[0.3388218879699707],,,,,,,,,,,,,,,2018_Feb_21_1419,None,sequenceLearningTask,001,999,
,,,,allBlank.png,min3.png,"['2', '1', '3', '4']",['3'],,,,,,,,,,,,,,,,,19,3,79,2,,['4'],0,[0.35559797286987305],,,,,,,,,,,,,,,2018_Feb_21_1419,None,sequenceLearningTask,001,999,
,,,,allBlank.png,min1.png,"['2', '1', '3', '4']",['1'],,,,,,,,,,,,,,,,,20,0,80,0,,['2'],0,[0.10370492935180664],,,,,,,,,,,,,,,2018_Feb_21_1419,None,sequenceLearningTask,001,999,
,,,,allBlank.png,min4.png,"['2', '1', '3', '4']",['4'],,,,,,,,,,,,,,,,,20,1,81,3,,['2'],0,[0.2069101333618164],,,,,,,,,,,,,,,2018_Feb_21_1419,None,sequenceLearningTask,001,999,
,,,,allBlank.png,min3.png,"['2', '1', '3', '4']",['3'],,,,,,,,,,,,,,,,,20,2,82,2,,['4'],0,[0.1399240493774414],,,,,,,,,,,,,,,2018_Feb_21_1419,None,sequenceLearningTask,001,999,
,,,,allBlank.png,min2.png,"['2', '1', '3', '4']",['2'],,,,,,,,,,,,,,,,,20,3,83,1,,['2'],0,[0.002362966537475586],,,,,,,,,,,,,,,2018_Feb_21_1419,None,sequenceLearningTask,001,999,
,,,,allBlank.png,min1.png,"['2', '1', '3', '4']",['1'],,,,,,,,,,,,,,,,,21,0,84,0,,['2'],0,[0.18917012214660645],,,,,,,,,,,,,,,2018_Feb_21_1419,None,sequenceLearningTask,001,999,
,,,,allBlank.png,min2.png,"['2', '1', '3', '4']",['2'],,,,,,,,,,,,,,,,,21,1,85,1,,['1'],0,[0.017203092575073242],,,,,,,,,,,,,,,2018_Feb_21_1419,None,sequenceLearningTask,001,999,
,,,,allBlank.png,min3.png,"['2', '1', '3', '4']",['3'],,,,,,,,,,,,,,,,,21,2,86,2,,['2'],0,[0.0003769397735595703],,,,,,,,,,,,,,,2018_Feb_21_1419,None,sequenceLearningTask,001,999,
,,,,allBlank.png,min4.png,"['2', '1', '3', '4']",['4'],,,,,,,,,,,,,,,,,21,3,87,3,,['4'],0,[0.0011599063873291016],,,,,,,,,,,,,,,2018_Feb_21_1419,None,sequenceLearningTask,001,999,
,,,,allBlank.png,min4.png,"['2', '1', '3', '4']",['4'],,,,,,,,,,,,,,,,,22,0,88,3,,['4'],0,[0.47556209564208984],,,,,,,,,,,,,,,2018_Feb_21_1419,None,sequenceLearningTask,001,999,
,,,,allBlank.png,min1.png,"['2', '1', '3', '4']",['1'],,,,,,,,,,,,,,,,,22,1,89,0,,['1'],0,[0.43898606300354004],,,,,,,,,,,,,,,2018_Feb_21_1419,None,sequenceLearningTask,001,999,
,,,,allBlank.png,min3.png,"['2', '1', '3', '4']",['3'],,,,,,,,,,,,,,,,,22,2,90,2,,['3'],0,[0.4119739532470703],,,,,,,,,,,,,,,2018_Feb_21_1419,None,sequenceLearningTask,001,999,
,,,,allBlank.png,min2.png,"['2', '1', '3', '4']",['2'],,,,,,,,,,,,,,,,,22,3,91,1,,['2'],0,[0.2924079895019531],,,,,,,,,,,,,,,2018_Feb_21_1419,None,sequenceLearningTask,001,999,
,,,,allBlank.png,min4.png,"['2', '1', '3', '4']",['4'],,,,,,,,,,,,,,,,,23,0,92,3,,['4'],0,[0.2939882278442383],,,,,,,,,,,,,,,2018_Feb_21_1419,None,sequenceLearningTask,001,999,
,,,,allBlank.png,min3.png,"['2', '1', '3', '4']",['3'],,,,,,,,,,,,,,,,,23,1,93,2,,['3'],0,[0.546428918838501],,,,,,,,,,,,,,,2018_Feb_21_1419,None,sequenceLearningTask,001,999,
,,,,allBlank.png,min2.png,"['2', '1', '3', '4']",['2'],,,,,,,,,,,,,,,,,23,2,94,1,,['2'],0,[0.37482285499572754],,,,,,,,,,,,,,,2018_Feb_21_1419,None,sequenceLearningTask,001,999,
,,,,allBlank.png,min1.png,"['2', '1', '3', '4']",['1'],,,,,,,,,,,,,,,,,23,3,95,0,,['1'],0,[0.36141085624694824],,,,,,,,,,,,,,,2018_Feb_21_1419,None,sequenceLearningTask,001,999,
,,,,allBlank.png,min2.png,"['2', '1', '3', '4']",['2'],,,,,,,,,,,,,,,,,24,0,96,1,,['2'],0,[0.5972690582275391],,,,,,,,,,,,,,,2018_Feb_21_1419,None,sequenceLearningTask,001,999,
,,,,allBlank.png,min4.png,"['2', '1', '3', '4']",['4'],,,,,,,,,,,,,,,,,24,1,97,3,,['4'],0,[0.428969144821167],,,,,,,,,,,,,,,2018_Feb_21_1419,None,sequenceLearningTask,001,999,
,,,,allBlank.png,min3.png,"['2', '1', '3', '4']",['3'],,,,,,,,,,,,,,,,,24,2,98,2,,['3'],0,[0.3585939407348633],,,,,,,,,,,,,,,2018_Feb_21_1419,None,sequenceLearningTask,001,999,
,,,,allBlank.png,min1.png,"['2', '1', '3', '4']",['1'],,,,,,,,,,,,,,,,,24,3,99,0,,['1'],0,[0.47881317138671875],,,,,,,,,,,,,,,2018_Feb_21_1419,None,sequenceLearningTask,001,999,
,,,,,,,,,,,,,,,,,,,,,,,,,,,,,,,,,,,,,,,,,,,,space,1.88812589645,2018_Feb_21_1419,None,sequenceLearningTask,001,999,
