randomPaw,allowableKey,correctKey,blank,trials.thisRepN,trials.thisTrialN,trials.thisN,trials.thisIndex,trials_2.thisRepN,trials_2.thisTrialN,trials_2.thisN,trials_2.thisIndex,trials_3.thisRepN,trials_3.thisTrialN,trials_3.thisN,trials_3.thisIndex,pawPatrol1,pawPatrol2,pawPatrol3,pawPatrol4,trialCorrect,key_resp_9.keys,key_resp_9.corr,key_resp_9.rt,date,frameRate,expName,session,participant,
min4.png,"['2', '1', '3', '4']",['4'],allBlank.png,,,,,0,0,0,3,,,,,,,,,1,['4'],0,[0.3961181640625],2018_Feb_20_1444,59.8934733126,sequenceLearningTask,001,999,
min3.png,"['2', '1', '3', '4']",['3'],allBlank.png,,,,,0,1,1,2,,,,,,,,,1,['3'],0,[0.36151885986328125],2018_Feb_20_1444,59.8934733126,sequenceLearningTask,001,999,
min1.png,"['2', '1', '3', '4']",['1'],allBlank.png,,,,,0,2,2,0,,,,,,,,,1,['1'],0,[0.3515920639038086],2018_Feb_20_1444,59.8934733126,sequenceLearningTask,001,999,
min2.png,"['2', '1', '3', '4']",['2'],allBlank.png,,,,,0,3,3,1,,,,,,,,,1,['2'],0,[0.19141507148742676],2018_Feb_20_1444,59.8934733126,sequenceLearningTask,001,999,
min3.png,"['2', '1', '3', '4']",['3'],allBlank.png,,,,,1,0,4,2,,,,,,,,,1,['3'],0,[0.2192680835723877],2018_Feb_20_1444,59.8934733126,sequenceLearningTask,001,999,
min1.png,"['2', '1', '3', '4']",['1'],allBlank.png,,,,,1,1,5,0,,,,,,,,,1,['1'],0,[0.3375129699707031],2018_Feb_20_1444,59.8934733126,sequenceLearningTask,001,999,
min4.png,"['2', '1', '3', '4']",['4'],allBlank.png,,,,,1,2,6,3,,,,,,,,,1,['4'],0,[0.22033905982971191],2018_Feb_20_1444,59.8934733126,sequenceLearningTask,001,999,
min2.png,"['2', '1', '3', '4']",['2'],allBlank.png,,,,,1,3,7,1,,,,,,,,,1,['2'],0,[0.2700169086456299],2018_Feb_20_1444,59.8934733126,sequenceLearningTask,001,999,
min4.png,"['2', '1', '3', '4']",['4'],allBlank.png,,,,,2,0,8,3,,,,,,,,,1,['4'],0,[0.5201029777526855],2018_Feb_20_1444,59.8934733126,sequenceLearningTask,001,999,
min3.png,"['2', '1', '3', '4']",['3'],allBlank.png,,,,,2,1,9,2,,,,,,,,,1,['3'],0,[0.33655810356140137],2018_Feb_20_1444,59.8934733126,sequenceLearningTask,001,999,
min2.png,"['2', '1', '3', '4']",['2'],allBlank.png,,,,,2,2,10,1,,,,,,,,,1,['2'],0,[0.3640909194946289],2018_Feb_20_1444,59.8934733126,sequenceLearningTask,001,999,
min1.png,"['2', '1', '3', '4']",['1'],allBlank.png,,,,,2,3,11,0,,,,,,,,,1,['1'],0,[0.20235896110534668],2018_Feb_20_1444,59.8934733126,sequenceLearningTask,001,999,
min2.png,"['2', '1', '3', '4']",['2'],allBlank.png,,,,,3,0,12,1,,,,,,,,,1,['2'],0,[0.3693251609802246],2018_Feb_20_1444,59.8934733126,sequenceLearningTask,001,999,
min3.png,"['2', '1', '3', '4']",['3'],allBlank.png,,,,,3,1,13,2,,,,,,,,,1,['3'],0,[0.35150694847106934],2018_Feb_20_1444,59.8934733126,sequenceLearningTask,001,999,
min4.png,"['2', '1', '3', '4']",['4'],allBlank.png,,,,,3,2,14,3,,,,,,,,,1,['4'],0,[0.33673977851867676],2018_Feb_20_1444,59.8934733126,sequenceLearningTask,001,999,
min1.png,"['2', '1', '3', '4']",['1'],allBlank.png,,,,,3,3,15,0,,,,,,,,,1,['1'],0,[0.23639297485351562],2018_Feb_20_1444,59.8934733126,sequenceLearningTask,001,999,
min1.png,"['2', '1', '3', '4']",['1'],allBlank.png,,,,,4,0,16,0,,,,,,,,,1,['1'],0,[0.43664979934692383],2018_Feb_20_1444,59.8934733126,sequenceLearningTask,001,999,
min3.png,"['2', '1', '3', '4']",['3'],allBlank.png,,,,,4,1,17,2,,,,,,,,,1,['3'],0,[0.28513503074645996],2018_Feb_20_1444,59.8934733126,sequenceLearningTask,001,999,
min2.png,"['2', '1', '3', '4']",['2'],allBlank.png,,,,,4,2,18,1,,,,,,,,,1,['2'],0,[0.2368459701538086],2018_Feb_20_1444,59.8934733126,sequenceLearningTask,001,999,
min4.png,"['2', '1', '3', '4']",['4'],allBlank.png,,,,,4,3,19,3,,,,,,,,,1,['4'],0,[0.17099618911743164],2018_Feb_20_1444,59.8934733126,sequenceLearningTask,001,999,
min2.png,"['2', '1', '3', '4']",['2'],allBlank.png,,,,,5,0,20,1,,,,,,,,,0,"['1', '2']",0,"[0.23672008514404297, 0.5530800819396973]",2018_Feb_20_1444,59.8934733126,sequenceLearningTask,001,999,
min1.png,"['2', '1', '3', '4']",['1'],allBlank.png,,,,,5,1,21,0,,,,,,,,,1,['1'],0,[0.3692131042480469],2018_Feb_20_1444,59.8934733126,sequenceLearningTask,001,999,
min3.png,"['2', '1', '3', '4']",['3'],allBlank.png,,,,,5,2,22,2,,,,,,,,,0,"['4', '3']",0,"[0.2531909942626953, 0.41942286491394043]",2018_Feb_20_1444,59.8934733126,sequenceLearningTask,001,999,
min4.png,"['2', '1', '3', '4']",['4'],allBlank.png,,,,,5,3,23,3,,,,,,,,,1,['4'],0,[0.29245805740356445],2018_Feb_20_1444,59.8934733126,sequenceLearningTask,001,999,
min3.png,"['2', '1', '3', '4']",['3'],allBlank.png,,,,,6,0,24,2,,,,,,,,,1,['3'],0,[0.30304694175720215],2018_Feb_20_1444,59.8934733126,sequenceLearningTask,001,999,
min4.png,"['2', '1', '3', '4']",['4'],allBlank.png,,,,,6,1,25,3,,,,,,,,,1,['4'],0,[0.30304789543151855],2018_Feb_20_1444,59.8934733126,sequenceLearningTask,001,999,
min2.png,"['2', '1', '3', '4']",['2'],allBlank.png,,,,,6,2,26,1,,,,,,,,,1,['2'],0,[0.1869819164276123],2018_Feb_20_1444,59.8934733126,sequenceLearningTask,001,999,
min1.png,"['2', '1', '3', '4']",['1'],allBlank.png,,,,,6,3,27,0,,,,,,,,,0,"['3', '1']",0,"[0.18671011924743652, 0.38684797286987305]",2018_Feb_20_1444,59.8934733126,sequenceLearningTask,001,999,
min1.png,"['2', '1', '3', '4']",['1'],allBlank.png,,,,,7,0,28,0,,,,,,,,,1,['1'],0,[0.5534801483154297],2018_Feb_20_1444,59.8934733126,sequenceLearningTask,001,999,
min4.png,"['2', '1', '3', '4']",['4'],allBlank.png,,,,,7,1,29,3,,,,,,,,,0,"['3', '4']",0,"[0.3364908695220947, 0.6008429527282715]",2018_Feb_20_1444,59.8934733126,sequenceLearningTask,001,999,
min3.png,"['2', '1', '3', '4']",['3'],allBlank.png,,,,,7,2,30,2,,,,,,,,,1,['3'],0,[0.35257816314697266],2018_Feb_20_1444,59.8934733126,sequenceLearningTask,001,999,
min2.png,"['2', '1', '3', '4']",['2'],allBlank.png,,,,,7,3,31,1,,,,,,,,,1,['2'],0,[0.28693103790283203],2018_Feb_20_1444,59.8934733126,sequenceLearningTask,001,999,
min1.png,"['2', '1', '3', '4']",['1'],allBlank.png,,,,,8,0,32,0,,,,,,,,,1,['1'],0,[0.3190269470214844],2018_Feb_20_1444,59.8934733126,sequenceLearningTask,001,999,
min4.png,"['2', '1', '3', '4']",['4'],allBlank.png,,,,,8,1,33,3,,,,,,,,,1,['4'],0,[0.3038201332092285],2018_Feb_20_1444,59.8934733126,sequenceLearningTask,001,999,
min3.png,"['2', '1', '3', '4']",['3'],allBlank.png,,,,,8,2,34,2,,,,,,,,,1,['3'],0,[0.3008739948272705],2018_Feb_20_1444,59.8934733126,sequenceLearningTask,001,999,
min2.png,"['2', '1', '3', '4']",['2'],allBlank.png,,,,,8,3,35,1,,,,,,,,,1,['2'],0,[0.48523402214050293],2018_Feb_20_1444,59.8934733126,sequenceLearningTask,001,999,
min4.png,"['2', '1', '3', '4']",['4'],allBlank.png,,,,,9,0,36,3,,,,,,,,,1,['4'],0,[0.30255794525146484],2018_Feb_20_1444,59.8934733126,sequenceLearningTask,001,999,
min1.png,"['2', '1', '3', '4']",['1'],allBlank.png,,,,,9,1,37,0,,,,,,,,,1,['1'],0,[0.32124996185302734],2018_Feb_20_1444,59.8934733126,sequenceLearningTask,001,999,
min2.png,"['2', '1', '3', '4']",['2'],allBlank.png,,,,,9,2,38,1,,,,,,,,,1,['2'],0,[0.3704519271850586],2018_Feb_20_1444,59.8934733126,sequenceLearningTask,001,999,
min3.png,"['2', '1', '3', '4']",['3'],allBlank.png,,,,,9,3,39,2,,,,,,,,,1,['3'],0,[0.2688429355621338],2018_Feb_20_1444,59.8934733126,sequenceLearningTask,001,999,
min3.png,"['2', '1', '3', '4']",['3'],allBlank.png,,,,,10,0,40,2,,,,,,,,,1,['3'],0,[0.40250301361083984],2018_Feb_20_1444,59.8934733126,sequenceLearningTask,001,999,
min1.png,"['2', '1', '3', '4']",['1'],allBlank.png,,,,,10,1,41,0,,,,,,,,,1,['1'],0,[0.402921199798584],2018_Feb_20_1444,59.8934733126,sequenceLearningTask,001,999,
min2.png,"['2', '1', '3', '4']",['2'],allBlank.png,,,,,10,2,42,1,,,,,,,,,1,['2'],0,[0.4193599224090576],2018_Feb_20_1444,59.8934733126,sequenceLearningTask,001,999,
min4.png,"['2', '1', '3', '4']",['4'],allBlank.png,,,,,10,3,43,3,,,,,,,,,1,['4'],0,[0.2519340515136719],2018_Feb_20_1444,59.8934733126,sequenceLearningTask,001,999,
min1.png,"['2', '1', '3', '4']",['1'],allBlank.png,,,,,11,0,44,0,,,,,,,,,1,['1'],0,[0.3186299800872803],2018_Feb_20_1444,59.8934733126,sequenceLearningTask,001,999,
min3.png,"['2', '1', '3', '4']",['3'],allBlank.png,,,,,11,1,45,2,,,,,,,,,1,['3'],0,[0.2852139472961426],2018_Feb_20_1444,59.8934733126,sequenceLearningTask,001,999,
min2.png,"['2', '1', '3', '4']",['2'],allBlank.png,,,,,11,2,46,1,,,,,,,,,1,['2'],0,[0.31844496726989746],2018_Feb_20_1444,59.8934733126,sequenceLearningTask,001,999,
min4.png,"['2', '1', '3', '4']",['4'],allBlank.png,,,,,11,3,47,3,,,,,,,,,1,['4'],0,[0.18538284301757812],2018_Feb_20_1444,59.8934733126,sequenceLearningTask,001,999,
min4.png,"['2', '1', '3', '4']",['4'],allBlank.png,,,,,12,0,48,3,,,,,,,,,1,['4'],0,[0.31931400299072266],2018_Feb_20_1444,59.8934733126,sequenceLearningTask,001,999,
min3.png,"['2', '1', '3', '4']",['3'],allBlank.png,,,,,12,1,49,2,,,,,,,,,1,['3'],0,[0.3361039161682129],2018_Feb_20_1444,59.8934733126,sequenceLearningTask,001,999,
min1.png,"['2', '1', '3', '4']",['1'],allBlank.png,,,,,12,2,50,0,,,,,,,,,1,['1'],0,[0.46936988830566406],2018_Feb_20_1444,59.8934733126,sequenceLearningTask,001,999,
min2.png,"['2', '1', '3', '4']",['2'],allBlank.png,,,,,12,3,51,1,,,,,,,,,1,['2'],0,[0.5526750087738037],2018_Feb_20_1444,59.8934733126,sequenceLearningTask,001,999,
min1.png,"['2', '1', '3', '4']",['1'],allBlank.png,,,,,13,0,52,0,,,,,,,,,1,['1'],0,[0.36887097358703613],2018_Feb_20_1444,59.8934733126,sequenceLearningTask,001,999,
min3.png,"['2', '1', '3', '4']",['3'],allBlank.png,,,,,13,1,53,2,,,,,,,,,1,['3'],0,[0.3166079521179199],2018_Feb_20_1444,59.8934733126,sequenceLearningTask,001,999,
min4.png,"['2', '1', '3', '4']",['4'],allBlank.png,,,,,13,2,54,3,,,,,,,,,1,['4'],0,[0.25340890884399414],2018_Feb_20_1444,59.8934733126,sequenceLearningTask,001,999,
min2.png,"['2', '1', '3', '4']",['2'],allBlank.png,,,,,13,3,55,1,,,,,,,,,1,['2'],0,[0.437283992767334],2018_Feb_20_1444,59.8934733126,sequenceLearningTask,001,999,
min2.png,"['2', '1', '3', '4']",['2'],allBlank.png,,,,,14,0,56,1,,,,,,,,,1,['2'],0,[0.40155911445617676],2018_Feb_20_1444,59.8934733126,sequenceLearningTask,001,999,
min1.png,"['2', '1', '3', '4']",['1'],allBlank.png,,,,,14,1,57,0,,,,,,,,,1,['1'],0,[0.40398597717285156],2018_Feb_20_1444,59.8934733126,sequenceLearningTask,001,999,
min4.png,"['2', '1', '3', '4']",['4'],allBlank.png,,,,,14,2,58,3,,,,,,,,,1,['4'],0,[0.5858120918273926],2018_Feb_20_1444,59.8934733126,sequenceLearningTask,001,999,
min3.png,"['2', '1', '3', '4']",['3'],allBlank.png,,,,,14,3,59,2,,,,,,,,,1,['3'],0,[0.334867000579834],2018_Feb_20_1444,59.8934733126,sequenceLearningTask,001,999,
min1.png,"['2', '1', '3', '4']",['1'],allBlank.png,,,,,15,0,60,0,,,,,,,,,1,['1'],0,[0.40337109565734863],2018_Feb_20_1444,59.8934733126,sequenceLearningTask,001,999,
min4.png,"['2', '1', '3', '4']",['4'],allBlank.png,,,,,15,1,61,3,,,,,,,,,1,['4'],0,[0.35228896141052246],2018_Feb_20_1444,59.8934733126,sequenceLearningTask,001,999,
min2.png,"['2', '1', '3', '4']",['2'],allBlank.png,,,,,15,2,62,1,,,,,,,,,1,['2'],0,[0.269366979598999],2018_Feb_20_1444,59.8934733126,sequenceLearningTask,001,999,
min3.png,"['2', '1', '3', '4']",['3'],allBlank.png,,,,,15,3,63,2,,,,,,,,,0,"['4', '3']",0,"[0.27695178985595703, 0.5429069995880127]",2018_Feb_20_1444,59.8934733126,sequenceLearningTask,001,999,
min4.png,"['2', '1', '3', '4']",['4'],allBlank.png,,,,,16,0,64,3,,,,,,,,,1,['4'],0,[0.26863718032836914],2018_Feb_20_1444,59.8934733126,sequenceLearningTask,001,999,
min1.png,"['2', '1', '3', '4']",['1'],allBlank.png,,,,,16,1,65,0,,,,,,,,,1,['1'],0,[0.319547176361084],2018_Feb_20_1444,59.8934733126,sequenceLearningTask,001,999,
min2.png,"['2', '1', '3', '4']",['2'],allBlank.png,,,,,16,2,66,1,,,,,,,,,1,['2'],0,[0.36046886444091797],2018_Feb_20_1444,59.8934733126,sequenceLearningTask,001,999,
min3.png,"['2', '1', '3', '4']",['3'],allBlank.png,,,,,16,3,67,2,,,,,,,,,1,['3'],0,[0.23664593696594238],2018_Feb_20_1444,59.8934733126,sequenceLearningTask,001,999,
min2.png,"['2', '1', '3', '4']",['2'],allBlank.png,,,,,17,0,68,1,,,,,,,,,1,['2'],0,[0.36955785751342773],2018_Feb_20_1444,59.8934733126,sequenceLearningTask,001,999,
min1.png,"['2', '1', '3', '4']",['1'],allBlank.png,,,,,17,1,69,0,,,,,,,,,0,"['4', '1']",0,"[0.16852617263793945, 0.43570613861083984]",2018_Feb_20_1444,59.8934733126,sequenceLearningTask,001,999,
min3.png,"['2', '1', '3', '4']",['3'],allBlank.png,,,,,17,2,70,2,,,,,,,,,0,"['4', '3']",0,"[0.2862229347229004, 0.5202240943908691]",2018_Feb_20_1444,59.8934733126,sequenceLearningTask,001,999,
min4.png,"['2', '1', '3', '4']",['4'],allBlank.png,,,,,17,3,71,3,,,,,,,,,1,['4'],0,[0.3478419780731201],2018_Feb_20_1444,59.8934733126,sequenceLearningTask,001,999,
min4.png,"['2', '1', '3', '4']",['4'],allBlank.png,,,,,18,0,72,3,,,,,,,,,1,['4'],0,[0.3022141456604004],2018_Feb_20_1444,59.8934733126,sequenceLearningTask,001,999,
min2.png,"['2', '1', '3', '4']",['2'],allBlank.png,,,,,18,1,73,1,,,,,,,,,1,['2'],0,[0.26989006996154785],2018_Feb_20_1444,59.8934733126,sequenceLearningTask,001,999,
min1.png,"['2', '1', '3', '4']",['1'],allBlank.png,,,,,18,2,74,0,,,,,,,,,1,['1'],0,[0.2751491069793701],2018_Feb_20_1444,59.8934733126,sequenceLearningTask,001,999,
min3.png,"['2', '1', '3', '4']",['3'],allBlank.png,,,,,18,3,75,2,,,,,,,,,1,['3'],0,[0.25597095489501953],2018_Feb_20_1444,59.8934733126,sequenceLearningTask,001,999,
min4.png,"['2', '1', '3', '4']",['4'],allBlank.png,,,,,19,0,76,3,,,,,,,,,1,['4'],0,[0.40230894088745117],2018_Feb_20_1444,59.8934733126,sequenceLearningTask,001,999,
min1.png,"['2', '1', '3', '4']",['1'],allBlank.png,,,,,19,1,77,0,,,,,,,,,1,['1'],0,[0.38604283332824707],2018_Feb_20_1444,59.8934733126,sequenceLearningTask,001,999,
min3.png,"['2', '1', '3', '4']",['3'],allBlank.png,,,,,19,2,78,2,,,,,,,,,1,['3'],0,[0.2370600700378418],2018_Feb_20_1444,59.8934733126,sequenceLearningTask,001,999,
min2.png,"['2', '1', '3', '4']",['2'],allBlank.png,,,,,19,3,79,1,,,,,,,,,1,['2'],0,[0.2695589065551758],2018_Feb_20_1444,59.8934733126,sequenceLearningTask,001,999,
min1.png,"['2', '1', '3', '4']",['1'],allBlank.png,,,,,20,0,80,0,,,,,,,,,1,['1'],0,[0.4038360118865967],2018_Feb_20_1444,59.8934733126,sequenceLearningTask,001,999,
min2.png,"['2', '1', '3', '4']",['2'],allBlank.png,,,,,20,1,81,1,,,,,,,,,1,['2'],0,[0.4014859199523926],2018_Feb_20_1444,59.8934733126,sequenceLearningTask,001,999,
min4.png,"['2', '1', '3', '4']",['4'],allBlank.png,,,,,20,2,82,3,,,,,,,,,1,['4'],0,[0.4361100196838379],2018_Feb_20_1444,59.8934733126,sequenceLearningTask,001,999,
min3.png,"['2', '1', '3', '4']",['3'],allBlank.png,,,,,20,3,83,2,,,,,,,,,0,"['4', '3']",0,"[0.3196899890899658, 0.6694550514221191]",2018_Feb_20_1444,59.8934733126,sequenceLearningTask,001,999,
min4.png,"['2', '1', '3', '4']",['4'],allBlank.png,,,,,21,0,84,3,,,,,,,,,1,['4'],0,[0.3754568099975586],2018_Feb_20_1444,59.8934733126,sequenceLearningTask,001,999,
min1.png,"['2', '1', '3', '4']",['1'],allBlank.png,,,,,21,1,85,0,,,,,,,,,1,['1'],0,[0.3517799377441406],2018_Feb_20_1444,59.8934733126,sequenceLearningTask,001,999,
min3.png,"['2', '1', '3', '4']",['3'],allBlank.png,,,,,21,2,86,2,,,,,,,,,1,['3'],0,[0.28586506843566895],2018_Feb_20_1444,59.8934733126,sequenceLearningTask,001,999,
min2.png,"['2', '1', '3', '4']",['2'],allBlank.png,,,,,21,3,87,1,,,,,,,,,1,['2'],0,[0.28734397888183594],2018_Feb_20_1444,59.8934733126,sequenceLearningTask,001,999,
min2.png,"['2', '1', '3', '4']",['2'],allBlank.png,,,,,22,0,88,1,,,,,,,,,1,['2'],0,[0.43627405166625977],2018_Feb_20_1444,59.8934733126,sequenceLearningTask,001,999,
min3.png,"['2', '1', '3', '4']",['3'],allBlank.png,,,,,22,1,89,2,,,,,,,,,1,['3'],0,[0.41937804222106934],2018_Feb_20_1444,59.8934733126,sequenceLearningTask,001,999,
min1.png,"['2', '1', '3', '4']",['1'],allBlank.png,,,,,22,2,90,0,,,,,,,,,1,['1'],0,[0.26900601387023926],2018_Feb_20_1444,59.8934733126,sequenceLearningTask,001,999,
min4.png,"['2', '1', '3', '4']",['4'],allBlank.png,,,,,22,3,91,3,,,,,,,,,1,['4'],0,[0.3188900947570801],2018_Feb_20_1444,59.8934733126,sequenceLearningTask,001,999,
min2.png,"['2', '1', '3', '4']",['2'],allBlank.png,,,,,23,0,92,1,,,,,,,,,1,['2'],0,[0.336331844329834],2018_Feb_20_1444,59.8934733126,sequenceLearningTask,001,999,
min3.png,"['2', '1', '3', '4']",['3'],allBlank.png,,,,,23,1,93,2,,,,,,,,,1,['3'],0,[0.3198668956756592],2018_Feb_20_1444,59.8934733126,sequenceLearningTask,001,999,
min1.png,"['2', '1', '3', '4']",['1'],allBlank.png,,,,,23,2,94,0,,,,,,,,,1,['1'],0,[0.41948795318603516],2018_Feb_20_1444,59.8934733126,sequenceLearningTask,001,999,
min4.png,"['2', '1', '3', '4']",['4'],allBlank.png,,,,,23,3,95,3,,,,,,,,,1,['4'],0,[0.27013397216796875],2018_Feb_20_1444,59.8934733126,sequenceLearningTask,001,999,
min1.png,"['2', '1', '3', '4']",['1'],allBlank.png,,,,,24,0,96,0,,,,,,,,,1,['1'],0,[0.4363720417022705],2018_Feb_20_1444,59.8934733126,sequenceLearningTask,001,999,
min3.png,"['2', '1', '3', '4']",['3'],allBlank.png,,,,,24,1,97,2,,,,,,,,,1,['3'],0,[0.28545498847961426],2018_Feb_20_1444,59.8934733126,sequenceLearningTask,001,999,
min2.png,"['2', '1', '3', '4']",['2'],allBlank.png,,,,,24,2,98,1,,,,,,,,,1,['2'],0,[0.2328648567199707],2018_Feb_20_1444,59.8934733126,sequenceLearningTask,001,999,
min4.png,"['2', '1', '3', '4']",['4'],allBlank.png,,,,,24,3,99,3,,,,,,,,,1,['4'],0,[0.21895909309387207],2018_Feb_20_1444,59.8934733126,sequenceLearningTask,001,999,
