randomPaw,allowableKey,correctKey,blank,trials.thisRepN,trials.thisTrialN,trials.thisN,trials.thisIndex,trials_2.thisRepN,trials_2.thisTrialN,trials_2.thisN,trials_2.thisIndex,trialCorrect,key_resp_9.keys,key_resp_9.corr,key_resp_9.rt,date,frameRate,expName,session,participant,
min2.png,"['2', '1', '3', '4']",['2'],allBlank.png,,,,,0,0,0,1,0,"['2', '3', '4']",0,"[0.5190768241882324, 0.985605001449585, 1.584744930267334]",2018_Feb_20_1901,59.7325191083,sequenceLearningTask,001,999,
min3.png,"['2', '1', '3', '4']",['3'],allBlank.png,,,,,0,1,1,2,1,['4'],0,[0.35278892517089844],2018_Feb_20_1901,59.7325191083,sequenceLearningTask,001,999,
min1.png,"['2', '1', '3', '4']",['1'],allBlank.png,,,,,0,2,2,0,0,"['3', '4']",0,"[0.20219707489013672, 0.4362311363220215]",2018_Feb_20_1901,59.7325191083,sequenceLearningTask,001,999,
min4.png,"['2', '1', '3', '4']",['4'],allBlank.png,,,,,0,3,3,3,1,['4'],0,[0.3028080463409424],2018_Feb_20_1901,59.7325191083,sequenceLearningTask,001,999,
min4.png,"['2', '1', '3', '4']",['4'],allBlank.png,,,,,1,0,4,3,0,"['3', '4']",0,"[0.2521979808807373, 0.519385814666748]",2018_Feb_20_1901,59.7325191083,sequenceLearningTask,001,999,
min2.png,"['2', '1', '3', '4']",['2'],allBlank.png,,,,,1,1,5,1,0,"['1', '2', '3', '4']",0,"[16.719624996185303, 16.885982990264893, 17.002964973449707, 17.252583980560303]",2018_Feb_20_1901,59.7325191083,sequenceLearningTask,001,999,
min3.png,"['2', '1', '3', '4']",['3'],allBlank.png,,,,,1,2,6,2,0,"['3', '4']",0,"[0.1524190902709961, 0.46979713439941406]",2018_Feb_20_1901,59.7325191083,sequenceLearningTask,001,999,
min1.png,"['2', '1', '3', '4']",['1'],allBlank.png,,,,,1,3,7,0,1,['4'],0,[0.28539609909057617],2018_Feb_20_1901,59.7325191083,sequenceLearningTask,001,999,
min4.png,"['2', '1', '3', '4']",['4'],allBlank.png,,,,,2,0,8,3,1,['4'],0,[0.5186419486999512],2018_Feb_20_1901,59.7325191083,sequenceLearningTask,001,999,
min2.png,"['2', '1', '3', '4']",['2'],allBlank.png,,,,,2,1,9,1,0,"['3', '4']",0,"[0.16926908493041992, 0.3861100673675537]",2018_Feb_20_1901,59.7325191083,sequenceLearningTask,001,999,
min1.png,"['2', '1', '3', '4']",['1'],allBlank.png,,,,,2,2,10,0,1,['4'],0,[0.3358149528503418],2018_Feb_20_1901,59.7325191083,sequenceLearningTask,001,999,
min3.png,"['2', '1', '3', '4']",['3'],allBlank.png,,,,,2,3,11,2,1,['4'],0,[0.2365109920501709],2018_Feb_20_1901,59.7325191083,sequenceLearningTask,001,999,
min2.png,"['2', '1', '3', '4']",['2'],allBlank.png,,,,,3,0,12,1,1,['4'],0,[0.43607592582702637],2018_Feb_20_1901,59.7325191083,sequenceLearningTask,001,999,
min3.png,"['2', '1', '3', '4']",['3'],allBlank.png,,,,,3,1,13,2,1,['4'],0,[0.30245399475097656],2018_Feb_20_1901,59.7325191083,sequenceLearningTask,001,999,
min4.png,"['2', '1', '3', '4']",['4'],allBlank.png,,,,,3,2,14,3,1,['4'],0,[0.3504140377044678],2018_Feb_20_1901,59.7325191083,sequenceLearningTask,001,999,
min1.png,"['2', '1', '3', '4']",['1'],allBlank.png,,,,,3,3,15,0,0,"['3', '4']",0,"[0.18617892265319824, 0.40269994735717773]",2018_Feb_20_1901,59.7325191083,sequenceLearningTask,001,999,
min1.png,"['2', '1', '3', '4']",['1'],allBlank.png,,,,,4,0,16,0,1,['4'],0,[0.4361259937286377],2018_Feb_20_1901,59.7325191083,sequenceLearningTask,001,999,
min3.png,"['2', '1', '3', '4']",['3'],allBlank.png,,,,,4,1,17,2,1,['4'],0,[0.36919522285461426],2018_Feb_20_1901,59.7325191083,sequenceLearningTask,001,999,
min4.png,"['2', '1', '3', '4']",['4'],allBlank.png,,,,,4,2,18,3,1,['4'],0,[0.41910696029663086],2018_Feb_20_1901,59.7325191083,sequenceLearningTask,001,999,
min2.png,"['2', '1', '3', '4']",['2'],allBlank.png,,,,,4,3,19,1,0,"['3', '4']",0,"[0.20042991638183594, 0.43495702743530273]",2018_Feb_20_1901,59.7325191083,sequenceLearningTask,001,999,
min2.png,"['2', '1', '3', '4']",['2'],allBlank.png,,,,,5,0,20,1,1,['4'],0,[0.31929683685302734],2018_Feb_20_1901,59.7325191083,sequenceLearningTask,001,999,
min1.png,"['2', '1', '3', '4']",['1'],allBlank.png,,,,,5,1,21,0,1,['4'],0,[0.3862779140472412],2018_Feb_20_1901,59.7325191083,sequenceLearningTask,001,999,
min3.png,"['2', '1', '3', '4']",['3'],allBlank.png,,,,,5,2,22,2,1,['4'],0,[0.3180718421936035],2018_Feb_20_1901,59.7325191083,sequenceLearningTask,001,999,
min4.png,"['2', '1', '3', '4']",['4'],allBlank.png,,,,,5,3,23,3,0,"['3', '4']",0,"[0.034837961196899414, 0.335158109664917]",2018_Feb_20_1901,59.7325191083,sequenceLearningTask,001,999,
min3.png,"['2', '1', '3', '4']",['3'],allBlank.png,,,,,6,0,24,2,1,['4'],0,[0.052720069885253906],2018_Feb_20_1901,59.7325191083,sequenceLearningTask,001,999,
min4.png,"['2', '1', '3', '4']",['4'],allBlank.png,,,,,6,1,25,3,1,['4'],0,[0.019063949584960938],2018_Feb_20_1901,59.7325191083,sequenceLearningTask,001,999,
min1.png,"['2', '1', '3', '4']",['1'],allBlank.png,,,,,6,2,26,0,0,"['3', '4']",0,"[0.05278801918029785, 0.38680005073547363]",2018_Feb_20_1901,59.7325191083,sequenceLearningTask,001,999,
min2.png,"['2', '1', '3', '4']",['2'],allBlank.png,,,,,6,3,27,1,1,['4'],0,[0.10303401947021484],2018_Feb_20_1901,59.7325191083,sequenceLearningTask,001,999,
min3.png,"['2', '1', '3', '4']",['3'],allBlank.png,,,,,7,0,28,2,0,"['3', '4']",0,"[0.05295109748840332, 0.4018130302429199]",2018_Feb_20_1901,59.7325191083,sequenceLearningTask,001,999,
min1.png,"['2', '1', '3', '4']",['1'],allBlank.png,,,,,7,1,29,0,1,['4'],0,[0.2852349281311035],2018_Feb_20_1901,59.7325191083,sequenceLearningTask,001,999,
min2.png,"['2', '1', '3', '4']",['2'],allBlank.png,,,,,7,2,30,1,0,"['3', '4']",0,"[0.00026702880859375, 0.3520522117614746]",2018_Feb_20_1901,59.7325191083,sequenceLearningTask,001,999,
min4.png,"['2', '1', '3', '4']",['4'],allBlank.png,,,,,7,3,31,3,0,"['3', '4']",0,"[0.13592290878295898, 0.4194960594177246]",2018_Feb_20_1901,59.7325191083,sequenceLearningTask,001,999,
min4.png,"['2', '1', '3', '4']",['4'],allBlank.png,,,,,8,0,32,3,0,"['3', '4']",0,"[0.0002720355987548828, 0.30188608169555664]",2018_Feb_20_1901,59.7325191083,sequenceLearningTask,001,999,
min3.png,"['2', '1', '3', '4']",['3'],allBlank.png,,,,,8,1,33,2,1,['4'],0,[0.23641109466552734],2018_Feb_20_1901,59.7325191083,sequenceLearningTask,001,999,
min2.png,"['2', '1', '3', '4']",['2'],allBlank.png,,,,,8,2,34,1,1,['4'],0,[0.21912407875061035],2018_Feb_20_1901,59.7325191083,sequenceLearningTask,001,999,
min1.png,"['2', '1', '3', '4']",['1'],allBlank.png,,,,,8,3,35,0,0,"['3', '4']",0,"[0.0016109943389892578, 0.2693350315093994]",2018_Feb_20_1901,59.7325191083,sequenceLearningTask,001,999,
min1.png,"['2', '1', '3', '4']",['1'],allBlank.png,,,,,9,0,36,0,1,['4'],0,[0.3528730869293213],2018_Feb_20_1901,59.7325191083,sequenceLearningTask,001,999,
min2.png,"['2', '1', '3', '4']",['2'],allBlank.png,,,,,9,1,37,1,0,"['3', '4']",0,"[0.1194920539855957, 0.3687779903411865]",2018_Feb_20_1901,59.7325191083,sequenceLearningTask,001,999,
min4.png,"['2', '1', '3', '4']",['4'],allBlank.png,,,,,9,2,38,3,0,"['3', '4']",0,"[0.00030303001403808594, 0.4851839542388916]",2018_Feb_20_1901,59.7325191083,sequenceLearningTask,001,999,
min3.png,"['2', '1', '3', '4']",['3'],allBlank.png,,,,,9,3,39,2,1,['4'],0,[0.0525970458984375],2018_Feb_20_1901,59.7325191083,sequenceLearningTask,001,999,
min1.png,"['2', '1', '3', '4']",['1'],allBlank.png,,,,,10,0,40,0,1,['4'],0,[0.35234689712524414],2018_Feb_20_1901,59.7325191083,sequenceLearningTask,001,999,
min3.png,"['2', '1', '3', '4']",['3'],allBlank.png,,,,,10,1,41,2,0,"['3', '4']",0,"[0.06920599937438965, 0.3691399097442627]",2018_Feb_20_1901,59.7325191083,sequenceLearningTask,001,999,
min2.png,"['2', '1', '3', '4']",['2'],allBlank.png,,,,,10,2,42,1,1,['4'],0,[0.33634400367736816],2018_Feb_20_1901,59.7325191083,sequenceLearningTask,001,999,
min4.png,"['2', '1', '3', '4']",['4'],allBlank.png,,,,,10,3,43,3,0,"['3', '4']",0,"[0.18549180030822754, 0.4034438133239746]",2018_Feb_20_1901,59.7325191083,sequenceLearningTask,001,999,
