pawPatrol1,pawPatrol2,pawPatrol3,pawPatrol4,blank,randomPaw,correctKeyPress,allowableKey,correctKey,correctKeyPressNum,trials.thisRepN,trials.thisTrialN,trials.thisN,trials.thisIndex,trials_3.thisRepN,trials_3.thisTrialN,trials_3.thisN,trials_3.thisIndex,trials_2.thisRepN,trials_2.thisTrialN,trials_2.thisN,trials_2.thisIndex,trials_questions.thisRepN,trials_questions.thisTrialN,trials_questions.thisN,trials_questions.thisIndex,trials_test.thisRepN,trials_test.thisTrialN,trials_test.thisN,trials_test.thisIndex,trials_recogtest.thisRepN,trials_recogtest.thisTrialN,trials_recogtest.thisN,trials_recogtest.thisIndex,correctKey,repetitionNumber,stimulusPresent.t,trialCorrect,key_resp_9.keys,key_resp_9.corr,key_resp_9.rt,keyRespCorrect,questionsResponses,AnswerFinished.keys,AnswerFinished.rt,RecordAnswer.keys,RecordAnswer.rt,recallResponse,recallResponseTime,date,frameRate,expName,session,participant,
min1.png,min2.png,min3.png,min4.png,allBlank.png,,,,['num_7'],,,,,,0,0,0,0,,,,,,,,,,,,,,,,,['num_7'],1,0.0522699914873,1,['num_7'],0,[1.1486778655089438],,,,,,,,,2018_Mar_31_1720,60.0465098782,sequenceLearningTask,001,006,
min1.png,min2.png,min3.png,min4.png,allBlank.png,,,,['num_1'],,,,,,0,0,0,0,,,,,,,,,,,,,,,,,['num_1'],1,0.0626371796243,0,"['num_4', 'num_1']",0,"[0.5481883473694324, 1.365320094395429]",,,,,,,,,2018_Mar_31_1720,60.0465098782,sequenceLearningTask,001,006,
min1.png,min2.png,min3.png,min4.png,allBlank.png,,,,['num_4'],,,,,,0,0,0,0,,,,,,,,,,,,,,,,,['num_4'],1,0.0691865179688,1,['num_4'],0,[0.7588629815727472],,,,,,,,,2018_Mar_31_1720,60.0465098782,sequenceLearningTask,001,006,
min1.png,min2.png,min3.png,min4.png,allBlank.png,,,,['num_0'],,,,,,0,0,0,0,,,,,,,,,,,,,,,,,['num_0'],1,0.0761896008626,1,['num_0'],0,[1.4505739081650972],,,,,,,,,2018_Mar_31_1720,60.0465098782,sequenceLearningTask,001,006,
min1.png,min2.png,min3.png,min4.png,allBlank.png,,,,['num_0'],,,,,,0,0,0,0,,,,,,,,,,,,,,,,,['num_0'],1,0.0469735767692,1,['num_0'],0,[0.8633016315288842],,,,,,,,,2018_Mar_31_1720,60.0465098782,sequenceLearningTask,001,006,
min1.png,min2.png,min3.png,min4.png,allBlank.png,,,,['num_4'],,,,,,0,0,0,0,,,,,,,,,,,,,,,,,['num_4'],1,0.0494786049239,0,"['num_7', 'num_4']",0,"[1.0784788336604834, 1.4781390591524541]",,,,,,,,,2018_Mar_31_1720,60.0465098782,sequenceLearningTask,001,006,
min1.png,min2.png,min3.png,min4.png,allBlank.png,,,,['num_1'],,,,,,0,0,0,0,,,,,,,,,,,,,,,,,['num_1'],1,0.0476369620301,1,['num_1'],0,[0.8967051459476352],,,,,,,,,2018_Mar_31_1720,60.0465098782,sequenceLearningTask,001,006,
min1.png,min2.png,min3.png,min4.png,allBlank.png,,,,['num_0'],,,,,,0,0,0,0,,,,,,,,,,,,,,,,,['num_0'],1,0.050267118495,1,['num_0'],0,[0.9449398522265255],,,,,,,,,2018_Mar_31_1720,60.0465098782,sequenceLearningTask,001,006,
min1.png,min2.png,min3.png,min4.png,allBlank.png,,,,['num_7'],,,,,,0,1,1,1,,,,,,,,,,,,,,,,,['num_7'],2,0.0491114249453,1,['num_7'],0,[1.6595554128289223],,,,,,,,,2018_Mar_31_1720,60.0465098782,sequenceLearningTask,001,006,
min1.png,min2.png,min3.png,min4.png,allBlank.png,,,,['num_1'],,,,,,0,1,1,1,,,,,,,,,,,,,,,,,['num_1'],2,0.0519766579382,1,['num_1'],0,[1.9264393243938684],,,,,,,,,2018_Mar_31_1720,60.0465098782,sequenceLearningTask,001,006,
min1.png,min2.png,min3.png,min4.png,allBlank.png,,,,['num_4'],,,,,,0,1,1,1,,,,,,,,,,,,,,,,,['num_4'],2,0.0438515231945,0,"['num_7', 'num_4']",0,"[1.3838271871209145, 2.3509684931486845]",,,,,,,,,2018_Mar_31_1720,60.0465098782,sequenceLearningTask,001,006,
min1.png,min2.png,min3.png,min4.png,allBlank.png,,,,['num_0'],,,,,,0,1,1,1,,,,,,,,,,,,,,,,,['num_0'],2,0.0524045554921,1,['num_0'],0,[0.8427838711068034],,,,,,,,,2018_Mar_31_1720,60.0465098782,sequenceLearningTask,001,006,
min1.png,min2.png,min3.png,min4.png,allBlank.png,,,,['num_0'],,,,,,0,1,1,1,,,,,,,,,,,,,,,,,['num_0'],2,0.0563405589201,1,['num_0'],0,[0.755080824252218],,,,,,,,,2018_Mar_31_1720,60.0465098782,sequenceLearningTask,001,006,
min1.png,min2.png,min3.png,min4.png,allBlank.png,,,,['num_4'],,,,,,0,1,1,1,,,,,,,,,,,,,,,,,['num_4'],2,0.046739730984,1,['num_4'],0,[1.1810577898286283],,,,,,,,,2018_Mar_31_1720,60.0465098782,sequenceLearningTask,001,006,
min1.png,min2.png,min3.png,min4.png,allBlank.png,,,,['num_1'],,,,,,0,1,1,1,,,,,,,,,,,,,,,,,['num_1'],2,0.0434917281382,1,['num_1'],0,[1.0171934496611357],,,,,,,,,2018_Mar_31_1720,60.0465098782,sequenceLearningTask,001,006,
min1.png,min2.png,min3.png,min4.png,allBlank.png,,,,['num_0'],,,,,,0,1,1,1,,,,,,,,,,,,,,,,,['num_0'],2,0.0453321398236,1,['num_0'],0,[0.4835560889914632],,,,,,,,,2018_Mar_31_1720,60.0465098782,sequenceLearningTask,001,006,
min1.png,min2.png,min3.png,min4.png,allBlank.png,,,,['num_7'],,,,,,0,2,2,2,,,,,,,,,,,,,,,,,['num_7'],3,0.0485645527951,1,['num_7'],0,[1.0610474348068237],,,,,,,,,2018_Mar_31_1720,60.0465098782,sequenceLearningTask,001,006,
min1.png,min2.png,min3.png,min4.png,allBlank.png,,,,['num_1'],,,,,,0,2,2,2,,,,,,,,,,,,,,,,,['num_1'],3,0.0458892686293,1,['num_1'],0,[1.0986384400166571],,,,,,,,,2018_Mar_31_1720,60.0465098782,sequenceLearningTask,001,006,
min1.png,min2.png,min3.png,min4.png,allBlank.png,,,,['num_4'],,,,,,0,2,2,2,,,,,,,,,,,,,,,,,['num_4'],3,0.046839423012,1,['num_4'],0,[0.7989237322472036],,,,,,,,,2018_Mar_31_1720,60.0465098782,sequenceLearningTask,001,006,
min1.png,min2.png,min3.png,min4.png,allBlank.png,,,,['num_0'],,,,,,0,2,2,2,,,,,,,,,,,,,,,,,['num_0'],3,0.0480997320265,1,['num_0'],0,[0.5788492951542139],,,,,,,,,2018_Mar_31_1720,60.0465098782,sequenceLearningTask,001,006,
min1.png,min2.png,min3.png,min4.png,allBlank.png,,,,['num_0'],,,,,,0,2,2,2,,,,,,,,,,,,,,,,,['num_0'],3,0.0439175744541,1,['num_0'],0,[0.717914845328778],,,,,,,,,2018_Mar_31_1720,60.0465098782,sequenceLearningTask,001,006,
min1.png,min2.png,min3.png,min4.png,allBlank.png,,,,['num_4'],,,,,,0,2,2,2,,,,,,,,,,,,,,,,,['num_4'],3,0.0453678322956,0,"['num_7', 'num_4']",0,"[1.1329843141138554, 1.5494445534422994]",,,,,,,,,2018_Mar_31_1720,60.0465098782,sequenceLearningTask,001,006,
min1.png,min2.png,min3.png,min4.png,allBlank.png,,,,['num_1'],,,,,,0,2,2,2,,,,,,,,,,,,,,,,,['num_1'],3,0.0430818819441,1,['num_1'],0,[0.8691116874106228],,,,,,,,,2018_Mar_31_1720,60.0465098782,sequenceLearningTask,001,006,
min1.png,min2.png,min3.png,min4.png,allBlank.png,,,,['num_0'],,,,,,0,2,2,2,,,,,,,,,,,,,,,,,['num_0'],3,0.0244755074382,1,['num_0'],0,[0.4385841549374163],,,,,,,,,2018_Mar_31_1720,60.0465098782,sequenceLearningTask,001,006,
min1.png,min2.png,min3.png,min4.png,allBlank.png,,,,['num_7'],,,,,,0,3,3,3,,,,,,,,,,,,,,,,,['num_7'],4,0.0473428079858,0,"['num_0', 'num_7']",0,"[0.6781974793411791, 1.2787760235369205]",,,,,,,,,2018_Mar_31_1720,60.0465098782,sequenceLearningTask,001,006,
min1.png,min2.png,min3.png,min4.png,allBlank.png,,,,['num_1'],,,,,,0,3,3,3,,,,,,,,,,,,,,,,,['num_1'],4,0.0509801441804,1,['num_1'],0,[1.1431512972339988],,,,,,,,,2018_Mar_31_1720,60.0465098782,sequenceLearningTask,001,006,
min1.png,min2.png,min3.png,min4.png,allBlank.png,,,,['num_4'],,,,,,0,3,3,3,,,,,,,,,,,,,,,,,['num_4'],4,0.0472476286814,0,"['num_7', 'num_4']",0,"[0.9470305209979415, 1.5971783362329006]",,,,,,,,,2018_Mar_31_1720,60.0465098782,sequenceLearningTask,001,006,
min1.png,min2.png,min3.png,min4.png,allBlank.png,,,,['num_0'],,,,,,0,3,3,3,,,,,,,,,,,,,,,,,['num_0'],4,0.0512509136461,1,['num_0'],0,[0.5762638575397432],,,,,,,,,2018_Mar_31_1720,60.0465098782,sequenceLearningTask,001,006,
min1.png,min2.png,min3.png,min4.png,allBlank.png,,,,['num_0'],,,,,,0,3,3,3,,,,,,,,,,,,,,,,,['num_0'],4,0.0434884456918,1,['num_0'],0,[0.9682678715325892],,,,,,,,,2018_Mar_31_1720,60.0465098782,sequenceLearningTask,001,006,
min1.png,min2.png,min3.png,min4.png,allBlank.png,,,,['num_4'],,,,,,0,3,3,3,,,,,,,,,,,,,,,,,['num_4'],4,0.0483705010265,1,['num_4'],0,[1.9960426636971533],,,,,,,,,2018_Mar_31_1720,60.0465098782,sequenceLearningTask,001,006,
min1.png,min2.png,min3.png,min4.png,allBlank.png,,,,['num_1'],,,,,,0,3,3,3,,,,,,,,,,,,,,,,,['num_1'],4,0.0524603505619,1,['num_1'],0,[0.6586934635415673],,,,,,,,,2018_Mar_31_1720,60.0465098782,sequenceLearningTask,001,006,
min1.png,min2.png,min3.png,min4.png,allBlank.png,,,,['num_0'],,,,,,0,3,3,3,,,,,,,,,,,,,,,,,['num_0'],4,0.0541013777256,1,['num_0'],0,[0.4070120262913406],,,,,,,,,2018_Mar_31_1720,60.0465098782,sequenceLearningTask,001,006,
min1.png,min2.png,min3.png,min4.png,allBlank.png,,,,['num_7'],,,,,,0,4,4,4,,,,,,,,,,,,,,,,,['num_7'],5,0.0491782967001,1,['num_7'],0,[0.5930236661806703],,,,,,,,,2018_Mar_31_1720,60.0465098782,sequenceLearningTask,001,006,
min1.png,min2.png,min3.png,min4.png,allBlank.png,,,,['num_1'],,,,,,0,4,4,4,,,,,,,,,,,,,,,,,['num_1'],5,0.0434244456701,0,"['num_4', 'num_1']",0,"[0.0002244105562567711, 0.333302837330848]",,,,,,,,,2018_Mar_31_1720,60.0465098782,sequenceLearningTask,001,006,
min1.png,min2.png,min3.png,min4.png,allBlank.png,,,,['num_4'],,,,,,0,4,4,4,,,,,,,,,,,,,,,,,['num_4'],5,0.0482679367997,0,"['num_0', 'num_0', 'num_4']",0,"[0.06288579478859901, 1.029853562824428, 2.5964624378830194]",,,,,,,,,2018_Mar_31_1720,60.0465098782,sequenceLearningTask,001,006,
min1.png,min2.png,min3.png,min4.png,allBlank.png,,,,['num_0'],,,,,,0,4,4,4,,,,,,,,,,,,,,,,,['num_0'],5,0.0525021972135,1,['num_0'],0,[1.0757818059064448],,,,,,,,,2018_Mar_31_1720,60.0465098782,sequenceLearningTask,001,006,
min1.png,min2.png,min3.png,min4.png,allBlank.png,,,,['num_0'],,,,,,0,4,4,4,,,,,,,,,,,,,,,,,['num_0'],5,0.0450461907312,1,['num_0'],0,[0.7327017295174301],,,,,,,,,2018_Mar_31_1720,60.0465098782,sequenceLearningTask,001,006,
min1.png,min2.png,min3.png,min4.png,allBlank.png,,,,['num_4'],,,,,,0,4,4,4,,,,,,,,,,,,,,,,,['num_4'],5,0.0266490476206,1,['num_4'],0,[1.0197349903173745],,,,,,,,,2018_Mar_31_1720,60.0465098782,sequenceLearningTask,001,006,
min1.png,min2.png,min3.png,min4.png,allBlank.png,,,,['num_1'],,,,,,0,4,4,4,,,,,,,,,,,,,,,,,['num_1'],5,0.0431311125867,1,['num_1'],0,[0.53541828552261],,,,,,,,,2018_Mar_31_1720,60.0465098782,sequenceLearningTask,001,006,
min1.png,min2.png,min3.png,min4.png,allBlank.png,,,,['num_0'],,,,,,0,4,4,4,,,,,,,,,,,,,,,,,['num_0'],5,0.049715322908,1,['num_0'],0,[0.579003962688148],,,,,,,,,2018_Mar_31_1720,60.0465098782,sequenceLearningTask,001,006,
min1.png,min2.png,min3.png,min4.png,allBlank.png,,,,['num_7'],,,,,,0,5,5,5,,,,,,,,,,,,,,,,,['num_7'],6,0.0517739909701,1,['num_7'],0,[1.091029818635434],,,,,,,,,2018_Mar_31_1720,60.0465098782,sequenceLearningTask,001,006,
min1.png,min2.png,min3.png,min4.png,allBlank.png,,,,['num_1'],,,,,,0,5,5,5,,,,,,,,,,,,,,,,,['num_1'],6,0.0440623951145,1,['num_1'],0,[1.2504408205859363],,,,,,,,,2018_Mar_31_1720,60.0465098782,sequenceLearningTask,001,006,
min1.png,min2.png,min3.png,min4.png,allBlank.png,,,,['num_4'],,,,,,0,5,5,5,,,,,,,,,,,,,,,,,['num_4'],6,0.0445887548849,1,['num_4'],0,[0.6990934968926013],,,,,,,,,2018_Mar_31_1720,60.0465098782,sequenceLearningTask,001,006,
min1.png,min2.png,min3.png,min4.png,allBlank.png,,,,['num_0'],,,,,,0,5,5,5,,,,,,,,,,,,,,,,,['num_0'],6,0.0436504972167,1,['num_0'],0,[0.8678128146566451],,,,,,,,,2018_Mar_31_1720,60.0465098782,sequenceLearningTask,001,006,
min1.png,min2.png,min3.png,min4.png,allBlank.png,,,,['num_0'],,,,,,0,5,5,5,,,,,,,,,,,,,,,,,['num_0'],6,0.0456878324039,1,['num_0'],0,[0.615716197527945],,,,,,,,,2018_Mar_31_1720,60.0465098782,sequenceLearningTask,001,006,
min1.png,min2.png,min3.png,min4.png,allBlank.png,,,,['num_4'],,,,,,0,5,5,5,,,,,,,,,,,,,,,,,['num_4'],6,0.0434761382639,1,['num_4'],0,[0.58443822292611],,,,,,,,,2018_Mar_31_1720,60.0465098782,sequenceLearningTask,001,006,
min1.png,min2.png,min3.png,min4.png,allBlank.png,,,,['num_1'],,,,,,0,5,5,5,,,,,,,,,,,,,,,,,['num_1'],6,0.0482978858054,1,['num_1'],0,[1.2970033204182982],,,,,,,,,2018_Mar_31_1720,60.0465098782,sequenceLearningTask,001,006,
min1.png,min2.png,min3.png,min4.png,allBlank.png,,,,['num_0'],,,,,,0,5,5,5,,,,,,,,,,,,,,,,,['num_0'],6,0.0493916305713,1,['num_0'],0,[0.8960105814039707],,,,,,,,,2018_Mar_31_1720,60.0465098782,sequenceLearningTask,001,006,
min1.png,min2.png,min3.png,min4.png,allBlank.png,,,,['num_7'],,,,,,0,6,6,6,,,,,,,,,,,,,,,,,['num_7'],7,0.047110603191,1,['num_7'],0,[0.5798987322486937],,,,,,,,,2018_Mar_31_1720,60.0465098782,sequenceLearningTask,001,006,
min1.png,min2.png,min3.png,min4.png,allBlank.png,,,,['num_1'],,,,,,0,6,6,6,,,,,,,,,,,,,,,,,['num_1'],7,0.0405686483718,1,['num_1'],0,[1.920674396213144],,,,,,,,,2018_Mar_31_1720,60.0465098782,sequenceLearningTask,001,006,
min1.png,min2.png,min3.png,min4.png,allBlank.png,,,,['num_4'],,,,,,0,6,6,6,,,,,,,,,,,,,,,,,['num_4'],7,0.0449530626647,1,['num_4'],0,[0.8834907761774957],,,,,,,,,2018_Mar_31_1720,60.0465098782,sequenceLearningTask,001,006,
min1.png,min2.png,min3.png,min4.png,allBlank.png,,,,['num_0'],,,,,,0,6,6,6,,,,,,,,,,,,,,,,,['num_0'],7,0.0486806551926,1,['num_0'],0,[0.6965843662619591],,,,,,,,,2018_Mar_31_1720,60.0465098782,sequenceLearningTask,001,006,
min1.png,min2.png,min3.png,min4.png,allBlank.png,,,,['num_0'],,,,,,0,6,6,6,,,,,,,,,,,,,,,,,['num_0'],7,0.0459475247189,1,['num_0'],0,[0.6484304806217551],,,,,,,,,2018_Mar_31_1720,60.0465098782,sequenceLearningTask,001,006,
min1.png,min2.png,min3.png,min4.png,allBlank.png,,,,['num_4'],,,,,,0,6,6,6,,,,,,,,,,,,,,,,,['num_4'],7,0.0443988055922,1,['num_4'],0,[1.7167316651903093],,,,,,,,,2018_Mar_31_1720,60.0465098782,sequenceLearningTask,001,006,
min1.png,min2.png,min3.png,min4.png,allBlank.png,,,,['num_1'],,,,,,0,6,6,6,,,,,,,,,,,,,,,,,['num_1'],7,0.0401440327987,1,['num_1'],0,[0.7208551554940641],,,,,,,,,2018_Mar_31_1720,60.0465098782,sequenceLearningTask,001,006,
min1.png,min2.png,min3.png,min4.png,allBlank.png,,,,['num_0'],,,,,,0,6,6,6,,,,,,,,,,,,,,,,,['num_0'],7,0.0576927652583,1,['num_0'],0,[0.6527939713560045],,,,,,,,,2018_Mar_31_1720,60.0465098782,sequenceLearningTask,001,006,
min1.png,min2.png,min3.png,min4.png,allBlank.png,,,,['num_7'],,,,,,0,7,7,7,,,,,,,,,,,,,,,,,['num_7'],8,0.0515130679123,1,['num_7'],0,[1.1918619009666145],,,,,,,,,2018_Mar_31_1720,60.0465098782,sequenceLearningTask,001,006,
min1.png,min2.png,min3.png,min4.png,allBlank.png,,,,['num_1'],,,,,,0,7,7,7,,,,,,,,,,,,,,,,,['num_1'],8,0.048361885827,1,['num_1'],0,[0.9623220204375684],,,,,,,,,2018_Mar_31_1720,60.0465098782,sequenceLearningTask,001,006,
min1.png,min2.png,min3.png,min4.png,allBlank.png,,,,['num_4'],,,,,,0,7,7,7,,,,,,,,,,,,,,,,,['num_4'],8,0.0525280432776,1,['num_4'],0,[0.8086595353670418],,,,,,,,,2018_Mar_31_1720,60.0465098782,sequenceLearningTask,001,006,
min1.png,min2.png,min3.png,min4.png,allBlank.png,,,,['num_0'],,,,,,0,7,7,7,,,,,,,,,,,,,,,,,['num_0'],8,0.0472127567045,1,['num_0'],0,[0.5802634502761066],,,,,,,,,2018_Mar_31_1720,60.0465098782,sequenceLearningTask,001,006,
min1.png,min2.png,min3.png,min4.png,allBlank.png,,,,['num_0'],,,,,,0,7,7,7,,,,,,,,,,,,,,,,,['num_0'],8,0.0502187078819,1,['num_0'],0,[0.5608981009572744],,,,,,,,,2018_Mar_31_1720,60.0465098782,sequenceLearningTask,001,006,
min1.png,min2.png,min3.png,min4.png,allBlank.png,,,,['num_4'],,,,,,0,7,7,7,,,,,,,,,,,,,,,,,['num_4'],8,0.0467331665568,1,['num_4'],0,[1.31347348773852],,,,,,,,,2018_Mar_31_1720,60.0465098782,sequenceLearningTask,001,006,
min1.png,min2.png,min3.png,min4.png,allBlank.png,,,,['num_1'],,,,,,0,7,7,7,,,,,,,,,,,,,,,,,['num_1'],8,0.043660343159,1,['num_1'],0,[0.5845042746514082],,,,,,,,,2018_Mar_31_1720,60.0465098782,sequenceLearningTask,001,006,
min1.png,min2.png,min3.png,min4.png,allBlank.png,,,,['num_0'],,,,,,0,7,7,7,,,,,,,,,,,,,,,,,['num_0'],8,0.0364582864568,1,['num_0'],0,[0.5058490308001637],,,,,,,,,2018_Mar_31_1720,60.0465098782,sequenceLearningTask,001,006,
min1.png,min2.png,min3.png,min4.png,allBlank.png,,,,['num_7'],,,,,,0,8,8,8,,,,,,,,,,,,,,,,,['num_7'],9,0.0497403489426,1,['num_7'],0,[0.5764094986952841],,,,,,,,,2018_Mar_31_1720,60.0465098782,sequenceLearningTask,001,006,
min1.png,min2.png,min3.png,min4.png,allBlank.png,,,,['num_1'],,,,,,0,8,8,8,,,,,,,,,,,,,,,,,['num_1'],9,0.0486552193761,0,"['num_4', 'num_1']",0,"[0.3952942732721567, 0.9616024298593402]",,,,,,,,,2018_Mar_31_1720,60.0465098782,sequenceLearningTask,001,006,
min1.png,min2.png,min3.png,min4.png,allBlank.png,,,,['num_4'],,,,,,0,8,8,8,,,,,,,,,,,,,,,,,['num_4'],9,0.0449013700709,1,['num_4'],0,[0.6491574561223388],,,,,,,,,2018_Mar_31_1720,60.0465098782,sequenceLearningTask,001,006,
min1.png,min2.png,min3.png,min4.png,allBlank.png,,,,['num_0'],,,,,,0,8,8,8,,,,,,,,,,,,,,,,,['num_0'],9,0.049873271957,1,['num_0'],0,[0.211579660885036],,,,,,,,,2018_Mar_31_1720,60.0465098782,sequenceLearningTask,001,006,
min1.png,min2.png,min3.png,min4.png,allBlank.png,,,,['num_0'],,,,,,0,8,8,8,,,,,,,,,,,,,,,,,['num_0'],9,0.0468521406874,1,['num_0'],0,[0.6642475193366408],,,,,,,,,2018_Mar_31_1720,60.0465098782,sequenceLearningTask,001,006,
min1.png,min2.png,min3.png,min4.png,allBlank.png,,,,['num_4'],,,,,,0,8,8,8,,,,,,,,,,,,,,,,,['num_4'],9,0.0394744942896,0,"['num_0', 'num_4']",0,"[1.753107899799943, 2.3402333045378327]",,,,,,,,,2018_Mar_31_1720,60.0465098782,sequenceLearningTask,001,006,
min1.png,min2.png,min3.png,min4.png,allBlank.png,,,,['num_1'],,,,,,0,8,8,8,,,,,,,,,,,,,,,,,['num_1'],9,0.0376824927516,0,"['num_4', 'num_1']",0,"[2.4240200403146446, 3.0906847924925387]",,,,,,,,,2018_Mar_31_1720,60.0465098782,sequenceLearningTask,001,006,
min1.png,min2.png,min3.png,min4.png,allBlank.png,,,,['num_0'],,,,,,0,8,8,8,,,,,,,,,,,,,,,,,['num_0'],9,0.0515495808795,1,['num_0'],0,[0.8433368969708681],,,,,,,,,2018_Mar_31_1720,60.0465098782,sequenceLearningTask,001,006,
min1.png,min2.png,min3.png,min4.png,allBlank.png,,,,['num_7'],,,,,,0,9,9,9,,,,,,,,,,,,,,,,,['num_7'],10,0.0503380927257,1,['num_7'],0,[1.276161867659539],,,,,,,,,2018_Mar_31_1720,60.0465098782,sequenceLearningTask,001,006,
min1.png,min2.png,min3.png,min4.png,allBlank.png,,,,['num_1'],,,,,,0,9,9,9,,,,,,,,,,,,,,,,,['num_1'],10,0.0455110114999,1,['num_1'],0,[0.6987837529741228],,,,,,,,,2018_Mar_31_1720,60.0465098782,sequenceLearningTask,001,006,
min1.png,min2.png,min3.png,min4.png,allBlank.png,,,,['num_4'],,,,,,0,9,9,9,,,,,,,,,,,,,,,,,['num_4'],10,0.0475467056967,1,['num_4'],0,[0.4628652003593743],,,,,,,,,2018_Mar_31_1720,60.0465098782,sequenceLearningTask,001,006,
min1.png,min2.png,min3.png,min4.png,allBlank.png,,,,['num_0'],,,,,,0,9,9,9,,,,,,,,,,,,,,,,,['num_0'],10,0.0522671197541,0,"['num_0', 'num_0']",0,"[0.039779724553227425, 0.4583490937948227]",,,,,,,,,2018_Mar_31_1720,60.0465098782,sequenceLearningTask,001,006,
min1.png,min2.png,min3.png,min4.png,allBlank.png,,,,['num_0'],,,,,,0,9,9,9,,,,,,,,,,,,,,,,,['num_0'],10,0.044286805205,0,"['num_0', 'num_0']",0,"[0.0001936410553753376, 1.3507502367720008]",,,,,,,,,2018_Mar_31_1720,60.0465098782,sequenceLearningTask,001,006,
min1.png,min2.png,min3.png,min4.png,allBlank.png,,,,['num_4'],,,,,,0,9,9,9,,,,,,,,,,,,,,,,,['num_4'],10,0.0476878341287,1,['num_4'],0,[1.430359737481922],,,,,,,,,2018_Mar_31_1720,60.0465098782,sequenceLearningTask,001,006,
min1.png,min2.png,min3.png,min4.png,allBlank.png,,,,['num_1'],,,,,,0,9,9,9,,,,,,,,,,,,,,,,,['num_1'],10,0.04925624514,1,['num_1'],0,[0.4120610561221838],,,,,,,,,2018_Mar_31_1720,60.0465098782,sequenceLearningTask,001,006,
min1.png,min2.png,min3.png,min4.png,allBlank.png,,,,['num_0'],,,,,,0,9,9,9,,,,,,,,,,,,,,,,,['num_0'],10,0.0433596251532,1,['num_0'],0,[0.4190686517395079],,,,,,,,,2018_Mar_31_1720,60.0465098782,sequenceLearningTask,001,006,
min1.png,min2.png,min3.png,min4.png,allBlank.png,,,,['num_7'],,,,,,0,0,0,0,,,,,,,,,,,,,,,,,['num_7'],1,0.0336484378204,1,['num_7'],0,[1.234720602631569],,,,,,,,,2018_Mar_31_1720,60.0465098782,sequenceLearningTask,001,006,
min1.png,min2.png,min3.png,min4.png,allBlank.png,,,,['num_1'],,,,,,0,0,0,0,,,,,,,,,,,,,,,,,['num_1'],1,0.0439663948491,1,['num_1'],0,[0.8174464143812656],,,,,,,,,2018_Mar_31_1720,60.0465098782,sequenceLearningTask,001,006,
min1.png,min2.png,min3.png,min4.png,allBlank.png,,,,['num_4'],,,,,,0,0,0,0,,,,,,,,,,,,,,,,,['num_4'],1,0.04610342253,1,['num_4'],0,[0.4646818172186613],,,,,,,,,2018_Mar_31_1720,60.0465098782,sequenceLearningTask,001,006,
min1.png,min2.png,min3.png,min4.png,allBlank.png,,,,['num_0'],,,,,,0,0,0,0,,,,,,,,,,,,,,,,,['num_0'],1,0.0414556241594,0,"['num_0', 'num_0']",0,"[0.00018092337995767593, 0.252974976785481]",,,,,,,,,2018_Mar_31_1720,60.0465098782,sequenceLearningTask,001,006,
min1.png,min2.png,min3.png,min4.png,allBlank.png,,,,['num_0'],,,,,,0,0,0,0,,,,,,,,,,,,,,,,,['num_0'],1,0.0530880433507,1,['num_0'],0,[0.4084306941367686],,,,,,,,,2018_Mar_31_1720,60.0465098782,sequenceLearningTask,001,006,
min1.png,min2.png,min3.png,min4.png,allBlank.png,,,,['num_4'],,,,,,0,0,0,0,,,,,,,,,,,,,,,,,['num_4'],1,0.0458392170258,1,['num_4'],0,[1.6821228158660233],,,,,,,,,2018_Mar_31_1720,60.0465098782,sequenceLearningTask,001,006,
min1.png,min2.png,min3.png,min4.png,allBlank.png,,,,['num_1'],,,,,,0,0,0,0,,,,,,,,,,,,,,,,,['num_1'],1,0.0450937808491,1,['num_1'],0,[0.5992616196162999],,,,,,,,,2018_Mar_31_1720,60.0465098782,sequenceLearningTask,001,006,
min1.png,min2.png,min3.png,min4.png,allBlank.png,,,,['num_0'],,,,,,0,0,0,0,,,,,,,,,,,,,,,,,['num_0'],1,0.0445038313046,1,['num_0'],0,[0.33388499170541763],,,,,,,,,2018_Mar_31_1720,60.0465098782,sequenceLearningTask,001,006,
min1.png,min2.png,min3.png,min4.png,allBlank.png,,,,['num_7'],,,,,,0,1,1,1,,,,,,,,,,,,,,,,,['num_7'],2,0.0501473229378,0,"['num_0', 'num_7']",0,"[0.0004927180707454681, 0.9588541202247143]",,,,,,,,,2018_Mar_31_1720,60.0465098782,sequenceLearningTask,001,006,
min1.png,min2.png,min3.png,min4.png,allBlank.png,,,,['num_1'],,,,,,0,1,1,1,,,,,,,,,,,,,,,,,['num_1'],2,0.0436841384508,1,['num_1'],0,[0.9351363573223352],,,,,,,,,2018_Mar_31_1720,60.0465098782,sequenceLearningTask,001,006,
min1.png,min2.png,min3.png,min4.png,allBlank.png,,,,['num_4'],,,,,,0,1,1,1,,,,,,,,,,,,,,,,,['num_4'],2,0.0515495804138,1,['num_4'],0,[0.4436971843242645],,,,,,,,,2018_Mar_31_1720,60.0465098782,sequenceLearningTask,001,006,
min1.png,min2.png,min3.png,min4.png,allBlank.png,,,,['num_0'],,,,,,0,1,1,1,,,,,,,,,,,,,,,,,['num_0'],2,0.0461387042888,1,['num_0'],0,[0.3317106310278177],,,,,,,,,2018_Mar_31_1720,60.0465098782,sequenceLearningTask,001,006,
min1.png,min2.png,min3.png,min4.png,allBlank.png,,,,['num_0'],,,,,,0,1,1,1,,,,,,,,,,,,,,,,,['num_0'],2,0.045218498446,1,['num_0'],0,[0.2819920261390507],,,,,,,,,2018_Mar_31_1720,60.0465098782,sequenceLearningTask,001,006,
min1.png,min2.png,min3.png,min4.png,allBlank.png,,,,['num_4'],,,,,,0,1,1,1,,,,,,,,,,,,,,,,,['num_4'],2,0.0476985005662,0,"['num_0', 'num_7', 'num_4']",0,"[0.2473392798565328, 0.8310484769754112, 1.2141006886959076]",,,,,,,,,2018_Mar_31_1720,60.0465098782,sequenceLearningTask,001,006,
min1.png,min2.png,min3.png,min4.png,allBlank.png,,,,['num_1'],,,,,,0,1,1,1,,,,,,,,,,,,,,,,,['num_1'],2,0.0490929633379,0,"['num_0', 'num_1']",0,"[0.9956344580277801, 1.8104970753192902]",,,,,,,,,2018_Mar_31_1720,60.0465098782,sequenceLearningTask,001,006,
min1.png,min2.png,min3.png,min4.png,allBlank.png,,,,['num_0'],,,,,,0,1,1,1,,,,,,,,,,,,,,,,,['num_0'],2,0.0494941943325,1,['num_0'],0,[1.911044439766556],,,,,,,,,2018_Mar_31_1720,60.0465098782,sequenceLearningTask,001,006,
min1.png,min2.png,min3.png,min4.png,allBlank.png,,,,['num_7'],,,,,,0,2,2,2,,,,,,,,,,,,,,,,,['num_7'],3,0.0468049617484,1,['num_7'],0,[0.8285401673056185],,,,,,,,,2018_Mar_31_1720,60.0465098782,sequenceLearningTask,001,006,
min1.png,min2.png,min3.png,min4.png,allBlank.png,,,,['num_1'],,,,,,0,2,2,2,,,,,,,,,,,,,,,,,['num_1'],3,0.0493005532771,0,"['num_4', 'num_1']",0,"[0.7623821636661887, 1.1790844541974366]",,,,,,,,,2018_Mar_31_1720,60.0465098782,sequenceLearningTask,001,006,
min1.png,min2.png,min3.png,min4.png,allBlank.png,,,,['num_4'],,,,,,0,2,2,2,,,,,,,,,,,,,,,,,['num_4'],3,0.0518872216344,1,['num_4'],0,[1.2405195818282664],,,,,,,,,2018_Mar_31_1720,60.0465098782,sequenceLearningTask,001,006,
min1.png,min2.png,min3.png,min4.png,allBlank.png,,,,['num_0'],,,,,,0,2,2,2,,,,,,,,,,,,,,,,,['num_0'],3,0.0411011618562,1,['num_0'],0,[0.8202632367610931],,,,,,,,,2018_Mar_31_1720,60.0465098782,sequenceLearningTask,001,006,
min1.png,min2.png,min3.png,min4.png,allBlank.png,,,,['num_0'],,,,,,0,2,2,2,,,,,,,,,,,,,,,,,['num_0'],3,0.0432705995627,1,['num_0'],0,[0.8180515430867672],,,,,,,,,2018_Mar_31_1720,60.0465098782,sequenceLearningTask,001,006,
min1.png,min2.png,min3.png,min4.png,allBlank.png,,,,['num_4'],,,,,,0,2,2,2,,,,,,,,,,,,,,,,,['num_4'],3,0.0508829136379,1,['num_4'],0,[1.4433263125829399],,,,,,,,,2018_Mar_31_1720,60.0465098782,sequenceLearningTask,001,006,
min1.png,min2.png,min3.png,min4.png,allBlank.png,,,,['num_1'],,,,,,0,2,2,2,,,,,,,,,,,,,,,,,['num_1'],3,0.054816044867,0,"['num_4', 'num_0', 'num_1']",0,"[1.2061002715490758, 1.8553602914325893, 2.6554491533897817]",,,,,,,,,2018_Mar_31_1720,60.0465098782,sequenceLearningTask,001,006,
min1.png,min2.png,min3.png,min4.png,allBlank.png,,,,['num_0'],,,,,,0,2,2,2,,,,,,,,,,,,,,,,,['num_0'],3,0.0476500904188,1,['num_0'],0,[1.2136469441466033],,,,,,,,,2018_Mar_31_1720,60.0465098782,sequenceLearningTask,001,006,
min1.png,min2.png,min3.png,min4.png,allBlank.png,,,,['num_7'],,,,,,0,3,3,3,,,,,,,,,,,,,,,,,['num_7'],4,0.0435032155365,1,['num_7'],0,[1.1323910825885832],,,,,,,,,2018_Mar_31_1720,60.0465098782,sequenceLearningTask,001,006,
min1.png,min2.png,min3.png,min4.png,allBlank.png,,,,['num_1'],,,,,,0,3,3,3,,,,,,,,,,,,,,,,,['num_1'],4,0.0501165539026,1,['num_1'],0,[0.6454712990671396],,,,,,,,,2018_Mar_31_1720,60.0465098782,sequenceLearningTask,001,006,
min1.png,min2.png,min3.png,min4.png,allBlank.png,,,,['num_4'],,,,,,0,3,3,3,,,,,,,,,,,,,,,,,['num_4'],4,0.0467967563309,1,['num_4'],0,[0.46437576599419117],,,,,,,,,2018_Mar_31_1720,60.0465098782,sequenceLearningTask,001,006,
min1.png,min2.png,min3.png,min4.png,allBlank.png,,,,['num_0'],,,,,,0,3,3,3,,,,,,,,,,,,,,,,,['num_0'],4,0.0518925557844,1,['num_0'],0,[0.3928622710518539],,,,,,,,,2018_Mar_31_1720,60.0465098782,sequenceLearningTask,001,006,
min1.png,min2.png,min3.png,min4.png,allBlank.png,,,,['num_0'],,,,,,0,3,3,3,,,,,,,,,,,,,,,,,['num_0'],4,0.039272647351,1,['num_0'],0,[0.43849964207038283],,,,,,,,,2018_Mar_31_1720,60.0465098782,sequenceLearningTask,001,006,
min1.png,min2.png,min3.png,min4.png,allBlank.png,,,,['num_4'],,,,,,0,3,3,3,,,,,,,,,,,,,,,,,['num_4'],4,0.0480566550978,1,['num_4'],0,[0.9807470613159239],,,,,,,,,2018_Mar_31_1720,60.0465098782,sequenceLearningTask,001,006,
min1.png,min2.png,min3.png,min4.png,allBlank.png,,,,['num_1'],,,,,,0,3,3,3,,,,,,,,,,,,,,,,,['num_1'],4,0.0474059875123,1,['num_1'],0,[0.7272051093168557],,,,,,,,,2018_Mar_31_1720,60.0465098782,sequenceLearningTask,001,006,
min1.png,min2.png,min3.png,min4.png,allBlank.png,,,,['num_0'],,,,,,0,3,3,3,,,,,,,,,,,,,,,,,['num_0'],4,0.0435023945756,1,['num_0'],0,[0.7022651913575828],,,,,,,,,2018_Mar_31_1720,60.0465098782,sequenceLearningTask,001,006,
min1.png,min2.png,min3.png,min4.png,allBlank.png,,,,['num_7'],,,,,,0,4,4,4,,,,,,,,,,,,,,,,,['num_7'],5,0.0457210629247,1,['num_7'],0,[1.0636981036514044],,,,,,,,,2018_Mar_31_1720,60.0465098782,sequenceLearningTask,001,006,
min1.png,min2.png,min3.png,min4.png,allBlank.png,,,,['num_1'],,,,,,0,4,4,4,,,,,,,,,,,,,,,,,['num_1'],5,0.0503454771824,0,"['num_4', 'num_1']",0,"[0.14452360570430756, 0.6945109288208187]",,,,,,,,,2018_Mar_31_1720,60.0465098782,sequenceLearningTask,001,006,
min1.png,min2.png,min3.png,min4.png,allBlank.png,,,,['num_4'],,,,,,0,4,4,4,,,,,,,,,,,,,,,,,['num_4'],5,0.0442494722083,0,"['num_7', 'num_4']",0,"[1.0827024271711707, 2.266651296056807]",,,,,,,,,2018_Mar_31_1720,60.0465098782,sequenceLearningTask,001,006,
min1.png,min2.png,min3.png,min4.png,allBlank.png,,,,['num_0'],,,,,,0,4,4,4,,,,,,,,,,,,,,,,,['num_0'],5,0.0431495737284,1,['num_0'],0,[1.001782976090908],,,,,,,,,2018_Mar_31_1720,60.0465098782,sequenceLearningTask,001,006,
min1.png,min2.png,min3.png,min4.png,allBlank.png,,,,['num_0'],,,,,,0,4,4,4,,,,,,,,,,,,,,,,,['num_0'],5,0.0475241416134,1,['num_0'],0,[0.7305384455248713],,,,,,,,,2018_Mar_31_1720,60.0465098782,sequenceLearningTask,001,006,
min1.png,min2.png,min3.png,min4.png,allBlank.png,,,,['num_4'],,,,,,0,4,4,4,,,,,,,,,,,,,,,,,['num_4'],5,0.0484377834946,1,['num_4'],0,[1.8626304510980844],,,,,,,,,2018_Mar_31_1720,60.0465098782,sequenceLearningTask,001,006,
min1.png,min2.png,min3.png,min4.png,allBlank.png,,,,['num_1'],,,,,,0,4,4,4,,,,,,,,,,,,,,,,,['num_1'],5,0.0426145987585,1,['num_1'],0,[0.9367187176831067],,,,,,,,,2018_Mar_31_1720,60.0465098782,sequenceLearningTask,001,006,
min1.png,min2.png,min3.png,min4.png,allBlank.png,,,,['num_0'],,,,,,0,4,4,4,,,,,,,,,,,,,,,,,['num_0'],5,0.0557657890022,1,['num_0'],0,[2.221437720116228],,,,,,,,,2018_Mar_31_1720,60.0465098782,sequenceLearningTask,001,006,
min1.png,min2.png,min3.png,min4.png,allBlank.png,,,,['num_7'],,,,,,0,5,5,5,,,,,,,,,,,,,,,,,['num_7'],6,0.045378498733,1,['num_7'],0,[1.1644050581380725],,,,,,,,,2018_Mar_31_1720,60.0465098782,sequenceLearningTask,001,006,
min1.png,min2.png,min3.png,min4.png,allBlank.png,,,,['num_1'],,,,,,0,5,5,5,,,,,,,,,,,,,,,,,['num_1'],6,0.0445567546412,1,['num_1'],0,[1.8833348783664405],,,,,,,,,2018_Mar_31_1720,60.0465098782,sequenceLearningTask,001,006,
min1.png,min2.png,min3.png,min4.png,allBlank.png,,,,['num_4'],,,,,,0,5,5,5,,,,,,,,,,,,,,,,,['num_4'],6,0.0496435277164,1,['num_4'],0,[1.1786553259007633],,,,,,,,,2018_Mar_31_1720,60.0465098782,sequenceLearningTask,001,006,
min1.png,min2.png,min3.png,min4.png,allBlank.png,,,,['num_0'],,,,,,0,5,5,5,,,,,,,,,,,,,,,,,['num_0'],6,0.0519134784117,1,['num_0'],0,[0.4258575802668929],,,,,,,,,2018_Mar_31_1720,60.0465098782,sequenceLearningTask,001,006,
min1.png,min2.png,min3.png,min4.png,allBlank.png,,,,['num_0'],,,,,,0,5,5,5,,,,,,,,,,,,,,,,,['num_0'],6,0.0537547105923,1,['num_0'],0,[0.7408363004215062],,,,,,,,,2018_Mar_31_1720,60.0465098782,sequenceLearningTask,001,006,
min1.png,min2.png,min3.png,min4.png,allBlank.png,,,,['num_4'],,,,,,0,5,5,5,,,,,,,,,,,,,,,,,['num_4'],6,0.0508480421267,1,['num_4'],0,[1.3264958574436605],,,,,,,,,2018_Mar_31_1720,60.0465098782,sequenceLearningTask,001,006,
min1.png,min2.png,min3.png,min4.png,allBlank.png,,,,['num_1'],,,,,,0,5,5,5,,,,,,,,,,,,,,,,,['num_1'],6,0.0492406557314,1,['num_1'],0,[0.7282163924537599],,,,,,,,,2018_Mar_31_1720,60.0465098782,sequenceLearningTask,001,006,
min1.png,min2.png,min3.png,min4.png,allBlank.png,,,,['num_0'],,,,,,0,5,5,5,,,,,,,,,,,,,,,,,['num_0'],6,0.0511881443672,1,['num_0'],0,[0.5602712291292846],,,,,,,,,2018_Mar_31_1720,60.0465098782,sequenceLearningTask,001,006,
min1.png,min2.png,min3.png,min4.png,allBlank.png,,,,['num_7'],,,,,,0,6,6,6,,,,,,,,,,,,,,,,,['num_7'],7,0.0431192149408,1,['num_7'],0,[1.051133580505848],,,,,,,,,2018_Mar_31_1720,60.0465098782,sequenceLearningTask,001,006,
min1.png,min2.png,min3.png,min4.png,allBlank.png,,,,['num_1'],,,,,,0,6,6,6,,,,,,,,,,,,,,,,,['num_1'],7,0.0456939861178,1,['num_1'],0,[0.631925851572305],,,,,,,,,2018_Mar_31_1720,60.0465098782,sequenceLearningTask,001,006,
min1.png,min2.png,min3.png,min4.png,allBlank.png,,,,['num_4'],,,,,,0,6,6,6,,,,,,,,,,,,,,,,,['num_4'],7,0.0497309127823,1,['num_4'],0,[0.5793469366617501],,,,,,,,,2018_Mar_31_1720,60.0465098782,sequenceLearningTask,001,006,
min1.png,min2.png,min3.png,min4.png,allBlank.png,,,,['num_0'],,,,,,0,6,6,6,,,,,,,,,,,,,,,,,['num_0'],7,0.0533317360096,1,['num_0'],0,[0.30782425263896585],,,,,,,,,2018_Mar_31_1720,60.0465098782,sequenceLearningTask,001,006,
min1.png,min2.png,min3.png,min4.png,allBlank.png,,,,['num_0'],,,,,,0,6,6,6,,,,,,,,,,,,,,,,,['num_0'],7,0.0432152152061,1,['num_0'],0,[0.4023260739631951],,,,,,,,,2018_Mar_31_1720,60.0465098782,sequenceLearningTask,001,006,
min1.png,min2.png,min3.png,min4.png,allBlank.png,,,,['num_4'],,,,,,0,6,6,6,,,,,,,,,,,,,,,,,['num_4'],7,0.043368651066,1,['num_4'],0,[1.1851053829304874],,,,,,,,,2018_Mar_31_1720,60.0465098782,sequenceLearningTask,001,006,
min1.png,min2.png,min3.png,min4.png,allBlank.png,,,,['num_1'],,,,,,0,6,6,6,,,,,,,,,,,,,,,,,['num_1'],7,0.0461341915652,1,['num_1'],0,[0.4643966886214912],,,,,,,,,2018_Mar_31_1720,60.0465098782,sequenceLearningTask,001,006,
min1.png,min2.png,min3.png,min4.png,allBlank.png,,,,['num_0'],,,,,,0,6,6,6,,,,,,,,,,,,,,,,,['num_0'],7,0.0473645520397,1,['num_0'],0,[0.3636556826531887],,,,,,,,,2018_Mar_31_1720,60.0465098782,sequenceLearningTask,001,006,
min1.png,min2.png,min3.png,min4.png,allBlank.png,,,,['num_7'],,,,,,0,7,7,7,,,,,,,,,,,,,,,,,['num_7'],8,0.0433805482462,0,"['num_0', 'num_7']",0,"[0.04920824570581317, 1.7826677192933857]",,,,,,,,,2018_Mar_31_1720,60.0465098782,sequenceLearningTask,001,006,
min1.png,min2.png,min3.png,min4.png,allBlank.png,,,,['num_1'],,,,,,0,7,7,7,,,,,,,,,,,,,,,,,['num_1'],8,0.0493772714399,1,['num_1'],0,[0.7763862782157958],,,,,,,,,2018_Mar_31_1720,60.0465098782,sequenceLearningTask,001,006,
min1.png,min2.png,min3.png,min4.png,allBlank.png,,,,['num_4'],,,,,,0,7,7,7,,,,,,,,,,,,,,,,,['num_4'],8,0.0612148195505,1,['num_4'],0,[0.597109823487699],,,,,,,,,2018_Mar_31_1720,60.0465098782,sequenceLearningTask,001,006,
min1.png,min2.png,min3.png,min4.png,allBlank.png,,,,['num_0'],,,,,,0,7,7,7,,,,,,,,,,,,,,,,,['num_0'],8,0.0434523434378,1,['num_0'],0,[0.16765265027061105],,,,,,,,,2018_Mar_31_1720,60.0465098782,sequenceLearningTask,001,006,
min1.png,min2.png,min3.png,min4.png,allBlank.png,,,,['num_0'],,,,,,0,7,7,7,,,,,,,,,,,,,,,,,['num_0'],8,0.0473666032776,0,"['num_0', 'num_0']",0,"[0.028012330643832684, 1.0137768317945302]",,,,,,,,,2018_Mar_31_1720,60.0465098782,sequenceLearningTask,001,006,
min1.png,min2.png,min3.png,min4.png,allBlank.png,,,,['num_4'],,,,,,0,7,7,7,,,,,,,,,,,,,,,,,['num_4'],8,0.0502855796367,1,['num_4'],0,[1.227871366776526],,,,,,,,,2018_Mar_31_1720,60.0465098782,sequenceLearningTask,001,006,
min1.png,min2.png,min3.png,min4.png,allBlank.png,,,,['num_1'],,,,,,0,7,7,7,,,,,,,,,,,,,,,,,['num_1'],8,0.0426281373948,1,['num_1'],0,[0.5855229417793453],,,,,,,,,2018_Mar_31_1720,60.0465098782,sequenceLearningTask,001,006,
min1.png,min2.png,min3.png,min4.png,allBlank.png,,,,['num_0'],,,,,,0,7,7,7,,,,,,,,,,,,,,,,,['num_0'],8,0.0453370627947,1,['num_0'],0,[0.6991505222395062],,,,,,,,,2018_Mar_31_1720,60.0465098782,sequenceLearningTask,001,006,
min1.png,min2.png,min3.png,min4.png,allBlank.png,,,,['num_7'],,,,,,0,8,8,8,,,,,,,,,,,,,,,,,['num_7'],9,0.0448074215092,1,['num_7'],0,[1.5504796314053237],,,,,,,,,2018_Mar_31_1720,60.0465098782,sequenceLearningTask,001,006,
min1.png,min2.png,min3.png,min4.png,allBlank.png,,,,['num_1'],,,,,,0,8,8,8,,,,,,,,,,,,,,,,,['num_1'],9,0.0435975743458,1,['num_1'],0,[1.7188945384696126],,,,,,,,,2018_Mar_31_1720,60.0465098782,sequenceLearningTask,001,006,
min1.png,min2.png,min3.png,min4.png,allBlank.png,,,,['num_4'],,,,,,0,8,8,8,,,,,,,,,,,,,,,,,['num_4'],9,0.0369337741286,1,['num_4'],0,[1.6243291278369725],,,,,,,,,2018_Mar_31_1720,60.0465098782,sequenceLearningTask,001,006,
min1.png,min2.png,min3.png,min4.png,allBlank.png,,,,['num_0'],,,,,,0,8,8,8,,,,,,,,,,,,,,,,,['num_0'],9,0.0425091632642,1,['num_0'],0,[0.9199827034026384],,,,,,,,,2018_Mar_31_1720,60.0465098782,sequenceLearningTask,001,006,
min1.png,min2.png,min3.png,min4.png,allBlank.png,,,,['num_0'],,,,,,0,8,8,8,,,,,,,,,,,,,,,,,['num_0'],9,0.0378925441764,1,['num_0'],0,[0.7395464526489377],,,,,,,,,2018_Mar_31_1720,60.0465098782,sequenceLearningTask,001,006,
min1.png,min2.png,min3.png,min4.png,allBlank.png,,,,['num_4'],,,,,,0,8,8,8,,,,,,,,,,,,,,,,,['num_4'],9,0.0468578841537,1,['num_4'],0,[0.9471121616661549],,,,,,,,,2018_Mar_31_1720,60.0465098782,sequenceLearningTask,001,006,
min1.png,min2.png,min3.png,min4.png,allBlank.png,,,,['num_1'],,,,,,0,8,8,8,,,,,,,,,,,,,,,,,['num_1'],9,0.0425953171216,1,['num_1'],0,[0.4854572187177837],,,,,,,,,2018_Mar_31_1720,60.0465098782,sequenceLearningTask,001,006,
min1.png,min2.png,min3.png,min4.png,allBlank.png,,,,['num_0'],,,,,,0,8,8,8,,,,,,,,,,,,,,,,,['num_0'],9,0.0541481468827,1,['num_0'],0,[0.4081049505621195],,,,,,,,,2018_Mar_31_1720,60.0465098782,sequenceLearningTask,001,006,
min1.png,min2.png,min3.png,min4.png,allBlank.png,,,,['num_7'],,,,,,0,9,9,9,,,,,,,,,,,,,,,,,['num_7'],10,0.0448546009138,0,"['num_0', 'num_7']",0,"[0.0002756929025053978, 0.997702972497791]",,,,,,,,,2018_Mar_31_1720,60.0465098782,sequenceLearningTask,001,006,
min1.png,min2.png,min3.png,min4.png,allBlank.png,,,,['num_1'],,,,,,0,9,9,9,,,,,,,,,,,,,,,,,['num_1'],10,0.0523352227174,1,['num_1'],0,[2.7925737788900733],,,,,,,,,2018_Mar_31_1720,60.0465098782,sequenceLearningTask,001,006,
min1.png,min2.png,min3.png,min4.png,allBlank.png,,,,['num_4'],,,,,,0,9,9,9,,,,,,,,,,,,,,,,,['num_4'],10,0.0495060919784,1,['num_4'],0,[1.4787130081094801],,,,,,,,,2018_Mar_31_1720,60.0465098782,sequenceLearningTask,001,006,
min1.png,min2.png,min3.png,min4.png,allBlank.png,,,,['num_0'],,,,,,0,9,9,9,,,,,,,,,,,,,,,,,['num_0'],10,0.0596640487202,1,['num_0'],0,[0.8849086235277355],,,,,,,,,2018_Mar_31_1720,60.0465098782,sequenceLearningTask,001,006,
min1.png,min2.png,min3.png,min4.png,allBlank.png,,,,['num_0'],,,,,,0,9,9,9,,,,,,,,,,,,,,,,,['num_0'],10,0.0410909056664,1,['num_0'],0,[0.9700918728485703],,,,,,,,,2018_Mar_31_1720,60.0465098782,sequenceLearningTask,001,006,
min1.png,min2.png,min3.png,min4.png,allBlank.png,,,,['num_4'],,,,,,0,9,9,9,,,,,,,,,,,,,,,,,['num_4'],10,0.0508681447245,1,['num_4'],0,[2.3269372936338186],,,,,,,,,2018_Mar_31_1720,60.0465098782,sequenceLearningTask,001,006,
min1.png,min2.png,min3.png,min4.png,allBlank.png,,,,['num_1'],,,,,,0,9,9,9,,,,,,,,,,,,,,,,,['num_1'],10,0.0527409664355,1,['num_1'],0,[0.6917617982253432],,,,,,,,,2018_Mar_31_1720,60.0465098782,sequenceLearningTask,001,006,
min1.png,min2.png,min3.png,min4.png,allBlank.png,,,,['num_0'],,,,,,0,9,9,9,,,,,,,,,,,,,,,,,['num_0'],10,0.0537383006886,1,['num_0'],0,[0.44356262031942606],,,,,,,,,2018_Mar_31_1720,60.0465098782,sequenceLearningTask,001,006,
min1.png,min2.png,min3.png,min4.png,images/allBlank.png,images/min2.png,'num_4',"['num_7', 'num_4', 'num_1', 'num_0']",['num_4'],num_4,,,,,0,9,9,9,0,0,0,1,,,,,,,,,,,,,['num_4'],,0.0304365376942,1,['num_4'],0,[0.8655481971800327],1,,,,,,,,2018_Mar_31_1720,60.0465098782,sequenceLearningTask,001,006,
min1.png,min2.png,min3.png,min4.png,images/allBlank.png,images/min4.png,'num_0',"['num_7', 'num_4', 'num_1', 'num_0']",['num_0'],num_0,,,,,0,9,9,9,0,1,1,3,,,,,,,,,,,,,['num_0'],,0.0476927570999,1,['num_0'],0,[0.7454012269154191],1,,,,,,,,2018_Mar_31_1720,60.0465098782,sequenceLearningTask,001,006,
min1.png,min2.png,min3.png,min4.png,images/allBlank.png,images/min3.png,'num_1',"['num_7', 'num_4', 'num_1', 'num_0']",['num_1'],num_1,,,,,0,9,9,9,0,2,2,2,,,,,,,,,,,,,['num_1'],,0.0415175724775,0,"['num_4', 'num_1']",0,"[1.0182453482411802, 1.7353253215551376]",0,,,,,,,,2018_Mar_31_1720,60.0465098782,sequenceLearningTask,001,006,
min1.png,min2.png,min3.png,min4.png,images/allBlank.png,images/min1.png,'num_7',"['num_7', 'num_4', 'num_1', 'num_0']",['num_7'],num_7,,,,,0,9,9,9,0,3,3,0,,,,,,,,,,,,,['num_7'],,0.0527914278209,1,['num_7'],0,[1.4218128588981926],1,,,,,,,,2018_Mar_31_1720,60.0465098782,sequenceLearningTask,001,006,
min1.png,min2.png,min3.png,min4.png,images/allBlank.png,images/min3.png,'num_1',"['num_7', 'num_4', 'num_1', 'num_0']",['num_1'],num_1,,,,,0,9,9,9,1,0,4,2,,,,,,,,,,,,,['num_1'],,0.0516152218916,1,['num_1'],0,[1.5082560065202415],1,,,,,,,,2018_Mar_31_1720,60.0465098782,sequenceLearningTask,001,006,
min1.png,min2.png,min3.png,min4.png,images/allBlank.png,images/min4.png,'num_0',"['num_7', 'num_4', 'num_1', 'num_0']",['num_0'],num_0,,,,,0,9,9,9,1,1,5,3,,,,,,,,,,,,,['num_0'],,0.0524016837589,1,['num_0'],0,[0.687332256231457],1,,,,,,,,2018_Mar_31_1720,60.0465098782,sequenceLearningTask,001,006,
min1.png,min2.png,min3.png,min4.png,images/allBlank.png,images/min1.png,'num_7',"['num_7', 'num_4', 'num_1', 'num_0']",['num_7'],num_7,,,,,0,9,9,9,1,2,6,0,,,,,,,,,,,,,['num_7'],,0.0448189084418,1,['num_7'],0,[0.9982182551175356],1,,,,,,,,2018_Mar_31_1720,60.0465098782,sequenceLearningTask,001,006,
min1.png,min2.png,min3.png,min4.png,images/allBlank.png,images/min2.png,'num_4',"['num_7', 'num_4', 'num_1', 'num_0']",['num_4'],num_4,,,,,0,9,9,9,1,3,7,1,,,,,,,,,,,,,['num_4'],,0.0509493751451,1,['num_4'],0,[0.7428732248954475],1,,,,,,,,2018_Mar_31_1720,60.0465098782,sequenceLearningTask,001,006,
min1.png,min2.png,min3.png,min4.png,images/allBlank.png,images/min1.png,'num_7',"['num_7', 'num_4', 'num_1', 'num_0']",['num_7'],num_7,,,,,0,9,9,9,2,0,8,0,,,,,,,,,,,,,['num_7'],,0.043415420223,1,['num_7'],0,[0.9664102289825678],1,,,,,,,,2018_Mar_31_1720,60.0465098782,sequenceLearningTask,001,006,
min1.png,min2.png,min3.png,min4.png,images/allBlank.png,images/min2.png,'num_4',"['num_7', 'num_4', 'num_1', 'num_0']",['num_4'],num_4,,,,,0,9,9,9,2,1,9,1,,,,,,,,,,,,,['num_4'],,0.0499225025997,1,['num_4'],0,[0.49196266010403633],1,,,,,,,,2018_Mar_31_1720,60.0465098782,sequenceLearningTask,001,006,
min1.png,min2.png,min3.png,min4.png,images/allBlank.png,images/min4.png,'num_0',"['num_7', 'num_4', 'num_1', 'num_0']",['num_0'],num_0,,,,,0,9,9,9,2,2,10,3,,,,,,,,,,,,,['num_0'],,0.0476755262353,1,['num_0'],0,[1.2107923780567944],1,,,,,,,,2018_Mar_31_1720,60.0465098782,sequenceLearningTask,001,006,
min1.png,min2.png,min3.png,min4.png,images/allBlank.png,images/min3.png,'num_1',"['num_7', 'num_4', 'num_1', 'num_0']",['num_1'],num_1,,,,,0,9,9,9,2,3,11,2,,,,,,,,,,,,,['num_1'],,0.0407930589281,1,['num_1'],0,[0.7012887806631625],1,,,,,,,,2018_Mar_31_1720,60.0465098782,sequenceLearningTask,001,006,
min1.png,min2.png,min3.png,min4.png,images/allBlank.png,images/min2.png,'num_4',"['num_7', 'num_4', 'num_1', 'num_0']",['num_4'],num_4,,,,,0,9,9,9,3,0,12,1,,,,,,,,,,,,,['num_4'],,0.0489838351496,1,['num_4'],0,[0.509805956389755],1,,,,,,,,2018_Mar_31_1720,60.0465098782,sequenceLearningTask,001,006,
min1.png,min2.png,min3.png,min4.png,images/allBlank.png,images/min1.png,'num_7',"['num_7', 'num_4', 'num_1', 'num_0']",['num_7'],num_7,,,,,0,9,9,9,3,1,13,0,,,,,,,,,,,,,['num_7'],,0.0468603461049,1,['num_7'],0,[0.42956917313858867],1,,,,,,,,2018_Mar_31_1720,60.0465098782,sequenceLearningTask,001,006,
min1.png,min2.png,min3.png,min4.png,images/allBlank.png,images/min4.png,'num_0',"['num_7', 'num_4', 'num_1', 'num_0']",['num_0'],num_0,,,,,0,9,9,9,3,2,14,3,,,,,,,,,,,,,['num_0'],,0.041749777738,1,['num_0'],0,[0.5178876044228673],1,,,,,,,,2018_Mar_31_1720,60.0465098782,sequenceLearningTask,001,006,
min1.png,min2.png,min3.png,min4.png,images/allBlank.png,images/min3.png,'num_1',"['num_7', 'num_4', 'num_1', 'num_0']",['num_1'],num_1,,,,,0,9,9,9,3,3,15,2,,,,,,,,,,,,,['num_1'],,0.0459963455796,1,['num_1'],0,[0.43028507102280855],1,,,,,,,,2018_Mar_31_1720,60.0465098782,sequenceLearningTask,001,006,
min1.png,min2.png,min3.png,min4.png,images/allBlank.png,images/min4.png,'num_0',"['num_7', 'num_4', 'num_1', 'num_0']",['num_0'],num_0,,,,,0,9,9,9,4,0,16,3,,,,,,,,,,,,,['num_0'],,0.0469251666218,1,['num_0'],0,[0.7461286121979356],1,,,,,,,,2018_Mar_31_1720,60.0465098782,sequenceLearningTask,001,006,
min1.png,min2.png,min3.png,min4.png,images/allBlank.png,images/min2.png,'num_4',"['num_7', 'num_4', 'num_1', 'num_0']",['num_4'],num_4,,,,,0,9,9,9,4,1,17,1,,,,,,,,,,,,,['num_4'],,0.0455101914704,1,['num_4'],0,[0.980442650616169],1,,,,,,,,2018_Mar_31_1720,60.0465098782,sequenceLearningTask,001,006,
min1.png,min2.png,min3.png,min4.png,images/allBlank.png,images/min3.png,'num_1',"['num_7', 'num_4', 'num_1', 'num_0']",['num_1'],num_1,,,,,0,9,9,9,4,2,18,2,,,,,,,,,,,,,['num_1'],,0.0452890628949,1,['num_1'],0,[0.7305868561379611],1,,,,,,,,2018_Mar_31_1720,60.0465098782,sequenceLearningTask,001,006,
min1.png,min2.png,min3.png,min4.png,images/allBlank.png,images/min1.png,'num_7',"['num_7', 'num_4', 'num_1', 'num_0']",['num_7'],num_7,,,,,0,9,9,9,4,3,19,0,,,,,,,,,,,,,['num_7'],,0.0450437292457,1,['num_7'],0,[0.8314004773274064],1,,,,,,,,2018_Mar_31_1720,60.0465098782,sequenceLearningTask,001,006,
min1.png,min2.png,min3.png,min4.png,images/allBlank.png,images/min3.png,'num_1',"['num_7', 'num_4', 'num_1', 'num_0']",['num_1'],num_1,,,,,0,9,9,9,5,0,20,2,,,,,,,,,,,,,['num_1'],,0.0453555244021,1,['num_1'],0,[0.7480884087271988],1,,,,,,,,2018_Mar_31_1720,60.0465098782,sequenceLearningTask,001,006,
min1.png,min2.png,min3.png,min4.png,images/allBlank.png,images/min2.png,'num_4',"['num_7', 'num_4', 'num_1', 'num_0']",['num_4'],num_4,,,,,0,9,9,9,5,1,21,1,,,,,,,,,,,,,['num_4'],,0.0483910143375,1,['num_4'],0,[0.6944793392904103],1,,,,,,,,2018_Mar_31_1720,60.0465098782,sequenceLearningTask,001,006,
min1.png,min2.png,min3.png,min4.png,images/allBlank.png,images/min4.png,'num_0',"['num_7', 'num_4', 'num_1', 'num_0']",['num_0'],num_0,,,,,0,9,9,9,5,2,22,3,,,,,,,,,,,,,['num_0'],,0.0432131639682,1,['num_0'],0,[0.9323929701931775],1,,,,,,,,2018_Mar_31_1720,60.0465098782,sequenceLearningTask,001,006,
min1.png,min2.png,min3.png,min4.png,images/allBlank.png,images/min1.png,'num_7',"['num_7', 'num_4', 'num_1', 'num_0']",['num_7'],num_7,,,,,0,9,9,9,5,3,23,0,,,,,,,,,,,,,['num_7'],,0.0376648511738,1,['num_7'],0,[0.6920104138553143],1,,,,,,,,2018_Mar_31_1720,60.0465098782,sequenceLearningTask,001,006,
min1.png,min2.png,min3.png,min4.png,images/allBlank.png,images/min4.png,'num_0',"['num_7', 'num_4', 'num_1', 'num_0']",['num_0'],num_0,,,,,0,9,9,9,6,0,24,3,,,,,,,,,,,,,['num_0'],,0.0481567573734,1,['num_0'],0,[1.1117847068235278],1,,,,,,,,2018_Mar_31_1720,60.0465098782,sequenceLearningTask,001,006,
min1.png,min2.png,min3.png,min4.png,images/allBlank.png,images/min2.png,'num_4',"['num_7', 'num_4', 'num_1', 'num_0']",['num_4'],num_4,,,,,0,9,9,9,6,1,25,1,,,,,,,,,,,,,['num_4'],,0.0463869096711,1,['num_4'],0,[2.263446370139718],1,,,,,,,,2018_Mar_31_1720,60.0465098782,sequenceLearningTask,001,006,
min1.png,min2.png,min3.png,min4.png,images/allBlank.png,images/min3.png,'num_1',"['num_7', 'num_4', 'num_1', 'num_0']",['num_1'],num_1,,,,,0,9,9,9,6,2,26,2,,,,,,,,,,,,,['num_1'],,0.0414662905969,1,['num_1'],0,[0.6509929443709552],1,,,,,,,,2018_Mar_31_1720,60.0465098782,sequenceLearningTask,001,006,
min1.png,min2.png,min3.png,min4.png,images/allBlank.png,images/min1.png,'num_7',"['num_7', 'num_4', 'num_1', 'num_0']",['num_7'],num_7,,,,,0,9,9,9,6,3,27,0,,,,,,,,,,,,,['num_7'],,0.0489030145109,1,['num_7'],0,[1.361558040138334],1,,,,,,,,2018_Mar_31_1720,60.0465098782,sequenceLearningTask,001,006,
min1.png,min2.png,min3.png,min4.png,images/allBlank.png,images/min4.png,'num_0',"['num_7', 'num_4', 'num_1', 'num_0']",['num_0'],num_0,,,,,0,9,9,9,7,0,28,3,,,,,,,,,,,,,['num_0'],,0.047554500401,1,['num_0'],0,[0.39484257996082306],1,,,,,,,,2018_Mar_31_1720,60.0465098782,sequenceLearningTask,001,006,
min1.png,min2.png,min3.png,min4.png,images/allBlank.png,images/min2.png,'num_4',"['num_7', 'num_4', 'num_1', 'num_0']",['num_4'],num_4,,,,,0,9,9,9,7,1,29,1,,,,,,,,,,,,,['num_4'],,0.0401276228949,1,['num_4'],0,[0.5683627226389945],1,,,,,,,,2018_Mar_31_1720,60.0465098782,sequenceLearningTask,001,006,
min1.png,min2.png,min3.png,min4.png,images/allBlank.png,images/min3.png,'num_1',"['num_7', 'num_4', 'num_1', 'num_0']",['num_1'],num_1,,,,,0,9,9,9,7,2,30,2,,,,,,,,,,,,,['num_1'],,0.0324615649879,1,['num_1'],0,[0.36032850109040737],1,,,,,,,,2018_Mar_31_1720,60.0465098782,sequenceLearningTask,001,006,
min1.png,min2.png,min3.png,min4.png,images/allBlank.png,images/min1.png,'num_7',"['num_7', 'num_4', 'num_1', 'num_0']",['num_7'],num_7,,,,,0,9,9,9,7,3,31,0,,,,,,,,,,,,,['num_7'],,0.0451815752313,1,['num_7'],0,[0.41331356950104237],1,,,,,,,,2018_Mar_31_1720,60.0465098782,sequenceLearningTask,001,006,
min1.png,min2.png,min3.png,min4.png,images/allBlank.png,images/min1.png,'num_7',"['num_7', 'num_4', 'num_1', 'num_0']",['num_7'],num_7,,,,,0,9,9,9,8,0,32,0,,,,,,,,,,,,,['num_7'],,0.0510490671732,1,['num_7'],0,[0.724507671315223],1,,,,,,,,2018_Mar_31_1720,60.0465098782,sequenceLearningTask,001,006,
min1.png,min2.png,min3.png,min4.png,images/allBlank.png,images/min2.png,'num_4',"['num_7', 'num_4', 'num_1', 'num_0']",['num_4'],num_4,,,,,0,9,9,9,8,1,33,1,,,,,,,,,,,,,['num_4'],,0.0448591136374,1,['num_4'],0,[1.0454039350152016],1,,,,,,,,2018_Mar_31_1720,60.0465098782,sequenceLearningTask,001,006,
min1.png,min2.png,min3.png,min4.png,images/allBlank.png,images/min3.png,'num_1',"['num_7', 'num_4', 'num_1', 'num_0']",['num_1'],num_1,,,,,0,9,9,9,8,2,34,2,,,,,,,,,,,,,['num_1'],,0.0573563547805,1,['num_1'],0,[0.71650315169245],1,,,,,,,,2018_Mar_31_1720,60.0465098782,sequenceLearningTask,001,006,
min1.png,min2.png,min3.png,min4.png,images/allBlank.png,images/min4.png,'num_0',"['num_7', 'num_4', 'num_1', 'num_0']",['num_0'],num_0,,,,,0,9,9,9,8,3,35,3,,,,,,,,,,,,,['num_0'],,0.0438437280245,1,['num_0'],0,[0.5652021048590541],1,,,,,,,,2018_Mar_31_1720,60.0465098782,sequenceLearningTask,001,006,
min1.png,min2.png,min3.png,min4.png,images/allBlank.png,images/min3.png,'num_1',"['num_7', 'num_4', 'num_1', 'num_0']",['num_1'],num_1,,,,,0,9,9,9,9,0,36,2,,,,,,,,,,,,,['num_1'],,0.0437198304571,1,['num_1'],0,[1.0320390006527305],1,,,,,,,,2018_Mar_31_1720,60.0465098782,sequenceLearningTask,001,006,
min1.png,min2.png,min3.png,min4.png,images/allBlank.png,images/min2.png,'num_4',"['num_7', 'num_4', 'num_1', 'num_0']",['num_4'],num_4,,,,,0,9,9,9,9,1,37,1,,,,,,,,,,,,,['num_4'],,0.050946503412,1,['num_4'],0,[0.6904342076741159],1,,,,,,,,2018_Mar_31_1720,60.0465098782,sequenceLearningTask,001,006,
min1.png,min2.png,min3.png,min4.png,images/allBlank.png,images/min1.png,'num_7',"['num_7', 'num_4', 'num_1', 'num_0']",['num_7'],num_7,,,,,0,9,9,9,9,2,38,0,,,,,,,,,,,,,['num_7'],,0.0452525499277,1,['num_7'],0,[0.5307163326069713],1,,,,,,,,2018_Mar_31_1720,60.0465098782,sequenceLearningTask,001,006,
min1.png,min2.png,min3.png,min4.png,images/allBlank.png,images/min4.png,'num_0',"['num_7', 'num_4', 'num_1', 'num_0']",['num_0'],num_0,,,,,0,9,9,9,9,3,39,3,,,,,,,,,,,,,['num_0'],,0.0481423982419,1,['num_0'],0,[0.6442138617858291],1,,,,,,,,2018_Mar_31_1720,60.0465098782,sequenceLearningTask,001,006,
min1.png,min2.png,min3.png,min4.png,images/allBlank.png,images/min3.png,'num_1',"['num_7', 'num_4', 'num_1', 'num_0']",['num_1'],num_1,,,,,0,9,9,9,10,0,40,2,,,,,,,,,,,,,['num_1'],,0.0448656780645,1,['num_1'],0,[0.897791916038841],1,,,,,,,,2018_Mar_31_1720,60.0465098782,sequenceLearningTask,001,006,
min1.png,min2.png,min3.png,min4.png,images/allBlank.png,images/min1.png,'num_7',"['num_7', 'num_4', 'num_1', 'num_0']",['num_7'],num_7,,,,,0,9,9,9,10,1,41,0,,,,,,,,,,,,,['num_7'],,0.0585797401145,1,['num_7'],0,[1.4676430504769087],1,,,,,,,,2018_Mar_31_1720,60.0465098782,sequenceLearningTask,001,006,
min1.png,min2.png,min3.png,min4.png,images/allBlank.png,images/min4.png,'num_0',"['num_7', 'num_4', 'num_1', 'num_0']",['num_0'],num_0,,,,,0,9,9,9,10,2,42,3,,,,,,,,,,,,,['num_0'],,0.046192037873,1,['num_0'],0,[0.4295449680648744],1,,,,,,,,2018_Mar_31_1720,60.0465098782,sequenceLearningTask,001,006,
min1.png,min2.png,min3.png,min4.png,images/allBlank.png,images/min2.png,'num_4',"['num_7', 'num_4', 'num_1', 'num_0']",['num_4'],num_4,,,,,0,9,9,9,10,3,43,1,,,,,,,,,,,,,['num_4'],,0.0513711189851,1,['num_4'],0,[0.8413303317502141],1,,,,,,,,2018_Mar_31_1720,60.0465098782,sequenceLearningTask,001,006,
min1.png,min2.png,min3.png,min4.png,images/allBlank.png,images/min2.png,'num_4',"['num_7', 'num_4', 'num_1', 'num_0']",['num_4'],num_4,,,,,0,9,9,9,11,0,44,1,,,,,,,,,,,,,['num_4'],,0.0465817814693,1,['num_4'],0,[0.6296608243137598],1,,,,,,,,2018_Mar_31_1720,60.0465098782,sequenceLearningTask,001,006,
min1.png,min2.png,min3.png,min4.png,images/allBlank.png,images/min1.png,'num_7',"['num_7', 'num_4', 'num_1', 'num_0']",['num_7'],num_7,,,,,0,9,9,9,11,1,45,0,,,,,,,,,,,,,['num_7'],,0.051912247669,1,['num_7'],0,[0.8225980079732835],1,,,,,,,,2018_Mar_31_1720,60.0465098782,sequenceLearningTask,001,006,
min1.png,min2.png,min3.png,min4.png,images/allBlank.png,images/min3.png,'num_1',"['num_7', 'num_4', 'num_1', 'num_0']",['num_1'],num_1,,,,,0,9,9,9,11,2,46,2,,,,,,,,,,,,,['num_1'],,0.0484443474561,1,['num_1'],0,[0.52832494629547],1,,,,,,,,2018_Mar_31_1720,60.0465098782,sequenceLearningTask,001,006,
min1.png,min2.png,min3.png,min4.png,images/allBlank.png,images/min4.png,'num_0',"['num_7', 'num_4', 'num_1', 'num_0']",['num_0'],num_0,,,,,0,9,9,9,11,3,47,3,,,,,,,,,,,,,['num_0'],,0.0481054754928,1,['num_0'],0,[0.6781170694157481],1,,,,,,,,2018_Mar_31_1720,60.0465098782,sequenceLearningTask,001,006,
min1.png,min2.png,min3.png,min4.png,images/allBlank.png,images/min3.png,'num_1',"['num_7', 'num_4', 'num_1', 'num_0']",['num_1'],num_1,,,,,0,9,9,9,12,0,48,2,,,,,,,,,,,,,['num_1'],,0.0416291621514,1,['num_1'],0,[0.6672748038545251],1,,,,,,,,2018_Mar_31_1720,60.0465098782,sequenceLearningTask,001,006,
min1.png,min2.png,min3.png,min4.png,images/allBlank.png,images/min1.png,'num_7',"['num_7', 'num_4', 'num_1', 'num_0']",['num_7'],num_7,,,,,0,9,9,9,12,1,49,0,,,,,,,,,,,,,['num_7'],,0.0455938833766,1,['num_7'],0,[0.8139358470216393],1,,,,,,,,2018_Mar_31_1720,60.0465098782,sequenceLearningTask,001,006,
min1.png,min2.png,min3.png,min4.png,images/allBlank.png,images/min2.png,'num_4',"['num_7', 'num_4', 'num_1', 'num_0']",['num_4'],num_4,,,,,0,9,9,9,12,2,50,1,,,,,,,,,,,,,['num_4'],,0.0496082459576,1,['num_4'],0,[0.5600894852541387],1,,,,,,,,2018_Mar_31_1720,60.0465098782,sequenceLearningTask,001,006,
min1.png,min2.png,min3.png,min4.png,images/allBlank.png,images/min4.png,'num_0',"['num_7', 'num_4', 'num_1', 'num_0']",['num_0'],num_0,,,,,0,9,9,9,12,3,51,3,,,,,,,,,,,,,['num_0'],,0.0372767485678,1,['num_0'],0,[0.6389917037449777],1,,,,,,,,2018_Mar_31_1720,60.0465098782,sequenceLearningTask,001,006,
min1.png,min2.png,min3.png,min4.png,images/allBlank.png,images/min1.png,'num_7',"['num_7', 'num_4', 'num_1', 'num_0']",['num_7'],num_7,,,,,0,9,9,9,13,0,52,0,,,,,,,,,,,,,['num_7'],,0.0506728622131,1,['num_7'],0,[0.9422703115269542],1,,,,,,,,2018_Mar_31_1720,60.0465098782,sequenceLearningTask,001,006,
min1.png,min2.png,min3.png,min4.png,images/allBlank.png,images/min4.png,'num_0',"['num_7', 'num_4', 'num_1', 'num_0']",['num_0'],num_0,,,,,0,9,9,9,13,1,53,3,,,,,,,,,,,,,['num_0'],,0.0478018852882,1,['num_0'],0,[1.0960566941648722],1,,,,,,,,2018_Mar_31_1720,60.0465098782,sequenceLearningTask,001,006,
min1.png,min2.png,min3.png,min4.png,images/allBlank.png,images/min3.png,'num_1',"['num_7', 'num_4', 'num_1', 'num_0']",['num_1'],num_1,,,,,0,9,9,9,13,2,54,2,,,,,,,,,,,,,['num_1'],,0.0434092665091,1,['num_1'],0,[1.0326892575249076],1,,,,,,,,2018_Mar_31_1720,60.0465098782,sequenceLearningTask,001,006,
min1.png,min2.png,min3.png,min4.png,images/allBlank.png,images/min2.png,'num_4',"['num_7', 'num_4', 'num_1', 'num_0']",['num_4'],num_4,,,,,0,9,9,9,13,3,55,1,,,,,,,,,,,,,['num_4'],,0.0472213723697,1,['num_4'],0,[0.8120384099893272],1,,,,,,,,2018_Mar_31_1720,60.0465098782,sequenceLearningTask,001,006,
min1.png,min2.png,min3.png,min4.png,images/allBlank.png,images/min1.png,'num_7',"['num_7', 'num_4', 'num_1', 'num_0']",['num_7'],num_7,,,,,0,9,9,9,14,0,56,0,,,,,,,,,,,,,['num_7'],,0.0440952153876,1,['num_7'],0,[0.6988912401720881],1,,,,,,,,2018_Mar_31_1720,60.0465098782,sequenceLearningTask,001,006,
min1.png,min2.png,min3.png,min4.png,images/allBlank.png,images/min3.png,'num_1',"['num_7', 'num_4', 'num_1', 'num_0']",['num_1'],num_1,,,,,0,9,9,9,14,1,57,2,,,,,,,,,,,,,['num_1'],,0.0412082388066,1,['num_1'],0,[1.0854573007673025],1,,,,,,,,2018_Mar_31_1720,60.0465098782,sequenceLearningTask,001,006,
min1.png,min2.png,min3.png,min4.png,images/allBlank.png,images/min4.png,'num_0',"['num_7', 'num_4', 'num_1', 'num_0']",['num_0'],num_0,,,,,0,9,9,9,14,2,58,3,,,,,,,,,,,,,['num_0'],,0.0612595374696,1,['num_0'],0,[0.6153633766807616],1,,,,,,,,2018_Mar_31_1720,60.0465098782,sequenceLearningTask,001,006,
min1.png,min2.png,min3.png,min4.png,images/allBlank.png,images/min2.png,'num_4',"['num_7', 'num_4', 'num_1', 'num_0']",['num_4'],num_4,,,,,0,9,9,9,14,3,59,1,,,,,,,,,,,,,['num_4'],,0.0451561398804,1,['num_4'],0,[1.0303315119817853],1,,,,,,,,2018_Mar_31_1720,60.0465098782,sequenceLearningTask,001,006,
min1.png,min2.png,min3.png,min4.png,images/allBlank.png,images/min1.png,'num_7',"['num_7', 'num_4', 'num_1', 'num_0']",['num_7'],num_7,,,,,0,9,9,9,15,0,60,0,,,,,,,,,,,,,['num_7'],,0.0440037287772,1,['num_7'],0,[0.8680372247472405],1,,,,,,,,2018_Mar_31_1720,60.0465098782,sequenceLearningTask,001,006,
min1.png,min2.png,min3.png,min4.png,images/allBlank.png,images/min4.png,'num_0',"['num_7', 'num_4', 'num_1', 'num_0']",['num_0'],num_0,,,,,0,9,9,9,15,1,61,3,,,,,,,,,,,,,['num_0'],,0.0477247573435,1,['num_0'],0,[0.6781876333989203],1,,,,,,,,2018_Mar_31_1720,60.0465098782,sequenceLearningTask,001,006,
min1.png,min2.png,min3.png,min4.png,images/allBlank.png,images/min3.png,'num_1',"['num_7', 'num_4', 'num_1', 'num_0']",['num_1'],num_1,,,,,0,9,9,9,15,2,62,2,,,,,,,,,,,,,['num_1'],,0.0490716299973,1,['num_1'],0,[0.5768591403029859],1,,,,,,,,2018_Mar_31_1720,60.0465098782,sequenceLearningTask,001,006,
min1.png,min2.png,min3.png,min4.png,images/allBlank.png,images/min2.png,'num_4',"['num_7', 'num_4', 'num_1', 'num_0']",['num_4'],num_4,,,,,0,9,9,9,15,3,63,1,,,,,,,,,,,,,['num_4'],,0.0454260888509,1,['num_4'],0,[0.5641502062790096],1,,,,,,,,2018_Mar_31_1720,60.0465098782,sequenceLearningTask,001,006,
min1.png,min2.png,min3.png,min4.png,images/allBlank.png,images/min3.png,'num_1',"['num_7', 'num_4', 'num_1', 'num_0']",['num_1'],num_1,,,,,0,9,9,9,16,0,64,2,,,,,,,,,,,,,['num_1'],,0.0418580858968,1,['num_1'],0,[0.720278334338218],1,,,,,,,,2018_Mar_31_1720,60.0465098782,sequenceLearningTask,001,006,
min1.png,min2.png,min3.png,min4.png,images/allBlank.png,images/min4.png,'num_0',"['num_7', 'num_4', 'num_1', 'num_0']",['num_0'],num_0,,,,,0,9,9,9,16,1,65,3,,,,,,,,,,,,,['num_0'],,0.0438113179989,1,['num_0'],0,[0.6648637247271836],1,,,,,,,,2018_Mar_31_1720,60.0465098782,sequenceLearningTask,001,006,
min1.png,min2.png,min3.png,min4.png,images/allBlank.png,images/min1.png,'num_7',"['num_7', 'num_4', 'num_1', 'num_0']",['num_7'],num_7,,,,,0,9,9,9,16,2,66,0,,,,,,,,,,,,,['num_7'],,0.0460160374641,1,['num_7'],0,[0.8306168867275119],1,,,,,,,,2018_Mar_31_1720,60.0465098782,sequenceLearningTask,001,006,
min1.png,min2.png,min3.png,min4.png,images/allBlank.png,images/min2.png,'num_4',"['num_7', 'num_4', 'num_1', 'num_0']",['num_4'],num_4,,,,,0,9,9,9,16,3,67,1,,,,,,,,,,,,,['num_4'],,0.0428599324077,1,['num_4'],0,[0.8834394942969084],1,,,,,,,,2018_Mar_31_1720,60.0465098782,sequenceLearningTask,001,006,
min1.png,min2.png,min3.png,min4.png,images/allBlank.png,images/min4.png,'num_0',"['num_7', 'num_4', 'num_1', 'num_0']",['num_0'],num_0,,,,,0,9,9,9,17,0,68,3,,,,,,,,,,,,,['num_0'],,0.0446868059225,1,['num_0'],0,[0.6479853522032499],1,,,,,,,,2018_Mar_31_1720,60.0465098782,sequenceLearningTask,001,006,
min1.png,min2.png,min3.png,min4.png,images/allBlank.png,images/min2.png,'num_4',"['num_7', 'num_4', 'num_1', 'num_0']",['num_4'],num_4,,,,,0,9,9,9,17,1,69,1,,,,,,,,,,,,,['num_4'],,0.0480012702756,1,['num_4'],0,[1.0451380885206163],1,,,,,,,,2018_Mar_31_1720,60.0465098782,sequenceLearningTask,001,006,
min1.png,min2.png,min3.png,min4.png,images/allBlank.png,images/min1.png,'num_7',"['num_7', 'num_4', 'num_1', 'num_0']",['num_7'],num_7,,,,,0,9,9,9,17,2,70,0,,,,,,,,,,,,,['num_7'],,0.0457912166603,1,['num_7'],0,[1.1473117107525468],1,,,,,,,,2018_Mar_31_1720,60.0465098782,sequenceLearningTask,001,006,
min1.png,min2.png,min3.png,min4.png,images/allBlank.png,images/min3.png,'num_1',"['num_7', 'num_4', 'num_1', 'num_0']",['num_1'],num_1,,,,,0,9,9,9,17,3,71,2,,,,,,,,,,,,,['num_1'],,0.0417588031851,1,['num_1'],0,[0.9168052650056779],1,,,,,,,,2018_Mar_31_1720,60.0465098782,sequenceLearningTask,001,006,
min1.png,min2.png,min3.png,min4.png,images/allBlank.png,images/min3.png,'num_1',"['num_7', 'num_4', 'num_1', 'num_0']",['num_1'],num_1,,,,,0,9,9,9,18,0,72,2,,,,,,,,,,,,,['num_1'],,0.0452369600534,1,['num_1'],0,[0.9633620209060609],1,,,,,,,,2018_Mar_31_1720,60.0465098782,sequenceLearningTask,001,006,
min1.png,min2.png,min3.png,min4.png,images/allBlank.png,images/min1.png,'num_7',"['num_7', 'num_4', 'num_1', 'num_0']",['num_7'],num_7,,,,,0,9,9,9,18,1,73,0,,,,,,,,,,,,,['num_7'],,0.0539606595412,1,['num_7'],0,[1.071132366079837],1,,,,,,,,2018_Mar_31_1720,60.0465098782,sequenceLearningTask,001,006,
min1.png,min2.png,min3.png,min4.png,images/allBlank.png,images/min2.png,'num_4',"['num_7', 'num_4', 'num_1', 'num_0']",['num_4'],num_4,,,,,0,9,9,9,18,2,74,1,,,,,,,,,,,,,['num_4'],,0.0510740932077,1,['num_4'],0,[0.9911950696259737],1,,,,,,,,2018_Mar_31_1720,60.0465098782,sequenceLearningTask,001,006,
min1.png,min2.png,min3.png,min4.png,images/allBlank.png,images/min4.png,'num_0',"['num_7', 'num_4', 'num_1', 'num_0']",['num_0'],num_0,,,,,0,9,9,9,18,3,75,3,,,,,,,,,,,,,['num_0'],,0.0472057820298,1,['num_0'],0,[0.9961333298124373],1,,,,,,,,2018_Mar_31_1720,60.0465098782,sequenceLearningTask,001,006,
min1.png,min2.png,min3.png,min4.png,images/allBlank.png,images/min1.png,'num_7',"['num_7', 'num_4', 'num_1', 'num_0']",['num_7'],num_7,,,,,0,9,9,9,19,0,76,0,,,,,,,,,,,,,['num_7'],,0.04835286038,1,['num_7'],0,[1.043950805440545],1,,,,,,,,2018_Mar_31_1720,60.0465098782,sequenceLearningTask,001,006,
min1.png,min2.png,min3.png,min4.png,images/allBlank.png,images/min4.png,'num_0',"['num_7', 'num_4', 'num_1', 'num_0']",['num_0'],num_0,,,,,0,9,9,9,19,1,77,3,,,,,,,,,,,,,['num_0'],,0.0427516247146,1,['num_0'],0,[0.5165456547401845],1,,,,,,,,2018_Mar_31_1720,60.0465098782,sequenceLearningTask,001,006,
min1.png,min2.png,min3.png,min4.png,images/allBlank.png,images/min2.png,'num_4',"['num_7', 'num_4', 'num_1', 'num_0']",['num_4'],num_4,,,,,0,9,9,9,19,2,78,1,,,,,,,,,,,,,['num_4'],,0.0520201451145,1,['num_4'],0,[0.9567757593467832],1,,,,,,,,2018_Mar_31_1720,60.0465098782,sequenceLearningTask,001,006,
min1.png,min2.png,min3.png,min4.png,images/allBlank.png,images/min3.png,'num_1',"['num_7', 'num_4', 'num_1', 'num_0']",['num_1'],num_1,,,,,0,9,9,9,19,3,79,2,,,,,,,,,,,,,['num_1'],,0.0446400367655,1,['num_1'],0,[0.48176736989989877],1,,,,,,,,2018_Mar_31_1720,60.0465098782,sequenceLearningTask,001,006,
min1.png,min2.png,min3.png,min4.png,allBlank.png,,,,['num_7'],,,,,,0,0,0,0,,,,,,,,,,,,,,,,,['num_7'],1,0.0369510045275,0,"['num_1', 'num_7']",0,"[1.113902862649411, 2.2630443181842566]",,,,,,,,,2018_Mar_31_1720,60.0465098782,sequenceLearningTask,001,006,
min1.png,min2.png,min3.png,min4.png,allBlank.png,,,,['num_1'],,,,,,0,0,0,0,,,,,,,,,,,,,,,,,['num_1'],1,0.0462946020998,1,['num_1'],0,[3.2494968199171126],,,,,,,,,2018_Mar_31_1720,60.0465098782,sequenceLearningTask,001,006,
min1.png,min2.png,min3.png,min4.png,allBlank.png,,,,['num_4'],,,,,,0,0,0,0,,,,,,,,,,,,,,,,,['num_4'],1,0.0465768584982,1,['num_4'],0,[0.9822494215331972],,,,,,,,,2018_Mar_31_1720,60.0465098782,sequenceLearningTask,001,006,
min1.png,min2.png,min3.png,min4.png,allBlank.png,,,,['num_0'],,,,,,0,0,0,0,,,,,,,,,,,,,,,,,['num_0'],1,0.0418773679994,1,['num_0'],0,[0.5840554535388947],,,,,,,,,2018_Mar_31_1720,60.0465098782,sequenceLearningTask,001,006,
min1.png,min2.png,min3.png,min4.png,allBlank.png,,,,['num_0'],,,,,,0,0,0,0,,,,,,,,,,,,,,,,,['num_0'],1,0.0203967345878,1,['num_0'],0,[0.8758284109644592],,,,,,,,,2018_Mar_31_1720,60.0465098782,sequenceLearningTask,001,006,
min1.png,min2.png,min3.png,min4.png,allBlank.png,,,,['num_4'],,,,,,0,0,0,0,,,,,,,,,,,,,,,,,['num_4'],1,0.0398744945414,1,['num_4'],0,[1.0877567897550762],,,,,,,,,2018_Mar_31_1720,60.0465098782,sequenceLearningTask,001,006,
min1.png,min2.png,min3.png,min4.png,allBlank.png,,,,['num_1'],,,,,,0,0,0,0,,,,,,,,,,,,,,,,,['num_1'],1,0.0541612752713,1,['num_1'],0,[0.7066885796375573],,,,,,,,,2018_Mar_31_1720,60.0465098782,sequenceLearningTask,001,006,
min1.png,min2.png,min3.png,min4.png,allBlank.png,,,,['num_0'],,,,,,0,0,0,0,,,,,,,,,,,,,,,,,['num_0'],1,0.0488049630076,1,['num_0'],0,[0.5135097545571625],,,,,,,,,2018_Mar_31_1720,60.0465098782,sequenceLearningTask,001,006,
min1.png,min2.png,min3.png,min4.png,allBlank.png,,,,['num_7'],,,,,,0,1,1,1,,,,,,,,,,,,,,,,,['num_7'],2,0.0445760362782,1,['num_7'],0,[0.5488554248586297],,,,,,,,,2018_Mar_31_1720,60.0465098782,sequenceLearningTask,001,006,
min1.png,min2.png,min3.png,min4.png,allBlank.png,,,,['num_1'],,,,,,0,1,1,1,,,,,,,,,,,,,,,,,['num_1'],2,0.0439212671481,1,['num_1'],0,[0.9002936617471278],,,,,,,,,2018_Mar_31_1720,60.0465098782,sequenceLearningTask,001,006,
min1.png,min2.png,min3.png,min4.png,allBlank.png,,,,['num_4'],,,,,,0,1,1,1,,,,,,,,,,,,,,,,,['num_4'],2,0.0457255761139,1,['num_4'],0,[0.6314930310472846],,,,,,,,,2018_Mar_31_1720,60.0465098782,sequenceLearningTask,001,006,
min1.png,min2.png,min3.png,min4.png,allBlank.png,,,,['num_0'],,,,,,0,1,1,1,,,,,,,,,,,,,,,,,['num_0'],2,0.0478543983772,1,['num_0'],0,[0.5472763464786112],,,,,,,,,2018_Mar_31_1720,60.0465098782,sequenceLearningTask,001,006,
min1.png,min2.png,min3.png,min4.png,allBlank.png,,,,['num_0'],,,,,,0,1,1,1,,,,,,,,,,,,,,,,,['num_0'],2,0.0376693638973,1,['num_0'],0,[0.6910225157625973],,,,,,,,,2018_Mar_31_1720,60.0465098782,sequenceLearningTask,001,006,
min1.png,min2.png,min3.png,min4.png,allBlank.png,,,,['num_4'],,,,,,0,1,1,1,,,,,,,,,,,,,,,,,['num_4'],2,0.0473444489762,1,['num_4'],0,[0.9809099328704178],,,,,,,,,2018_Mar_31_1720,60.0465098782,sequenceLearningTask,001,006,
min1.png,min2.png,min3.png,min4.png,allBlank.png,,,,['num_1'],,,,,,0,1,1,1,,,,,,,,,,,,,,,,,['num_1'],2,0.0513411704451,1,['num_1'],0,[0.5434761382639408],,,,,,,,,2018_Mar_31_1720,60.0465098782,sequenceLearningTask,001,006,
min1.png,min2.png,min3.png,min4.png,allBlank.png,,,,['num_0'],,,,,,0,1,1,1,,,,,,,,,,,,,,,,,['num_0'],2,0.0469292690977,1,['num_0'],0,[0.7806636146269739],,,,,,,,,2018_Mar_31_1720,60.0465098782,sequenceLearningTask,001,006,
min1.png,min2.png,min3.png,min4.png,allBlank.png,,,,['num_7'],,,,,,0,2,2,2,,,,,,,,,,,,,,,,,['num_7'],3,0.0238063782454,1,['num_7'],0,[0.939816155936569],,,,,,,,,2018_Mar_31_1720,60.0465098782,sequenceLearningTask,001,006,
min1.png,min2.png,min3.png,min4.png,allBlank.png,,,,['num_1'],,,,,,0,2,2,2,,,,,,,,,,,,,,,,,['num_1'],3,0.0430158302188,1,['num_1'],0,[0.8687732256948948],,,,,,,,,2018_Mar_31_1720,60.0465098782,sequenceLearningTask,001,006,
min1.png,min2.png,min3.png,min4.png,allBlank.png,,,,['num_4'],,,,,,0,2,2,2,,,,,,,,,,,,,,,,,['num_4'],3,0.04656291008,1,['num_4'],0,[0.6482122237794101],,,,,,,,,2018_Mar_31_1720,60.0465098782,sequenceLearningTask,001,006,
min1.png,min2.png,min3.png,min4.png,allBlank.png,,,,['num_0'],,,,,,0,2,2,2,,,,,,,,,,,,,,,,,['num_0'],3,0.0477058850229,1,['num_0'],0,[0.698026008438319],,,,,,,,,2018_Mar_31_1720,60.0465098782,sequenceLearningTask,001,006,
min1.png,min2.png,min3.png,min4.png,allBlank.png,,,,['num_0'],,,,,,0,2,2,2,,,,,,,,,,,,,,,,,['num_0'],3,0.0516410679556,1,['num_0'],0,[1.059318202547729],,,,,,,,,2018_Mar_31_1720,60.0465098782,sequenceLearningTask,001,006,
min1.png,min2.png,min3.png,min4.png,allBlank.png,,,,['num_4'],,,,,,0,2,2,2,,,,,,,,,,,,,,,,,['num_4'],3,0.048733167816,1,['num_4'],0,[1.0622970769181848],,,,,,,,,2018_Mar_31_1720,60.0465098782,sequenceLearningTask,001,006,
min1.png,min2.png,min3.png,min4.png,allBlank.png,,,,['num_1'],,,,,,0,2,2,2,,,,,,,,,,,,,,,,,['num_1'],3,0.054420968052,1,['num_1'],0,[0.49009927408769727],,,,,,,,,2018_Mar_31_1720,60.0465098782,sequenceLearningTask,001,006,
min1.png,min2.png,min3.png,min4.png,allBlank.png,,,,['num_0'],,,,,,0,2,2,2,,,,,,,,,,,,,,,,,['num_0'],3,0.0529924537987,1,['num_0'],0,[0.6253806157037616],,,,,,,,,2018_Mar_31_1720,60.0465098782,sequenceLearningTask,001,006,
min1.png,min2.png,min3.png,min4.png,allBlank.png,,,,['num_7'],,,,,,0,3,3,3,,,,,,,,,,,,,,,,,['num_7'],4,0.0442158314399,1,['num_7'],0,[1.1156284026801586],,,,,,,,,2018_Mar_31_1720,60.0465098782,sequenceLearningTask,001,006,
min1.png,min2.png,min3.png,min4.png,allBlank.png,,,,['num_1'],,,,,,0,3,3,3,,,,,,,,,,,,,,,,,['num_1'],4,0.046801679302,1,['num_1'],0,[0.9649275611154735],,,,,,,,,2018_Mar_31_1720,60.0465098782,sequenceLearningTask,001,006,
min1.png,min2.png,min3.png,min4.png,allBlank.png,,,,['num_4'],,,,,,0,3,3,3,,,,,,,,,,,,,,,,,['num_4'],4,0.0512861958705,1,['num_4'],0,[0.5093530332669616],,,,,,,,,2018_Mar_31_1720,60.0465098782,sequenceLearningTask,001,006,
min1.png,min2.png,min3.png,min4.png,allBlank.png,,,,['num_0'],,,,,,0,3,3,3,,,,,,,,,,,,,,,,,['num_0'],4,0.0486388094723,1,['num_0'],0,[0.5120779587887228],,,,,,,,,2018_Mar_31_1720,60.0465098782,sequenceLearningTask,001,006,
min1.png,min2.png,min3.png,min4.png,allBlank.png,,,,['num_0'],,,,,,0,3,3,3,,,,,,,,,,,,,,,,,['num_0'],4,0.0511097856797,1,['num_0'],0,[0.7259181342087686],,,,,,,,,2018_Mar_31_1720,60.0465098782,sequenceLearningTask,001,006,
min1.png,min2.png,min3.png,min4.png,allBlank.png,,,,['num_4'],,,,,,0,3,3,3,,,,,,,,,,,,,,,,,['num_4'],4,0.0442572669126,1,['num_4'],0,[0.9839921919628978],,,,,,,,,2018_Mar_31_1720,60.0465098782,sequenceLearningTask,001,006,
min1.png,min2.png,min3.png,min4.png,allBlank.png,,,,['num_1'],,,,,,0,3,3,3,,,,,,,,,,,,,,,,,['num_1'],4,0.0532254795544,1,['num_1'],0,[1.0418404447846115],,,,,,,,,2018_Mar_31_1720,60.0465098782,sequenceLearningTask,001,006,
min1.png,min2.png,min3.png,min4.png,allBlank.png,,,,['num_0'],,,,,,0,3,3,3,,,,,,,,,,,,,,,,,['num_0'],4,0.044977677986,1,['num_0'],0,[0.6833105096593499],,,,,,,,,2018_Mar_31_1720,60.0465098782,sequenceLearningTask,001,006,
min1.png,min2.png,min3.png,min4.png,allBlank.png,,,,['num_7'],,,,,,0,4,4,4,,,,,,,,,,,,,,,,,['num_7'],5,0.0460312175564,1,['num_7'],0,[0.5796915525570512],,,,,,,,,2018_Mar_31_1720,60.0465098782,sequenceLearningTask,001,006,
min1.png,min2.png,min3.png,min4.png,allBlank.png,,,,['num_1'],,,,,,0,4,4,4,,,,,,,,,,,,,,,,,['num_1'],5,0.0390383908525,1,['num_1'],0,[0.5720960590988398],,,,,,,,,2018_Mar_31_1720,60.0465098782,sequenceLearningTask,001,006,
min1.png,min2.png,min3.png,min4.png,allBlank.png,,,,['num_4'],,,,,,0,4,4,4,,,,,,,,,,,,,,,,,['num_4'],5,0.0409333673306,1,['num_4'],0,[0.5205329400487244],,,,,,,,,2018_Mar_31_1720,60.0465098782,sequenceLearningTask,001,006,
min1.png,min2.png,min3.png,min4.png,allBlank.png,,,,['num_0'],,,,,,0,4,4,4,,,,,,,,,,,,,,,,,['num_0'],5,0.0470228078775,1,['num_0'],0,[0.38014841452240944],,,,,,,,,2018_Mar_31_1720,60.0465098782,sequenceLearningTask,001,006,
min1.png,min2.png,min3.png,min4.png,allBlank.png,,,,['num_0'],,,,,,0,4,4,4,,,,,,,,,,,,,,,,,['num_0'],5,0.0453276271001,1,['num_0'],0,[0.6996678560972214],,,,,,,,,2018_Mar_31_1720,60.0465098782,sequenceLearningTask,001,006,
min1.png,min2.png,min3.png,min4.png,allBlank.png,,,,['num_4'],,,,,,0,4,4,4,,,,,,,,,,,,,,,,,['num_4'],5,0.0485333730467,1,['num_4'],0,[0.4460434429347515],,,,,,,,,2018_Mar_31_1720,60.0465098782,sequenceLearningTask,001,006,
min1.png,min2.png,min3.png,min4.png,allBlank.png,,,,['num_1'],,,,,,0,4,4,4,,,,,,,,,,,,,,,,,['num_1'],5,0.0458297813311,1,['num_1'],0,[0.41470516100525856],,,,,,,,,2018_Mar_31_1720,60.0465098782,sequenceLearningTask,001,006,
min1.png,min2.png,min3.png,min4.png,allBlank.png,,,,['num_0'],,,,,,0,4,4,4,,,,,,,,,,,,,,,,,['num_0'],5,0.0506113232113,0,"['num_7', 'num_0']",0,"[0.3435916663147509, 0.927906402386725]",,,,,,,,,2018_Mar_31_1720,60.0465098782,sequenceLearningTask,001,006,
min1.png,min2.png,min3.png,min4.png,allBlank.png,,,,['num_7'],,,,,,0,5,5,5,,,,,,,,,,,,,,,,,['num_7'],6,0.0420833164826,1,['num_7'],0,[0.8508515697903931],,,,,,,,,2018_Mar_31_1720,60.0465098782,sequenceLearningTask,001,006,
min1.png,min2.png,min3.png,min4.png,allBlank.png,,,,['num_1'],,,,,,0,5,5,5,,,,,,,,,,,,,,,,,['num_1'],6,0.0412710080855,1,['num_1'],0,[0.6696005496196449],,,,,,,,,2018_Mar_31_1720,60.0465098782,sequenceLearningTask,001,006,
min1.png,min2.png,min3.png,min4.png,allBlank.png,,,,['num_4'],,,,,,0,5,5,5,,,,,,,,,,,,,,,,,['num_4'],6,0.0460070120171,1,['num_4'],0,[0.448504573199898],,,,,,,,,2018_Mar_31_1720,60.0465098782,sequenceLearningTask,001,006,
min1.png,min2.png,min3.png,min4.png,allBlank.png,,,,['num_0'],,,,,,0,5,5,5,,,,,,,,,,,,,,,,,['num_0'],6,0.0433698818088,1,['num_0'],0,[0.38498370070010424],,,,,,,,,2018_Mar_31_1720,60.0465098782,sequenceLearningTask,001,006,
min1.png,min2.png,min3.png,min4.png,allBlank.png,,,,['num_0'],,,,,,0,5,5,5,,,,,,,,,,,,,,,,,['num_0'],6,0.0509222983383,1,['num_0'],0,[0.6263746675103903],,,,,,,,,2018_Mar_31_1720,60.0465098782,sequenceLearningTask,001,006,
min1.png,min2.png,min3.png,min4.png,allBlank.png,,,,['num_4'],,,,,,0,5,5,5,,,,,,,,,,,,,,,,,['num_4'],6,0.044589985162,1,['num_4'],0,[2.200154420454055],,,,,,,,,2018_Mar_31_1720,60.0465098782,sequenceLearningTask,001,006,
min1.png,min2.png,min3.png,min4.png,allBlank.png,,,,['num_1'],,,,,,0,5,5,5,,,,,,,,,,,,,,,,,['num_1'],6,0.0560012771748,1,['num_1'],0,[0.654628639575094],,,,,,,,,2018_Mar_31_1720,60.0465098782,sequenceLearningTask,001,006,
min1.png,min2.png,min3.png,min4.png,allBlank.png,,,,['num_0'],,,,,,0,5,5,5,,,,,,,,,,,,,,,,,['num_0'],6,0.0428189071827,1,['num_0'],0,[0.7359480909071863],,,,,,,,,2018_Mar_31_1720,60.0465098782,sequenceLearningTask,001,006,
min1.png,min2.png,min3.png,min4.png,allBlank.png,,,,['num_7'],,,,,,0,6,6,6,,,,,,,,,,,,,,,,,['num_7'],7,0.0447348058224,1,['num_7'],0,[0.43202825216576457],,,,,,,,,2018_Mar_31_1720,60.0465098782,sequenceLearningTask,001,006,
min1.png,min2.png,min3.png,min4.png,allBlank.png,,,,['num_1'],,,,,,0,6,6,6,,,,,,,,,,,,,,,,,['num_1'],7,0.0493067074567,1,['num_1'],0,[1.0118461633101106],,,,,,,,,2018_Mar_31_1720,60.0465098782,sequenceLearningTask,001,006,
min1.png,min2.png,min3.png,min4.png,allBlank.png,,,,['num_4'],,,,,,0,6,6,6,,,,,,,,,,,,,,,,,['num_4'],7,0.0466925511137,1,['num_4'],0,[0.8143050787039101],,,,,,,,,2018_Mar_31_1720,60.0465098782,sequenceLearningTask,001,006,
min1.png,min2.png,min3.png,min4.png,allBlank.png,,,,['num_0'],,,,,,0,6,6,6,,,,,,,,,,,,,,,,,['num_0'],7,0.0466223969124,1,['num_0'],0,[0.6481564291752875],,,,,,,,,2018_Mar_31_1720,60.0465098782,sequenceLearningTask,001,006,
min1.png,min2.png,min3.png,min4.png,allBlank.png,,,,['num_0'],,,,,,0,6,6,6,,,,,,,,,,,,,,,,,['num_0'],7,0.0475778849795,1,['num_0'],0,[0.6961375968530774],,,,,,,,,2018_Mar_31_1720,60.0465098782,sequenceLearningTask,001,006,
min1.png,min2.png,min3.png,min4.png,allBlank.png,,,,['num_4'],,,,,,0,6,6,6,,,,,,,,,,,,,,,,,['num_4'],7,0.0559705076739,1,['num_4'],0,[1.0051495428197086],,,,,,,,,2018_Mar_31_1720,60.0465098782,sequenceLearningTask,001,006,
min1.png,min2.png,min3.png,min4.png,allBlank.png,,,,['num_1'],,,,,,0,6,6,6,,,,,,,,,,,,,,,,,['num_1'],7,0.045717780944,1,['num_1'],0,[0.5651467200368643],,,,,,,,,2018_Mar_31_1720,60.0465098782,sequenceLearningTask,001,006,
min1.png,min2.png,min3.png,min4.png,allBlank.png,,,,['num_0'],,,,,,0,6,6,6,,,,,,,,,,,,,,,,,['num_0'],7,0.045856858138,1,['num_0'],0,[1.0490839374251664],,,,,,,,,2018_Mar_31_1720,60.0465098782,sequenceLearningTask,001,006,
min1.png,min2.png,min3.png,min4.png,allBlank.png,,,,['num_7'],,,,,,0,7,7,7,,,,,,,,,,,,,,,,,['num_7'],8,0.045201677829,1,['num_7'],0,[1.214450637344271],,,,,,,,,2018_Mar_31_1720,60.0465098782,sequenceLearningTask,001,006,
min1.png,min2.png,min3.png,min4.png,allBlank.png,,,,['num_1'],,,,,,0,7,7,7,,,,,,,,,,,,,,,,,['num_1'],8,0.0426630093716,1,['num_1'],0,[0.9017919194884598],,,,,,,,,2018_Mar_31_1720,60.0465098782,sequenceLearningTask,001,006,
min1.png,min2.png,min3.png,min4.png,allBlank.png,,,,['num_4'],,,,,,0,7,7,7,,,,,,,,,,,,,,,,,['num_4'],8,0.0481239371002,1,['num_4'],0,[0.6973154442384839],,,,,,,,,2018_Mar_31_1720,60.0465098782,sequenceLearningTask,001,006,
min1.png,min2.png,min3.png,min4.png,allBlank.png,,,,['num_0'],,,,,,0,7,7,7,,,,,,,,,,,,,,,,,['num_0'],8,0.0496915280819,1,['num_0'],0,[0.5787688852287829],,,,,,,,,2018_Mar_31_1720,60.0465098782,sequenceLearningTask,001,006,
min1.png,min2.png,min3.png,min4.png,allBlank.png,,,,['num_0'],,,,,,0,7,7,7,,,,,,,,,,,,,,,,,['num_0'],8,0.0482531678863,1,['num_0'],0,[0.9794408036395907],,,,,,,,,2018_Mar_31_1720,60.0465098782,sequenceLearningTask,001,006,
min1.png,min2.png,min3.png,min4.png,allBlank.png,,,,['num_4'],,,,,,0,7,7,7,,,,,,,,,,,,,,,,,['num_4'],8,0.0516537856311,1,['num_4'],0,[1.0260061752051115],,,,,,,,,2018_Mar_31_1720,60.0465098782,sequenceLearningTask,001,006,
min1.png,min2.png,min3.png,min4.png,allBlank.png,,,,['num_1'],,,,,,0,7,7,7,,,,,,,,,,,,,,,,,['num_1'],8,0.0442650620826,1,['num_1'],0,[0.5506371697410941],,,,,,,,,2018_Mar_31_1720,60.0465098782,sequenceLearningTask,001,006,
min1.png,min2.png,min3.png,min4.png,allBlank.png,,,,['num_0'],,,,,,0,7,7,7,,,,,,,,,,,,,,,,,['num_0'],8,0.0411069053225,1,['num_0'],0,[0.5708082634955645],,,,,,,,,2018_Mar_31_1720,60.0465098782,sequenceLearningTask,001,006,
min1.png,min2.png,min3.png,min4.png,allBlank.png,,,,['num_7'],,,,,,0,8,8,8,,,,,,,,,,,,,,,,,['num_7'],9,0.0524619920179,1,['num_7'],0,[0.9404360540211201],,,,,,,,,2018_Mar_31_1720,60.0465098782,sequenceLearningTask,001,006,
min1.png,min2.png,min3.png,min4.png,allBlank.png,,,,['num_1'],,,,,,0,8,8,8,,,,,,,,,,,,,,,,,['num_1'],9,0.0492701944895,1,['num_1'],0,[0.9291806598193944],,,,,,,,,2018_Mar_31_1720,60.0465098782,sequenceLearningTask,001,006,
min1.png,min2.png,min3.png,min4.png,allBlank.png,,,,['num_4'],,,,,,0,8,8,8,,,,,,,,,,,,,,,,,['num_4'],9,0.0496377842501,1,['num_4'],0,[0.5775504228658974],,,,,,,,,2018_Mar_31_1720,60.0465098782,sequenceLearningTask,001,006,
min1.png,min2.png,min3.png,min4.png,allBlank.png,,,,['num_0'],,,,,,0,8,8,8,,,,,,,,,,,,,,,,,['num_0'],9,0.0533223003149,1,['num_0'],0,[0.8078870219178498],,,,,,,,,2018_Mar_31_1720,60.0465098782,sequenceLearningTask,001,006,
min1.png,min2.png,min3.png,min4.png,allBlank.png,,,,['num_0'],,,,,,0,8,8,8,,,,,,,,,,,,,,,,,['num_0'],9,0.0430490607396,1,['num_0'],0,[1.468980077188462],,,,,,,,,2018_Mar_31_1720,60.0465098782,sequenceLearningTask,001,006,
min1.png,min2.png,min3.png,min4.png,allBlank.png,,,,['num_4'],,,,,,0,8,8,8,,,,,,,,,,,,,,,,,['num_4'],9,0.0462420894764,1,['num_4'],0,[1.0816558618098497],,,,,,,,,2018_Mar_31_1720,60.0465098782,sequenceLearningTask,001,006,
min1.png,min2.png,min3.png,min4.png,allBlank.png,,,,['num_1'],,,,,,0,8,8,8,,,,,,,,,,,,,,,,,['num_1'],9,0.0441436260007,1,['num_1'],0,[1.382202569860965],,,,,,,,,2018_Mar_31_1720,60.0465098782,sequenceLearningTask,001,006,
min1.png,min2.png,min3.png,min4.png,allBlank.png,,,,['num_0'],,,,,,0,8,8,8,,,,,,,,,,,,,,,,,['num_0'],9,0.0472353207879,1,['num_0'],0,[0.713612072635442],,,,,,,,,2018_Mar_31_1720,60.0465098782,sequenceLearningTask,001,006,
min1.png,min2.png,min3.png,min4.png,allBlank.png,,,,['num_7'],,,,,,0,9,9,9,,,,,,,,,,,,,,,,,['num_7'],10,0.0436492664739,1,['num_7'],0,[1.3654669662937522],,,,,,,,,2018_Mar_31_1720,60.0465098782,sequenceLearningTask,001,006,
min1.png,min2.png,min3.png,min4.png,allBlank.png,,,,['num_1'],,,,,,0,9,9,9,,,,,,,,,,,,,,,,,['num_1'],10,0.0499167586677,1,['num_1'],0,[0.9125488512217999],,,,,,,,,2018_Mar_31_1720,60.0465098782,sequenceLearningTask,001,006,
min1.png,min2.png,min3.png,min4.png,allBlank.png,,,,['num_4'],,,,,,0,9,9,9,,,,,,,,,,,,,,,,,['num_4'],10,0.04768250091,1,['num_4'],0,[0.4969899458810687],,,,,,,,,2018_Mar_31_1720,60.0465098782,sequenceLearningTask,001,006,
min1.png,min2.png,min3.png,min4.png,allBlank.png,,,,['num_0'],,,,,,0,9,9,9,,,,,,,,,,,,,,,,,['num_0'],10,0.0533584025688,1,['num_0'],0,[0.6418934497050941],,,,,,,,,2018_Mar_31_1720,60.0465098782,sequenceLearningTask,001,006,
min1.png,min2.png,min3.png,min4.png,allBlank.png,,,,['num_0'],,,,,,0,9,9,9,,,,,,,,,,,,,,,,,['num_0'],10,0.0507717337459,1,['num_0'],0,[0.6763874269090593],,,,,,,,,2018_Mar_31_1720,60.0465098782,sequenceLearningTask,001,006,
min1.png,min2.png,min3.png,min4.png,allBlank.png,,,,['num_4'],,,,,,0,9,9,9,,,,,,,,,,,,,,,,,['num_4'],10,0.0499906050973,1,['num_4'],0,[1.4271798375993967],,,,,,,,,2018_Mar_31_1720,60.0465098782,sequenceLearningTask,001,006,
min1.png,min2.png,min3.png,min4.png,allBlank.png,,,,['num_1'],,,,,,0,9,9,9,,,,,,,,,,,,,,,,,['num_1'],10,0.0504152206704,1,['num_1'],0,[1.011833855882287],,,,,,,,,2018_Mar_31_1720,60.0465098782,sequenceLearningTask,001,006,
min1.png,min2.png,min3.png,min4.png,allBlank.png,,,,['num_0'],,,,,,0,9,9,9,,,,,,,,,,,,,,,,,['num_0'],10,0.0420160344802,1,['num_0'],0,[0.5359274144284427],,,,,,,,,2018_Mar_31_1720,60.0465098782,sequenceLearningTask,001,006,
min1.png,min2.png,min3.png,min4.png,allBlank.png,,,,,,,,,,0,9,9,9,,,,,0,-1,-1,0,,,,,,,,,,,,,,,,,,,,,,,,2018_Mar_31_1720,60.0465098782,sequenceLearningTask,001,006,
min1.png,min2.png,min3.png,min4.png,allBlank.png,,,,,,,,,,0,9,9,9,,,,,0,-1,-1,0,,,,,,,,,,,,,,,,,['1'],,,,,,,2018_Mar_31_1720,60.0465098782,sequenceLearningTask,001,006,
min1.png,min2.png,min3.png,min4.png,allBlank.png,,,,,,,,,,0,9,9,9,,,,,0,-1,-1,0,,,,,,,,,,,,,,,,,['1'],,,,,,,2018_Mar_31_1720,60.0465098782,sequenceLearningTask,001,006,
min1.png,min2.png,min3.png,min4.png,allBlank.png,,,,,,,,,,0,9,9,9,,,,,0,-1,-1,0,,,,,,,,,,,,,,,,,['1'],,,,,,,2018_Mar_31_1720,60.0465098782,sequenceLearningTask,001,006,
min1.png,min2.png,min3.png,min4.png,allBlank.png,,,,,,,,,,0,9,9,9,,,,,0,-1,-1,0,,,,,,,,,,,,,,,,,['1'],,,,,,,2018_Mar_31_1720,60.0465098782,sequenceLearningTask,001,006,
min1.png,min2.png,min3.png,min4.png,allBlank.png,,,,,,0,0,0,0,0,9,9,9,,,,,0,-1,-1,0,,,,,,,,,,,,,,,,,,return,9.24300245615,recorder and piano,"[3.9451880576089025, 3.9922317885793746, 4.411747619975358, 4.608755781315267, 4.742673839908093, 4.959499043412507, 5.0780254998244345, 5.193325286731124, 5.611967271193862, 5.724796902388334, 5.861089527141303, 6.029584844596684, 6.157641154713929, 6.628146156203002, 6.7417298392392695, 6.878278053831309, 7.111222244799137, 7.277958792168647]",,,2018_Mar_31_1720,60.0465098782,sequenceLearningTask,001,006,
min1.png,min2.png,min3.png,min4.png,allBlank.png,,,,['3'],,,,,,0,9,9,9,,,,,0,-1,-1,0,0,0,0,0,,,,,['3'],1,,1,,,,,,,,,,['3'],25.0438884459,2018_Mar_31_1720,60.0465098782,sequenceLearningTask,001,006,
min1.png,min2.png,min3.png,min4.png,allBlank.png,,,,['2'],,,,,,0,9,9,9,,,,,0,-1,-1,0,0,0,0,0,,,,,['2'],1,,1,,,,,,,,,,['2'],4.96612304915,2018_Mar_31_1720,60.0465098782,sequenceLearningTask,001,006,
min1.png,min2.png,min3.png,min4.png,allBlank.png,,,,['4'],,,,,,0,9,9,9,,,,,0,-1,-1,0,0,0,0,0,,,,,['4'],1,,1,,,,,,,,,,['4'],4.44892344531,2018_Mar_31_1720,60.0465098782,sequenceLearningTask,001,006,
min1.png,min2.png,min3.png,min4.png,allBlank.png,,,,['4'],,,,,,0,9,9,9,,,,,0,-1,-1,0,0,0,0,0,,,,,['4'],1,,0,,,,,,,,,,['1'],4.24901887123,2018_Mar_31_1720,60.0465098782,sequenceLearningTask,001,006,
min1.png,min2.png,min3.png,min4.png,allBlank.png,,,,['2'],,,,,,0,9,9,9,,,,,0,-1,-1,0,0,0,0,0,,,,,['2'],1,,1,,,,,,,,,,['2'],7.06549954088,2018_Mar_31_1720,60.0465098782,sequenceLearningTask,001,006,
min1.png,min2.png,min3.png,min4.png,allBlank.png,,,,['3'],,,,,,0,9,9,9,,,,,0,-1,-1,0,0,0,0,0,,,,,['3'],1,,1,,,,,,,,,,['3'],3.06525092525,2018_Mar_31_1720,60.0465098782,sequenceLearningTask,001,006,
min1.png,min2.png,min3.png,min4.png,allBlank.png,,,,['4'],,,,,,0,9,9,9,,,,,0,-1,-1,0,0,0,0,0,,,,,['4'],1,,0,,,,,,,,,,['1'],2.83276211936,2018_Mar_31_1720,60.0465098782,sequenceLearningTask,001,006,
min1.png,min2.png,min3.png,min4.png,allBlank.png,,,,['2'],,,,,,0,9,9,9,,,,,0,-1,-1,0,0,0,0,0,,,,,['2'],1,,0,,,,,,,,,,['3'],3.71511976654,2018_Mar_31_1720,60.0465098782,sequenceLearningTask,001,006,
min1.png,min2.png,min3.png,min4.png,allBlank.png,,,,['1'],,,,,,0,9,9,9,,,,,0,-1,-1,0,0,0,0,0,,,,,['1'],1,,0,,,,,,,,,,['4'],4.2985622962,2018_Mar_31_1720,60.0465098782,sequenceLearningTask,001,006,
min1.png,min2.png,min3.png,min4.png,allBlank.png,,,,['1'],,,,,,0,9,9,9,,,,,0,-1,-1,0,0,0,0,0,0,0,0,0,['1'],1,,1,,,,,,,,,,['1'],12.5172110908,2018_Mar_31_1720,60.0465098782,sequenceLearningTask,001,006,
min1.png,min2.png,min3.png,min4.png,allBlank.png,,,,['3'],,,,,,0,9,9,9,,,,,0,-1,-1,0,0,0,0,0,0,0,0,0,['3'],1,,1,,,,,,,,,,['3'],8.49583097082,2018_Mar_31_1720,60.0465098782,sequenceLearningTask,001,006,
