pawPatrol1,pawPatrol2,pawPatrol3,pawPatrol4,blank,allowableKey,correctKey,correctKeyPressNum,posLoc,correctKeyPress,randomPaw,im_size,trials.thisRepN,trials.thisTrialN,trials.thisN,trials.thisIndex,trials_3.thisRepN,trials_3.thisTrialN,trials_3.thisN,trials_3.thisIndex,trials_2.thisRepN,trials_2.thisTrialN,trials_2.thisN,trials_2.thisIndex,trials_questions.thisRepN,trials_questions.thisTrialN,trials_questions.thisN,trials_questions.thisIndex,trials_test.thisRepN,trials_test.thisTrialN,trials_test.thisN,trials_test.thisIndex,trials_recogtest.thisRepN,trials_recogtest.thisTrialN,trials_recogtest.thisN,trials_recogtest.thisIndex,correctLocation,correctImage,repetitionNumber,stimulusPresent.t,responseTimeCorrect,pressLoc,responseTimeIncorrect,trialIncorrect,questionsResponses,AnswerFinished.keys,AnswerFinished.rt,RecordAnswer.keys,correctKey,trialCorrect,recallResponse,recallResponseTime,date,frameRate,expName,session,participant,
min1.png,min2.png,min3.png,min4.png,allBlank.png,,,,,,,,,,,,0,0,0,0,,,,,,,,,,,,,,,,,"(-0.75, -0.04)",images/min1.png,1,0.095996678574,0.672833775287,[ 0.725      -0.14722222],,,,,,,,,,,2018_Jul_09_1222,59.695851283,sequenceLearningTask,001,031,
min1.png,min2.png,min3.png,min4.png,allBlank.png,,,,,,,,,,,,0,0,0,0,,,,,,,,,,,,,,,,,"(0.25, -0.04)",images/min3.png,1,0.0859211955685,0.723161959671,[-0.7375     -0.13055556],,,,,,,,,,,2018_Jul_09_1222,59.695851283,sequenceLearningTask,001,031,
min1.png,min2.png,min3.png,min4.png,allBlank.png,,,,,,,,,,,,0,0,0,0,,,,,,,,,,,,,,,,,"(-0.25, -0.04)",images/min2.png,1,0.0830658120103,0.642760761897,[ 0.3140625  -0.03333333],,,,,,,,,,,2018_Jul_09_1222,59.695851283,sequenceLearningTask,001,031,
min1.png,min2.png,min3.png,min4.png,allBlank.png,,,,,,,,,,,,0,0,0,0,,,,,,,,,,,,,,,,,"(0.75, -0.04)",images/min4.png,1,0.0850387343671,0.541009008884,[-0.23125    -0.25833333],,,,,,,,,,,2018_Jul_09_1222,59.695851283,sequenceLearningTask,001,031,
min1.png,min2.png,min3.png,min4.png,allBlank.png,,,,,,,,,,,,0,0,0,0,,,,,,,,,,,,,,,,,"(0.75, -0.04)",images/min4.png,1,0.0555002850015,0.722500626696,[ 0.7390625  -0.24166667],,,,,,,,,,,2018_Jul_09_1222,59.695851283,sequenceLearningTask,001,031,
min1.png,min2.png,min3.png,min4.png,allBlank.png,,,,,,,,,,,,0,0,0,0,,,,,,,,,,,,,,,,,"(-0.25, -0.04)",images/min2.png,1,0.054414336686,0.674060441437,[ 0.759375 -0.275   ],,,,,,,,,,,2018_Jul_09_1222,59.695851283,sequenceLearningTask,001,031,
min1.png,min2.png,min3.png,min4.png,allBlank.png,,,,,,,,,,,,0,0,0,0,,,,,,,,,,,,,,,,,"(0.25, -0.04)",images/min3.png,1,0.0556085925782,0.636061277473,[-0.175      -0.21111111],,,,,,,,,,,2018_Jul_09_1222,59.695851283,sequenceLearningTask,001,031,
min1.png,min2.png,min3.png,min4.png,allBlank.png,,,,,,,,,,,,0,0,0,0,,,,,,,,,,,,,,,,,"(0.75, -0.04)",images/min4.png,1,0.0616024362389,0.664713163162,[ 0.2984375  -0.18333333],,,,,,,,,,,2018_Jul_09_1222,59.695851283,sequenceLearningTask,001,031,
min1.png,min2.png,min3.png,min4.png,allBlank.png,,,,,,,,,,,,0,1,1,1,,,,,,,,,,,,,,,,,"(-0.75, -0.04)",images/min1.png,2,0.0571925919503,0.667465162114,[ 0.8046875  -0.20277778],,,,,,,,,,,2018_Jul_09_1222,59.695851283,sequenceLearningTask,001,031,
min1.png,min2.png,min3.png,min4.png,allBlank.png,,,,,,,,,,,,0,1,1,1,,,,,,,,,,,,,,,,,"(0.25, -0.04)",images/min3.png,2,0.056768386974,0.652424347703,[-0.771875   -0.19722222],,,,,,,,,,,2018_Jul_09_1222,59.695851283,sequenceLearningTask,001,031,
min1.png,min2.png,min3.png,min4.png,allBlank.png,,,,,,,,,,,,0,1,1,1,,,,,,,,,,,,,,,,,"(-0.25, -0.04)",images/min2.png,2,0.0618633591803,0.662747215363,[ 0.2953125  -0.24166667],,,,,,,,,,,2018_Jul_09_1222,59.695851283,sequenceLearningTask,001,031,
min1.png,min2.png,min3.png,min4.png,allBlank.png,,,,,,,,,,,,0,1,1,1,,,,,,,,,,,,,,,,,"(0.75, -0.04)",images/min4.png,2,0.060661718715,0.650428040884,[-0.2875     -0.27777778],,,,,,,,,,,2018_Jul_09_1222,59.695851283,sequenceLearningTask,001,031,
min1.png,min2.png,min3.png,min4.png,allBlank.png,,,,,,,,,,,,0,1,1,1,,,,,,,,,,,,,,,,,"(0.75, -0.04)",images/min4.png,2,0.0541341316421,0.736841543927,[ 0.7984375  -0.19722222],,,,,,,,,,,2018_Jul_09_1222,59.695851283,sequenceLearningTask,001,031,
min1.png,min2.png,min3.png,min4.png,allBlank.png,,,,,,,,,,,,0,1,1,1,,,,,,,,,,,,,,,,,"(-0.25, -0.04)",images/min2.png,2,0.0546924903756,0.755046664504,[ 0.7921875  -0.40833333],,,,,,,,,,,2018_Jul_09_1222,59.695851283,sequenceLearningTask,001,031,
min1.png,min2.png,min3.png,min4.png,allBlank.png,,,,,,,,,,,,0,1,1,1,,,,,,,,,,,,,,,,,"(0.25, -0.04)",images/min3.png,2,0.0592094116146,1.42121336574,[-0.2171875  -0.34722222],0.616256978014,1,,,,,,,,,2018_Jul_09_1222,59.695851283,sequenceLearningTask,001,031,
min1.png,min2.png,min3.png,min4.png,allBlank.png,,,,,,,,,,,,0,1,1,1,,,,,,,,,,,,,,,,,"(0.75, -0.04)",images/min4.png,2,0.0522268504137,0.777015065891,[ 0.33125    -0.29166667],,,,,,,,,,,2018_Jul_09_1222,59.695851283,sequenceLearningTask,001,031,
min1.png,min2.png,min3.png,min4.png,allBlank.png,,,,,,,,,,,,0,2,2,2,,,,,,,,,,,,,,,,,"(-0.75, -0.04)",images/min1.png,3,0.0509320816491,0.858900980907,[ 0.8078125  -0.20277778],,,,,,,,,,,2018_Jul_09_1222,59.695851283,sequenceLearningTask,001,031,
min1.png,min2.png,min3.png,min4.png,allBlank.png,,,,,,,,,,,,0,2,2,2,,,,,,,,,,,,,,,,,"(0.25, -0.04)",images/min3.png,3,0.055226643919,2.39469276113,[-0.6953125 -0.175    ],,,,,,,,,,,2018_Jul_09_1222,59.695851283,sequenceLearningTask,001,031,
min1.png,min2.png,min3.png,min4.png,allBlank.png,,,,,,,,,,,,0,2,2,2,,,,,,,,,,,,,,,,,"(-0.25, -0.04)",images/min2.png,3,0.0579470532248,0.872123539564,[ 0.284375   -0.02222222],,,,,,,,,,,2018_Jul_09_1222,59.695851283,sequenceLearningTask,001,031,
min1.png,min2.png,min3.png,min4.png,allBlank.png,,,,,,,,,,,,0,2,2,2,,,,,,,,,,,,,,,,,"(0.75, -0.04)",images/min4.png,3,0.0598580266815,0.752697947668,[-0.2734375  -0.01944444],,,,,,,,,,,2018_Jul_09_1222,59.695851283,sequenceLearningTask,001,031,
min1.png,min2.png,min3.png,min4.png,allBlank.png,,,,,,,,,,,,0,2,2,2,,,,,,,,,,,,,,,,,"(0.75, -0.04)",images/min4.png,3,0.062878333265,0.679634592962,[ 0.7421875  -0.04444444],,,,,,,,,,,2018_Jul_09_1222,59.695851283,sequenceLearningTask,001,031,
min1.png,min2.png,min3.png,min4.png,allBlank.png,,,,,,,,,,,,0,2,2,2,,,,,,,,,,,,,,,,,"(-0.25, -0.04)",images/min2.png,3,0.0547646954656,0.771034760633,[ 0.7828125  -0.12222222],,,,,,,,,,,2018_Jul_09_1222,59.695851283,sequenceLearningTask,001,031,
min1.png,min2.png,min3.png,min4.png,allBlank.png,,,,,,,,,,,,0,2,2,2,,,,,,,,,,,,,,,,,"(0.25, -0.04)",images/min3.png,3,0.0615778209176,0.630643843906,[-0.3296875  -0.08611111],,,,,,,,,,,2018_Jul_09_1222,59.695851283,sequenceLearningTask,001,031,
min1.png,min2.png,min3.png,min4.png,allBlank.png,,,,,,,,,,,,0,2,2,2,,,,,,,,,,,,,,,,,"(0.75, -0.04)",images/min4.png,3,0.0494974155445,0.69222125446,[ 0.2859375  -0.14722222],,,,,,,,,,,2018_Jul_09_1222,59.695851283,sequenceLearningTask,001,031,
min1.png,min2.png,min3.png,min4.png,allBlank.png,,,,,,,,,,,,0,3,3,3,,,,,,,,,,,,,,,,,"(-0.75, -0.04)",images/min1.png,4,0.0551023363369,0.719783499604,[ 0.7578125  -0.13333333],,,,,,,,,,,2018_Jul_09_1222,59.695851283,sequenceLearningTask,001,031,
min1.png,min2.png,min3.png,min4.png,allBlank.png,,,,,,,,,,,,0,3,3,3,,,,,,,,,,,,,,,,,"(0.25, -0.04)",images/min3.png,4,0.0647491016425,0.576398532838,[-0.7234375  -0.16388889],,,,,,,,,,,2018_Jul_09_1222,59.695851283,sequenceLearningTask,001,031,
min1.png,min2.png,min3.png,min4.png,allBlank.png,,,,,,,,,,,,0,3,3,3,,,,,,,,,,,,,,,,,"(-0.25, -0.04)",images/min2.png,4,0.0582202838268,0.684652847354,[ 0.2609375  -0.13055556],,,,,,,,,,,2018_Jul_09_1222,59.695851283,sequenceLearningTask,001,031,
min1.png,min2.png,min3.png,min4.png,allBlank.png,,,,,,,,,,,,0,3,3,3,,,,,,,,,,,,,,,,,"(0.75, -0.04)",images/min4.png,4,0.0683076643618,0.659131216817,[-0.2015625  -0.26388889],,,,,,,,,,,2018_Jul_09_1222,59.695851283,sequenceLearningTask,001,031,
min1.png,min2.png,min3.png,min4.png,allBlank.png,,,,,,,,,,,,0,3,3,3,,,,,,,,,,,,,,,,,"(0.75, -0.04)",images/min4.png,4,0.0636992559303,0.645429889089,[ 0.7265625  -0.20277778],,,,,,,,,,,2018_Jul_09_1222,59.695851283,sequenceLearningTask,001,031,
min1.png,min2.png,min3.png,min4.png,allBlank.png,,,,,,,,,,,,0,3,3,3,,,,,,,,,,,,,,,,,"(-0.25, -0.04)",images/min2.png,4,0.0551901311846,0.720193345449,[ 0.7546875  -0.12777778],,,,,,,,,,,2018_Jul_09_1222,59.695851283,sequenceLearningTask,001,031,
min1.png,min2.png,min3.png,min4.png,allBlank.png,,,,,,,,,,,,0,3,3,3,,,,,,,,,,,,,,,,,"(0.25, -0.04)",images/min3.png,4,0.0497882872587,0.692866997793,[-0.3109375  -0.20833333],,,,,,,,,,,2018_Jul_09_1222,59.695851283,sequenceLearningTask,001,031,
min1.png,min2.png,min3.png,min4.png,allBlank.png,,,,,,,,,,,,0,3,3,3,,,,,,,,,,,,,,,,,"(0.75, -0.04)",images/min4.png,4,0.0564619255019,0.666998290457,[ 0.234375   -0.26111111],,,,,,,,,,,2018_Jul_09_1222,59.695851283,sequenceLearningTask,001,031,
min1.png,min2.png,min3.png,min4.png,allBlank.png,,,,,,,,,,,,0,4,4,4,,,,,,,,,,,,,,,,,"(-0.75, -0.04)",images/min1.png,5,0.053035875666,0.804264285485,[ 0.7484375  -0.23055556],,,,,,,,,,,2018_Jul_09_1222,59.695851283,sequenceLearningTask,001,031,
min1.png,min2.png,min3.png,min4.png,allBlank.png,,,,,,,,,,,,0,4,4,4,,,,,,,,,,,,,,,,,"(0.25, -0.04)",images/min3.png,5,0.05482992623,0.738290158566,[-0.775      -0.25833333],,,,,,,,,,,2018_Jul_09_1222,59.695851283,sequenceLearningTask,001,031,
min1.png,min2.png,min3.png,min4.png,allBlank.png,,,,,,,,,,,,0,4,4,4,,,,,,,,,,,,,,,,,"(-0.25, -0.04)",images/min2.png,5,0.0548291057348,0.737747389707,[ 0.2234375  -0.18611111],,,,,,,,,,,2018_Jul_09_1222,59.695851283,sequenceLearningTask,001,031,
min1.png,min2.png,min3.png,min4.png,allBlank.png,,,,,,,,,,,,0,4,4,4,,,,,,,,,,,,,,,,,"(0.75, -0.04)",images/min4.png,5,0.0563130024821,0.63825696893,[-0.2421875  -0.21111111],,,,,,,,,,,2018_Jul_09_1222,59.695851283,sequenceLearningTask,001,031,
min1.png,min2.png,min3.png,min4.png,allBlank.png,,,,,,,,,,,,0,4,4,4,,,,,,,,,,,,,,,,,"(0.75, -0.04)",images/min4.png,5,0.0647733067162,0.678725875448,[ 0.7140625 -0.225    ],,,,,,,,,,,2018_Jul_09_1222,59.695851283,sequenceLearningTask,001,031,
min1.png,min2.png,min3.png,min4.png,allBlank.png,,,,,,,,,,,,0,4,4,4,,,,,,,,,,,,,,,,,"(-0.25, -0.04)",images/min2.png,5,0.055624182336,0.718790679472,[ 0.7203125  -0.20833333],,,,,,,,,,,2018_Jul_09_1222,59.695851283,sequenceLearningTask,001,031,
min1.png,min2.png,min3.png,min4.png,allBlank.png,,,,,,,,,,,,0,4,4,4,,,,,,,,,,,,,,,,,"(0.25, -0.04)",images/min3.png,5,0.0569378228392,0.653472962673,[-0.253125   -0.21388889],,,,,,,,,,,2018_Jul_09_1222,59.695851283,sequenceLearningTask,001,031,
min1.png,min2.png,min3.png,min4.png,allBlank.png,,,,,,,,,,,,0,4,4,4,,,,,,,,,,,,,,,,,"(0.75, -0.04)",images/min4.png,5,0.0564750537742,0.654291013605,[ 0.2        -0.18055556],,,,,,,,,,,2018_Jul_09_1222,59.695851283,sequenceLearningTask,001,031,
min1.png,min2.png,min3.png,min4.png,allBlank.png,,,,,,,,,,,,0,5,5,5,,,,,,,,,,,,,,,,,"(-0.75, -0.04)",images/min1.png,6,0.0552869517123,0.752951075789,[ 0.7234375  -0.28611111],,,,,,,,,,,2018_Jul_09_1222,59.695851283,sequenceLearningTask,001,031,
min1.png,min2.png,min3.png,min4.png,allBlank.png,,,,,,,,,,,,0,5,5,5,,,,,,,,,,,,,,,,,"(0.25, -0.04)",images/min3.png,6,0.0486929031322,0.711452015792,[-0.8203125  -0.20277778],,,,,,,,,,,2018_Jul_09_1222,59.695851283,sequenceLearningTask,001,031,
min1.png,min2.png,min3.png,min4.png,allBlank.png,,,,,,,,,,,,0,5,5,5,,,,,,,,,,,,,,,,,"(-0.25, -0.04)",images/min2.png,6,0.0574887969997,0.61870210513,[ 0.2171875  -0.19166667],,,,,,,,,,,2018_Jul_09_1222,59.695851283,sequenceLearningTask,001,031,
min1.png,min2.png,min3.png,min4.png,allBlank.png,,,,,,,,,,,,0,5,5,5,,,,,,,,,,,,,,,,,"(0.75, -0.04)",images/min4.png,6,0.056350335828,0.600286933244,[-0.2890625  -0.30833333],,,,,,,,,,,2018_Jul_09_1222,59.695851283,sequenceLearningTask,001,031,
min1.png,min2.png,min3.png,min4.png,allBlank.png,,,,,,,,,,,,0,5,5,5,,,,,,,,,,,,,,,,,"(0.75, -0.04)",images/min4.png,6,0.0591610013507,0.650667630485,[ 0.696875   -0.10833333],,,,,,,,,,,2018_Jul_09_1222,59.695851283,sequenceLearningTask,001,031,
min1.png,min2.png,min3.png,min4.png,allBlank.png,,,,,,,,,,,,0,5,5,5,,,,,,,,,,,,,,,,,"(-0.25, -0.04)",images/min2.png,6,0.0632249996997,0.729835598031,[ 0.7734375  -0.27222222],,,,,,,,,,,2018_Jul_09_1222,59.695851283,sequenceLearningTask,001,031,
min1.png,min2.png,min3.png,min4.png,allBlank.png,,,,,,,,,,,,0,5,5,5,,,,,,,,,,,,,,,,,"(0.25, -0.04)",images/min3.png,6,0.060348693165,0.665668239701,[-0.1796875  -0.25833333],,,,,,,,,,,2018_Jul_09_1222,59.695851283,sequenceLearningTask,001,031,
min1.png,min2.png,min3.png,min4.png,allBlank.png,,,,,,,,,,,,0,5,5,5,,,,,,,,,,,,,,,,,"(0.75, -0.04)",images/min4.png,6,0.0573148482945,0.697933252086,[ 0.2328125  -0.36944444],,,,,,,,,,,2018_Jul_09_1222,59.695851283,sequenceLearningTask,001,031,
min1.png,min2.png,min3.png,min4.png,allBlank.png,,,,,,,,,,,,0,6,6,6,,,,,,,,,,,,,,,,,"(-0.75, -0.04)",images/min1.png,7,0.0615142311435,0.834373811493,[ 0.7265625  -0.34722222],,,,,,,,,,,2018_Jul_09_1222,59.695851283,sequenceLearningTask,001,031,
min1.png,min2.png,min3.png,min4.png,allBlank.png,,,,,,,,,,,,0,6,6,6,,,,,,,,,,,,,,,,,"(0.25, -0.04)",images/min3.png,7,0.053000593558,0.691726075136,[-0.7078125  -0.28611111],,,,,,,,,,,2018_Jul_09_1222,59.695851283,sequenceLearningTask,001,031,
min1.png,min2.png,min3.png,min4.png,allBlank.png,,,,,,,,,,,,0,6,6,6,,,,,,,,,,,,,,,,,"(-0.25, -0.04)",images/min2.png,7,0.0622079744935,0.850569497212,[ 0.1875     -0.39166667],,,,,,,,,,,2018_Jul_09_1222,59.695851283,sequenceLearningTask,001,031,
min1.png,min2.png,min3.png,min4.png,allBlank.png,,,,,,,,,,,,0,6,6,6,,,,,,,,,,,,,,,,,"(0.75, -0.04)",images/min4.png,7,0.0617681797594,0.596882216632,[-0.2640625  -0.32777778],,,,,,,,,,,2018_Jul_09_1222,59.695851283,sequenceLearningTask,001,031,
min1.png,min2.png,min3.png,min4.png,allBlank.png,,,,,,,,,,,,0,6,6,6,,,,,,,,,,,,,,,,,"(0.75, -0.04)",images/min4.png,7,0.0562871563016,0.634330406436,[ 0.7359375  -0.24166667],,,,,,,,,,,2018_Jul_09_1222,59.695851283,sequenceLearningTask,001,031,
min1.png,min2.png,min3.png,min4.png,allBlank.png,,,,,,,,,,,,0,6,6,6,,,,,,,,,,,,,,,,,"(-0.25, -0.04)",images/min2.png,7,0.0571285919286,0.635957482737,[ 0.815625   -0.24166667],,,,,,,,,,,2018_Jul_09_1222,59.695851283,sequenceLearningTask,001,031,
min1.png,min2.png,min3.png,min4.png,allBlank.png,,,,,,,,,,,,0,6,6,6,,,,,,,,,,,,,,,,,"(0.25, -0.04)",images/min3.png,7,0.0608754621353,0.650477271643,[-0.3328125  -0.28333333],,,,,,,,,,,2018_Jul_09_1222,59.695851283,sequenceLearningTask,001,031,
min1.png,min2.png,min3.png,min4.png,allBlank.png,,,,,,,,,,,,0,6,6,6,,,,,,,,,,,,,,,,,"(0.75, -0.04)",images/min4.png,7,0.065640998655,0.576776378788,[ 0.28125    -0.31111111],,,,,,,,,,,2018_Jul_09_1222,59.695851283,sequenceLearningTask,001,031,
min1.png,min2.png,min3.png,min4.png,allBlank.png,,,,,,,,,,,,0,7,7,7,,,,,,,,,,,,,,,,,"(-0.75, -0.04)",images/min1.png,8,0.0532758755144,0.754056716338,[ 0.7515625 -0.325    ],,,,,,,,,,,2018_Jul_09_1222,59.695851283,sequenceLearningTask,001,031,
min1.png,min2.png,min3.png,min4.png,allBlank.png,,,,,,,,,,,,0,7,7,7,,,,,,,,,,,,,,,,,"(0.25, -0.04)",images/min3.png,8,0.0582157709869,0.6696419816,[-0.8015625  -0.21666667],,,,,,,,,,,2018_Jul_09_1222,59.695851283,sequenceLearningTask,001,031,
min1.png,min2.png,min3.png,min4.png,allBlank.png,,,,,,,,,,,,0,7,7,7,,,,,,,,,,,,,,,,,"(-0.25, -0.04)",images/min2.png,8,0.0550256184069,0.640861275606,[ 0.1921875  -0.32222222],,,,,,,,,,,2018_Jul_09_1222,59.695851283,sequenceLearningTask,001,031,
min1.png,min2.png,min3.png,min4.png,allBlank.png,,,,,,,,,,,,0,7,7,7,,,,,,,,,,,,,,,,,"(0.75, -0.04)",images/min4.png,8,0.0561234641355,0.58335483761,[-0.2515625  -0.35277778],,,,,,,,,,,2018_Jul_09_1222,59.695851283,sequenceLearningTask,001,031,
min1.png,min2.png,min3.png,min4.png,allBlank.png,,,,,,,,,,,,0,7,7,7,,,,,,,,,,,,,,,,,"(0.75, -0.04)",images/min4.png,8,0.0572865406284,0.700051405118,[ 0.7234375  -0.34166667],,,,,,,,,,,2018_Jul_09_1222,59.695851283,sequenceLearningTask,001,031,
min1.png,min2.png,min3.png,min4.png,allBlank.png,,,,,,,,,,,,0,7,7,7,,,,,,,,,,,,,,,,,"(-0.25, -0.04)",images/min2.png,8,0.0516446967376,0.726870265789,[ 0.709375 -0.325   ],,,,,,,,,,,2018_Jul_09_1222,59.695851283,sequenceLearningTask,001,031,
min1.png,min2.png,min3.png,min4.png,allBlank.png,,,,,,,,,,,,0,7,7,7,,,,,,,,,,,,,,,,,"(0.25, -0.04)",images/min3.png,8,0.0587601810694,0.735863903188,[-0.2203125  -0.43055556],,,,,,,,,,,2018_Jul_09_1222,59.695851283,sequenceLearningTask,001,031,
min1.png,min2.png,min3.png,min4.png,allBlank.png,,,,,,,,,,,,0,7,7,7,,,,,,,,,,,,,,,,,"(0.75, -0.04)",images/min4.png,8,0.0608939237427,0.518133120728,[ 0.2453125  -0.32222222],,,,,,,,,,,2018_Jul_09_1222,59.695851283,sequenceLearningTask,001,031,
min1.png,min2.png,min3.png,min4.png,allBlank.png,,,,,,,,,,,,0,8,8,8,,,,,,,,,,,,,,,,,"(-0.75, -0.04)",images/min1.png,9,0.0622141283238,0.764647070901,[ 0.73125    -0.33055556],,,,,,,,,,,2018_Jul_09_1222,59.695851283,sequenceLearningTask,001,031,
min1.png,min2.png,min3.png,min4.png,allBlank.png,,,,,,,,,,,,0,8,8,8,,,,,,,,,,,,,,,,,"(0.25, -0.04)",images/min3.png,9,0.0516766967485,0.556786233094,[-0.69375    -0.43055556],,,,,,,,,,,2018_Jul_09_1222,59.695851283,sequenceLearningTask,001,031,
min1.png,min2.png,min3.png,min4.png,allBlank.png,,,,,,,,,,,,0,8,8,8,,,,,,,,,,,,,,,,,"(-0.25, -0.04)",images/min2.png,9,0.0561476692092,0.671572237276,[ 0.2421875  -0.36111111],,,,,,,,,,,2018_Jul_09_1222,59.695851283,sequenceLearningTask,001,031,
min1.png,min2.png,min3.png,min4.png,allBlank.png,,,,,,,,,,,,0,8,8,8,,,,,,,,,,,,,,,,,"(0.75, -0.04)",images/min4.png,9,0.0555367977358,0.687346179504,[-0.284375   -0.28055556],,,,,,,,,,,2018_Jul_09_1222,59.695851283,sequenceLearningTask,001,031,
min1.png,min2.png,min3.png,min4.png,allBlank.png,,,,,,,,,,,,0,8,8,8,,,,,,,,,,,,,,,,,"(0.75, -0.04)",images/min4.png,9,0.0572984380415,0.717623090255,[ 0.6609375  -0.26388889],,,,,,,,,,,2018_Jul_09_1222,59.695851283,sequenceLearningTask,001,031,
min1.png,min2.png,min3.png,min4.png,allBlank.png,,,,,,,,,,,,0,8,8,8,,,,,,,,,,,,,,,,,"(-0.25, -0.04)",images/min2.png,9,0.0551975158742,0.703634993406,[ 0.6984375  -0.31944444],,,,,,,,,,,2018_Jul_09_1222,59.695851283,sequenceLearningTask,001,031,
min1.png,min2.png,min3.png,min4.png,allBlank.png,,,,,,,,,,,,0,8,8,8,,,,,,,,,,,,,,,,,"(0.25, -0.04)",images/min3.png,9,0.0510695175035,0.72495518974,[-0.2671875  -0.28055556],,,,,,,,,,,2018_Jul_09_1222,59.695851283,sequenceLearningTask,001,031,
min1.png,min2.png,min3.png,min4.png,allBlank.png,,,,,,,,,,,,0,8,8,8,,,,,,,,,,,,,,,,,"(0.75, -0.04)",images/min4.png,9,0.0628299228847,0.713466373854,[ 0.2328125  -0.29166667],,,,,,,,,,,2018_Jul_09_1222,59.695851283,sequenceLearningTask,001,031,
min1.png,min2.png,min3.png,min4.png,allBlank.png,,,,,,,,,,,,0,9,9,9,,,,,,,,,,,,,,,,,"(-0.75, -0.04)",images/min1.png,10,0.0625706410501,0.794151879265,[ 0.8109375  -0.31388889],,,,,,,,,,,2018_Jul_09_1222,59.695851283,sequenceLearningTask,001,031,
min1.png,min2.png,min3.png,min4.png,allBlank.png,,,,,,,,,,,,0,9,9,9,,,,,,,,,,,,,,,,,"(0.25, -0.04)",images/min3.png,10,0.0537185420981,0.588864578982,[-0.7484375 -0.275    ],,,,,,,,,,,2018_Jul_09_1222,59.695851283,sequenceLearningTask,001,031,
min1.png,min2.png,min3.png,min4.png,allBlank.png,,,,,,,,,,,,0,9,9,9,,,,,,,,,,,,,,,,,"(-0.25, -0.04)",images/min2.png,10,0.0563322845846,0.703399096034,[ 0.1890625  -0.35277778],,,,,,,,,,,2018_Jul_09_1222,59.695851283,sequenceLearningTask,001,031,
min1.png,min2.png,min3.png,min4.png,allBlank.png,,,,,,,,,,,,0,9,9,9,,,,,,,,,,,,,,,,,"(0.75, -0.04)",images/min4.png,10,0.0565640793648,0.602527752751,[-0.2609375  -0.34166667],,,,,,,,,,,2018_Jul_09_1222,59.695851283,sequenceLearningTask,001,031,
min1.png,min2.png,min3.png,min4.png,allBlank.png,,,,,,,,,,,,0,9,9,9,,,,,,,,,,,,,,,,,"(0.75, -0.04)",images/min4.png,10,0.0572204893688,0.650089169154,[ 0.73125    -0.33611111],,,,,,,,,,,2018_Jul_09_1222,59.695851283,sequenceLearningTask,001,031,
min1.png,min2.png,min3.png,min4.png,allBlank.png,,,,,,,,,,,,0,9,9,9,,,,,,,,,,,,,,,,,"(-0.25, -0.04)",images/min2.png,10,0.0678416131996,0.705829864251,[ 0.734375   -0.34166667],,,,,,,,,,,2018_Jul_09_1222,59.695851283,sequenceLearningTask,001,031,
min1.png,min2.png,min3.png,min4.png,allBlank.png,,,,,,,,,,,,0,9,9,9,,,,,,,,,,,,,,,,,"(0.25, -0.04)",images/min3.png,10,0.0614588465542,0.668710700003,[-0.26875    -0.33333333],,,,,,,,,,,2018_Jul_09_1222,59.695851283,sequenceLearningTask,001,031,
min1.png,min2.png,min3.png,min4.png,allBlank.png,,,,,,,,,,,,0,9,9,9,,,,,,,,,,,,,,,,,"(0.75, -0.04)",images/min4.png,10,0.0575445917202,0.517323274864,[ 0.2703125  -0.32222222],,,,,,,,,,,2018_Jul_09_1222,59.695851283,sequenceLearningTask,001,031,
min1.png,min2.png,min3.png,min4.png,allBlank.png,,,,,,,,,,,,0,0,0,0,,,,,,,,,,,,,,,,,"(-0.75, -0.04)",images/min1.png,1,0.0353895239532,0.722337344661,[ 0.7203125  -0.39166667],,,,,,,,,,,2018_Jul_09_1222,59.695851283,sequenceLearningTask,001,031,
min1.png,min2.png,min3.png,min4.png,allBlank.png,,,,,,,,,,,,0,0,0,0,,,,,,,,,,,,,,,,,"(0.25, -0.04)",images/min3.png,1,0.0571778226877,0.5681080746,[-0.6828125  -0.19166667],,,,,,,,,,,2018_Jul_09_1222,59.695851283,sequenceLearningTask,001,031,
min1.png,min2.png,min3.png,min4.png,allBlank.png,,,,,,,,,,,,0,0,0,0,,,,,,,,,,,,,,,,,"(-0.25, -0.04)",images/min2.png,1,0.0491802875185,0.642389890389,[ 0.2703125  -0.35277778],,,,,,,,,,,2018_Jul_09_1222,59.695851283,sequenceLearningTask,001,031,
min1.png,min2.png,min3.png,min4.png,allBlank.png,,,,,,,,,,,,0,0,0,0,,,,,,,,,,,,,,,,,"(0.75, -0.04)",images/min4.png,1,0.0530814141966,0.639173481381,[-0.21875    -0.33888889],,,,,,,,,,,2018_Jul_09_1222,59.695851283,sequenceLearningTask,001,031,
min1.png,min2.png,min3.png,min4.png,allBlank.png,,,,,,,,,,,,0,0,0,0,,,,,,,,,,,,,,,,,"(0.75, -0.04)",images/min4.png,1,0.0579072583932,0.68616751337,[ 0.7328125  -0.16944444],,,,,,,,,,,2018_Jul_09_1222,59.695851283,sequenceLearningTask,001,031,
min1.png,min2.png,min3.png,min4.png,allBlank.png,,,,,,,,,,,,0,0,0,0,,,,,,,,,,,,,,,,,"(-0.25, -0.04)",images/min2.png,1,0.0519363889471,0.59241944924,[ 0.796875   -0.26666667],,,,,,,,,,,2018_Jul_09_1222,59.695851283,sequenceLearningTask,001,031,
min1.png,min2.png,min3.png,min4.png,allBlank.png,,,,,,,,,,,,0,0,0,0,,,,,,,,,,,,,,,,,"(0.25, -0.04)",images/min3.png,1,0.054540285375,0.721804421744,[-0.3046875 -0.225    ],,,,,,,,,,,2018_Jul_09_1222,59.695851283,sequenceLearningTask,001,031,
min1.png,min2.png,min3.png,min4.png,allBlank.png,,,,,,,,,,,,0,0,0,0,,,,,,,,,,,,,,,,,"(0.75, -0.04)",images/min4.png,1,0.0522596709197,0.639198917313,[ 0.265625   -0.31388889],,,,,,,,,,,2018_Jul_09_1222,59.695851283,sequenceLearningTask,001,031,
min1.png,min2.png,min3.png,min4.png,allBlank.png,,,,,,,,,,,,0,1,1,1,,,,,,,,,,,,,,,,,"(-0.75, -0.04)",images/min1.png,2,0.058964078431,0.749310051557,[ 0.853125   -0.29444444],,,,,,,,,,,2018_Jul_09_1222,59.695851283,sequenceLearningTask,001,031,
min1.png,min2.png,min3.png,min4.png,allBlank.png,,,,,,,,,,,,0,1,1,1,,,,,,,,,,,,,,,,,"(0.25, -0.04)",images/min3.png,2,0.050093107624,0.57487073855,[-0.7828125  -0.20277778],,,,,,,,,,,2018_Jul_09_1222,59.695851283,sequenceLearningTask,001,031,
min1.png,min2.png,min3.png,min4.png,allBlank.png,,,,,,,,,,,,0,1,1,1,,,,,,,,,,,,,,,,,"(-0.25, -0.04)",images/min2.png,2,0.0546924903756,0.570248381351,[ 0.2328125  -0.30555556],,,,,,,,,,,2018_Jul_09_1222,59.695851283,sequenceLearningTask,001,031,
min1.png,min2.png,min3.png,min4.png,allBlank.png,,,,,,,,,,,,0,1,1,1,,,,,,,,,,,,,,,,,"(0.75, -0.04)",images/min4.png,2,0.0563552589156,0.66793285415,[-0.228125   -0.28055556],,,,,,,,,,,2018_Jul_09_1222,59.695851283,sequenceLearningTask,001,031,
min1.png,min2.png,min3.png,min4.png,allBlank.png,,,,,,,,,,,,0,1,1,1,,,,,,,,,,,,,,,,,"(0.75, -0.04)",images/min4.png,2,0.047484288225,0.677517260541,[ 0.7890625  -0.25555556],,,,,,,,,,,2018_Jul_09_1222,59.695851283,sequenceLearningTask,001,031,
min1.png,min2.png,min3.png,min4.png,allBlank.png,,,,,,,,,,,,0,1,1,1,,,,,,,,,,,,,,,,,"(-0.25, -0.04)",images/min2.png,2,0.0573825405445,0.720220422489,[ 0.7359375  -0.27222222],,,,,,,,,,,2018_Jul_09_1222,59.695851283,sequenceLearningTask,001,031,
min1.png,min2.png,min3.png,min4.png,allBlank.png,,,,,,,,,,,,0,1,1,1,,,,,,,,,,,,,,,,,"(0.25, -0.04)",images/min3.png,2,0.0654280757299,0.627566511743,[-0.2578125  -0.18888889],,,,,,,,,,,2018_Jul_09_1222,59.695851283,sequenceLearningTask,001,031,
min1.png,min2.png,min3.png,min4.png,allBlank.png,,,,,,,,,,,,0,1,1,1,,,,,,,,,,,,,,,,,"(0.75, -0.04)",images/min4.png,2,0.0609140263405,0.666224957444,[ 0.2671875  -0.28055556],,,,,,,,,,,2018_Jul_09_1222,59.695851283,sequenceLearningTask,001,031,
min1.png,min2.png,min3.png,min4.png,allBlank.png,,,,,,,,,,,,0,2,2,2,,,,,,,,,,,,,,,,,"(-0.75, -0.04)",images/min1.png,3,0.0546014135471,1.03684347204,[ 0.765625   -0.35833333],,,,,,,,,,,2018_Jul_09_1222,59.695851283,sequenceLearningTask,001,031,
min1.png,min2.png,min3.png,min4.png,allBlank.png,,,,,,,,,,,,0,2,2,2,,,,,,,,,,,,,,,,,"(0.25, -0.04)",images/min3.png,3,0.0534658241086,0.606252058875,[-0.6484375  -0.30833333],,,,,,,,,,,2018_Jul_09_1222,59.695851283,sequenceLearningTask,001,031,
min1.png,min2.png,min3.png,min4.png,allBlank.png,,,,,,,,,,,,0,2,2,2,,,,,,,,,,,,,,,,,"(-0.25, -0.04)",images/min2.png,3,0.0634703328833,0.594918320072,[ 0.3296875 -0.325    ],,,,,,,,,,,2018_Jul_09_1222,59.695851283,sequenceLearningTask,001,031,
min1.png,min2.png,min3.png,min4.png,allBlank.png,,,,,,,,,,,,0,2,2,2,,,,,,,,,,,,,,,,,"(0.75, -0.04)",images/min4.png,3,0.0630055125803,0.562411666615,[-0.1921875  -0.34722222],,,,,,,,,,,2018_Jul_09_1222,59.695851283,sequenceLearningTask,001,031,
min1.png,min2.png,min3.png,min4.png,allBlank.png,,,,,,,,,,,,0,2,2,2,,,,,,,,,,,,,,,,,"(0.75, -0.04)",images/min4.png,3,0.0593017193023,0.598362421151,[ 0.7296875  -0.33888889],,,,,,,,,,,2018_Jul_09_1222,59.695851283,sequenceLearningTask,001,031,
min1.png,min2.png,min3.png,min4.png,allBlank.png,,,,,,,,,,,,0,2,2,2,,,,,,,,,,,,,,,,,"(-0.25, -0.04)",images/min2.png,3,0.0523232605774,0.706928120344,[ 0.709375   -0.41944444],,,,,,,,,,,2018_Jul_09_1222,59.695851283,sequenceLearningTask,001,031,
min1.png,min2.png,min3.png,min4.png,allBlank.png,,,,,,,,,,,,0,2,2,2,,,,,,,,,,,,,,,,,"(0.25, -0.04)",images/min3.png,3,0.0593739243923,0.748944103019,[-0.2609375  -0.39722222],,,,,,,,,,,2018_Jul_09_1222,59.695851283,sequenceLearningTask,001,031,
min1.png,min2.png,min3.png,min4.png,allBlank.png,,,,,,,,,,,,0,2,2,2,,,,,,,,,,,,,,,,,"(0.75, -0.04)",images/min4.png,3,0.0512073636055,1.45961827296,[ 0.228125   -0.34722222],,,,,,,,,,,2018_Jul_09_1222,59.695851283,sequenceLearningTask,001,031,
min1.png,min2.png,min3.png,min4.png,allBlank.png,,,,,,,,,,,,0,3,3,3,,,,,,,,,,,,,,,,,"(-0.75, -0.04)",images/min1.png,4,0.0498826463008,0.756097330945,[ 0.725      -0.17777778],,,,,,,,,,,2018_Jul_09_1222,59.695851283,sequenceLearningTask,001,031,
min1.png,min2.png,min3.png,min4.png,allBlank.png,,,,,,,,,,,,0,3,3,3,,,,,,,,,,,,,,,,,"(0.25, -0.04)",images/min3.png,4,0.0564073614078,0.685544744483,[-0.7515625  -0.13055556],,,,,,,,,,,2018_Jul_09_1222,59.695851283,sequenceLearningTask,001,031,
min1.png,min2.png,min3.png,min4.png,allBlank.png,,,,,,,,,,,,0,3,3,3,,,,,,,,,,,,,,,,,"(-0.25, -0.04)",images/min2.png,4,0.0528188501485,0.707399094477,[ 0.240625   -0.16944444],,,,,,,,,,,2018_Jul_09_1222,59.695851283,sequenceLearningTask,001,031,
min1.png,min2.png,min3.png,min4.png,allBlank.png,,,,,,,,,,,,0,3,3,3,,,,,,,,,,,,,,,,,"(0.75, -0.04)",images/min4.png,4,0.0630752561847,0.831066325773,[-0.2484375  -0.17222222],,,,,,,,,,,2018_Jul_09_1222,59.695851283,sequenceLearningTask,001,031,
min1.png,min2.png,min3.png,min4.png,allBlank.png,,,,,,,,,,,,0,3,3,3,,,,,,,,,,,,,,,,,"(0.75, -0.04)",images/min4.png,4,0.0575708482647,0.605024572345,[ 0.7609375  -0.16111111],,,,,,,,,,,2018_Jul_09_1222,59.695851283,sequenceLearningTask,001,031,
min1.png,min2.png,min3.png,min4.png,allBlank.png,,,,,,,,,,,,0,3,3,3,,,,,,,,,,,,,,,,,"(-0.25, -0.04)",images/min2.png,4,0.055925310473,0.66742126469,[ 0.7359375  -0.23055556],,,,,,,,,,,2018_Jul_09_1222,59.695851283,sequenceLearningTask,001,031,
min1.png,min2.png,min3.png,min4.png,allBlank.png,,,,,,,,,,,,0,3,3,3,,,,,,,,,,,,,,,,,"(0.25, -0.04)",images/min3.png,4,0.0554379259702,0.687364640995,[-0.2703125  -0.08888889],,,,,,,,,,,2018_Jul_09_1222,59.695851283,sequenceLearningTask,001,031,
min1.png,min2.png,min3.png,min4.png,allBlank.png,,,,,,,,,,,,0,3,3,3,,,,,,,,,,,,,,,,,"(0.75, -0.04)",images/min4.png,4,0.0586547452258,0.649787630769,[ 0.1921875  -0.23055556],,,,,,,,,,,2018_Jul_09_1222,59.695851283,sequenceLearningTask,001,031,
min1.png,min2.png,min3.png,min4.png,allBlank.png,,,,,,,,,,,,0,4,4,4,,,,,,,,,,,,,,,,,"(-0.75, -0.04)",images/min1.png,5,0.0503847998334,0.739654260571,[ 0.759375   -0.26944444],,,,,,,,,,,2018_Jul_09_1222,59.695851283,sequenceLearningTask,001,031,
min1.png,min2.png,min3.png,min4.png,allBlank.png,,,,,,,,,,,,0,4,4,4,,,,,,,,,,,,,,,,,"(0.25, -0.04)",images/min3.png,5,0.0529936193489,0.539442240261,[-0.7609375  -0.15277778],,,,,,,,,,,2018_Jul_09_1222,59.695851283,sequenceLearningTask,001,031,
min1.png,min2.png,min3.png,min4.png,allBlank.png,,,,,,,,,,,,0,4,4,4,,,,,,,,,,,,,,,,,"(-0.25, -0.04)",images/min2.png,5,0.0635950508295,0.66617203434,[ 0.2421875  -0.25833333],,,,,,,,,,,2018_Jul_09_1222,59.695851283,sequenceLearningTask,001,031,
min1.png,min2.png,min3.png,min4.png,allBlank.png,,,,,,,,,,,,0,4,4,4,,,,,,,,,,,,,,,,,"(0.75, -0.04)",images/min4.png,5,0.0557792591862,0.652149065747,[-0.19375    -0.26111111],,,,,,,,,,,2018_Jul_09_1222,59.695851283,sequenceLearningTask,001,031,
min1.png,min2.png,min3.png,min4.png,allBlank.png,,,,,,,,,,,,0,4,4,4,,,,,,,,,,,,,,,,,"(0.75, -0.04)",images/min4.png,5,0.0540635675425,0.654547013575,[ 0.7359375  -0.20277778],,,,,,,,,,,2018_Jul_09_1222,59.695851283,sequenceLearningTask,001,031,
min1.png,min2.png,min3.png,min4.png,allBlank.png,,,,,,,,,,,,0,4,4,4,,,,,,,,,,,,,,,,,"(-0.25, -0.04)",images/min2.png,5,0.0509870559908,0.643670300138,[ 0.725      -0.31111111],,,,,,,,,,,2018_Jul_09_1222,59.695851283,sequenceLearningTask,001,031,
min1.png,min2.png,min3.png,min4.png,allBlank.png,,,,,,,,,,,,0,4,4,4,,,,,,,,,,,,,,,,,"(0.25, -0.04)",images/min3.png,5,0.0578826429555,0.650859220186,[-0.2515625  -0.19444444],,,,,,,,,,,2018_Jul_09_1222,59.695851283,sequenceLearningTask,001,031,
min1.png,min2.png,min3.png,min4.png,allBlank.png,,,,,,,,,,,,0,4,4,4,,,,,,,,,,,,,,,,,"(0.75, -0.04)",images/min4.png,5,0.0572894123616,0.599873394938,[ 0.178125   -0.26944444],,,,,,,,,,,2018_Jul_09_1222,59.695851283,sequenceLearningTask,001,031,
min1.png,min2.png,min3.png,min4.png,allBlank.png,,,,,,,,,,,,0,5,5,5,,,,,,,,,,,,,,,,,"(-0.75, -0.04)",images/min1.png,6,0.0535962857539,0.720451396774,[ 0.7328125  -0.28055556],,,,,,,,,,,2018_Jul_09_1222,59.695851283,sequenceLearningTask,001,031,
min1.png,min2.png,min3.png,min4.png,allBlank.png,,,,,,,,,,,,0,5,5,5,,,,,,,,,,,,,,,,,"(0.25, -0.04)",images/min3.png,6,0.057391976472,0.600972471409,[-0.7078125  -0.16944444],,,,,,,,,,,2018_Jul_09_1222,59.695851283,sequenceLearningTask,001,031,
min1.png,min2.png,min3.png,min4.png,allBlank.png,,,,,,,,,,,,0,5,5,5,,,,,,,,,,,,,,,,,"(-0.25, -0.04)",images/min2.png,6,0.0618961796863,0.665168137406,[ 0.2984375  -0.26666667],,,,,,,,,,,2018_Jul_09_1222,59.695851283,sequenceLearningTask,001,031,
min1.png,min2.png,min3.png,min4.png,allBlank.png,,,,,,,,,,,,0,5,5,5,,,,,,,,,,,,,,,,,"(0.75, -0.04)",images/min4.png,6,0.0570764894364,0.532454755856,[-0.259375   -0.16944444],,,,,,,,,,,2018_Jul_09_1222,59.695851283,sequenceLearningTask,001,031,
min1.png,min2.png,min3.png,min4.png,allBlank.png,,,,,,,,,,,,0,5,5,5,,,,,,,,,,,,,,,,,"(0.75, -0.04)",images/min4.png,6,0.0605517700315,0.680917874561,[ 0.7359375  -0.26388889],,,,,,,,,,,2018_Jul_09_1222,59.695851283,sequenceLearningTask,001,031,
min1.png,min2.png,min3.png,min4.png,allBlank.png,,,,,,,,,,,,0,5,5,5,,,,,,,,,,,,,,,,,"(-0.25, -0.04)",images/min2.png,6,0.0537874650909,0.650515425368,[ 0.7078125  -0.24722222],,,,,,,,,,,2018_Jul_09_1222,59.695851283,sequenceLearningTask,001,031,
min1.png,min2.png,min3.png,min4.png,allBlank.png,,,,,,,,,,,,0,5,5,5,,,,,,,,,,,,,,,,,"(0.25, -0.04)",images/min3.png,6,0.0596122832503,0.601504573715,[-0.2109375  -0.19166667],,,,,,,,,,,2018_Jul_09_1222,59.695851283,sequenceLearningTask,001,031,
min1.png,min2.png,min3.png,min4.png,allBlank.png,,,,,,,,,,,,0,5,5,5,,,,,,,,,,,,,,,,,"(0.75, -0.04)",images/min4.png,6,0.056212489726,0.601771650603,[ 0.246875   -0.31666667],,,,,,,,,,,2018_Jul_09_1222,59.695851283,sequenceLearningTask,001,031,
min1.png,min2.png,min3.png,min4.png,allBlank.png,,,,,,,,,,,,0,6,6,6,,,,,,,,,,,,,,,,,"(-0.75, -0.04)",images/min1.png,7,0.062247769325,0.780020603095,[ 0.7109375  -0.25277778],,,,,,,,,,,2018_Jul_09_1222,59.695851283,sequenceLearningTask,001,031,
min1.png,min2.png,min3.png,min4.png,allBlank.png,,,,,,,,,,,,0,6,6,6,,,,,,,,,,,,,,,,,"(0.25, -0.04)",images/min3.png,7,0.061355462065,0.545076699462,[-0.8078125  -0.23888889],,,,,,,,,,,2018_Jul_09_1222,59.695851283,sequenceLearningTask,001,031,
min1.png,min2.png,min3.png,min4.png,allBlank.png,,,,,,,,,,,,0,6,6,6,,,,,,,,,,,,,,,,,"(-0.25, -0.04)",images/min2.png,7,0.0529476705706,0.705637864303,[ 0.1953125  -0.26666667],,,,,,,,,,,2018_Jul_09_1222,59.695851283,sequenceLearningTask,001,031,
min1.png,min2.png,min3.png,min4.png,allBlank.png,,,,,,,,,,,,0,6,6,6,,,,,,,,,,,,,,,,,"(0.75, -0.04)",images/min4.png,7,0.0562949513551,0.653530398617,[-0.29375    -0.14722222],,,,,,,,,,,2018_Jul_09_1222,59.695851283,sequenceLearningTask,001,031,
min1.png,min2.png,min3.png,min4.png,allBlank.png,,,,,,,,,,,,0,6,6,6,,,,,,,,,,,,,,,,,"(0.75, -0.04)",images/min4.png,7,0.0465107500786,0.664448958123,[ 0.753125   -0.13611111],,,,,,,,,,,2018_Jul_09_1222,59.695851283,sequenceLearningTask,001,031,
min1.png,min2.png,min3.png,min4.png,allBlank.png,,,,,,,,,,,,0,6,6,6,,,,,,,,,,,,,,,,,"(-0.25, -0.04)",images/min2.png,7,0.0635946405819,0.644820248359,[ 0.684375   -0.30833333],,,,,,,,,,,2018_Jul_09_1222,59.695851283,sequenceLearningTask,001,031,
min1.png,min2.png,min3.png,min4.png,allBlank.png,,,,,,,,,,,,0,6,6,6,,,,,,,,,,,,,,,,,"(0.25, -0.04)",images/min3.png,7,0.0539080804447,0.573227662244,[-0.259375   -0.12777778],,,,,,,,,,,2018_Jul_09_1222,59.695851283,sequenceLearningTask,001,031,
min1.png,min2.png,min3.png,min4.png,allBlank.png,,,,,,,,,,,,0,6,6,6,,,,,,,,,,,,,,,,,"(0.75, -0.04)",images/min4.png,7,0.0541411059676,0.472239806317,[ 0.25       -0.16388889],,,,,,,,,,,2018_Jul_09_1222,59.695851283,sequenceLearningTask,001,031,
min1.png,min2.png,min3.png,min4.png,allBlank.png,,,,,,,,,,,,0,7,7,7,,,,,,,,,,,,,,,,,"(-0.75, -0.04)",images/min1.png,8,0.0609173084376,0.629303946975,[ 0.7640625  -0.20833333],,,,,,,,,,,2018_Jul_09_1222,59.695851283,sequenceLearningTask,001,031,
min1.png,min2.png,min3.png,min4.png,allBlank.png,,,,,,,,,,,,0,7,7,7,,,,,,,,,,,,,,,,,"(0.25, -0.04)",images/min3.png,8,0.0594206936657,0.594291038229,[-0.6890625  -0.13888889],,,,,,,,,,,2018_Jul_09_1222,59.695851283,sequenceLearningTask,001,031,
min1.png,min2.png,min3.png,min4.png,allBlank.png,,,,,,,,,,,,0,7,7,7,,,,,,,,,,,,,,,,,"(-0.25, -0.04)",images/min2.png,8,0.0654941268731,0.6116596465,[ 0.2453125 -0.175    ],,,,,,,,,,,2018_Jul_09_1222,59.695851283,sequenceLearningTask,001,031,
min1.png,min2.png,min3.png,min4.png,allBlank.png,,,,,,,,,,,,0,7,7,7,,,,,,,,,,,,,,,,,"(0.75, -0.04)",images/min4.png,8,0.061110128765,0.548582749325,[-0.259375   -0.16944444],,,,,,,,,,,2018_Jul_09_1222,59.695851283,sequenceLearningTask,001,031,
min1.png,min2.png,min3.png,min4.png,allBlank.png,,,,,,,,,,,,0,7,7,7,,,,,,,,,,,,,,,,,"(0.75, -0.04)",images/min4.png,8,0.0568085920531,0.532857217244,[ 0.740625   -0.11944444],,,,,,,,,,,2018_Jul_09_1222,59.695851283,sequenceLearningTask,001,031,
min1.png,min2.png,min3.png,min4.png,allBlank.png,,,,,,,,,,,,0,7,7,7,,,,,,,,,,,,,,,,,"(-0.25, -0.04)",images/min2.png,8,0.0562924897531,0.718441551435,[ 0.696875   -0.19166667],,,,,,,,,,,2018_Jul_09_1222,59.695851283,sequenceLearningTask,001,031,
min1.png,min2.png,min3.png,min4.png,allBlank.png,,,,,,,,,,,,0,7,7,7,,,,,,,,,,,,,,,,,"(0.25, -0.04)",images/min3.png,8,0.054603464785,0.591790116159,[-0.20625    -0.18055556],,,,,,,,,,,2018_Jul_09_1222,59.695851283,sequenceLearningTask,001,031,
min1.png,min2.png,min3.png,min4.png,allBlank.png,,,,,,,,,,,,0,7,7,7,,,,,,,,,,,,,,,,,"(0.75, -0.04)",images/min4.png,8,0.0551429516636,0.552007978666,[ 0.253125   -0.21388889],,,,,,,,,,,2018_Jul_09_1222,59.695851283,sequenceLearningTask,001,031,
min1.png,min2.png,min3.png,min4.png,allBlank.png,,,,,,,,,,,,0,8,8,8,,,,,,,,,,,,,,,,,"(-0.75, -0.04)",images/min1.png,9,0.0565616177628,0.735298570129,[ 0.7140625 -0.2      ],,,,,,,,,,,2018_Jul_09_1222,59.695851283,sequenceLearningTask,001,031,
min1.png,min2.png,min3.png,min4.png,allBlank.png,,,,,,,,,,,,0,8,8,8,,,,,,,,,,,,,,,,,"(0.25, -0.04)",images/min3.png,9,0.0523708502296,0.524071990163,[-0.7765625  -0.11388889],,,,,,,,,,,2018_Jul_09_1222,59.695851283,sequenceLearningTask,001,031,
min1.png,min2.png,min3.png,min4.png,allBlank.png,,,,,,,,,,,,0,8,8,8,,,,,,,,,,,,,,,,,"(-0.25, -0.04)",images/min2.png,9,0.0630128972698,0.814006640459,[ 0.2265625  -0.19444444],,,,,,,,,,,2018_Jul_09_1222,59.695851283,sequenceLearningTask,001,031,
min1.png,min2.png,min3.png,min4.png,allBlank.png,,,,,,,,,,,,0,8,8,8,,,,,,,,,,,,,,,,,"(0.75, -0.04)",images/min4.png,9,0.0523109529167,1.0420849059,[-0.2703125  -0.14722222],,,,,,,,,,,2018_Jul_09_1222,59.695851283,sequenceLearningTask,001,031,
min1.png,min2.png,min3.png,min4.png,allBlank.png,,,,,,,,,,,,0,8,8,8,,,,,,,,,,,,,,,,,"(0.75, -0.04)",images/min4.png,9,0.05420387513,0.609616570408,[ 0.7625     -0.14722222],,,,,,,,,,,2018_Jul_09_1222,59.695851283,sequenceLearningTask,001,031,
min1.png,min2.png,min3.png,min4.png,allBlank.png,,,,,,,,,,,,0,8,8,8,,,,,,,,,,,,,,,,,"(-0.25, -0.04)",images/min2.png,9,0.0572988482891,0.736310262,[ 0.7171875  -0.18611111],,,,,,,,,,,2018_Jul_09_1222,59.695851283,sequenceLearningTask,001,031,
min1.png,min2.png,min3.png,min4.png,allBlank.png,,,,,,,,,,,,0,8,8,8,,,,,,,,,,,,,,,,,"(0.25, -0.04)",images/min3.png,9,0.0559134129435,0.62016343791,[-0.2984375 -0.175    ],,,,,,,,,,,2018_Jul_09_1222,59.695851283,sequenceLearningTask,001,031,
min1.png,min2.png,min3.png,min4.png,allBlank.png,,,,,,,,,,,,0,8,8,8,,,,,,,,,,,,,,,,,"(0.75, -0.04)",images/min4.png,9,0.0587499246467,0.501757742837,[ 0.2390625  -0.11944444],,,,,,,,,,,2018_Jul_09_1222,59.695851283,sequenceLearningTask,001,031,
min1.png,min2.png,min3.png,min4.png,allBlank.png,,,,,,,,,,,,0,9,9,9,,,,,,,,,,,,,,,,,"(-0.75, -0.04)",images/min1.png,10,0.0529251064872,0.739984927117,[ 0.7140625  -0.21388889],,,,,,,,,,,2018_Jul_09_1222,59.695851283,sequenceLearningTask,001,031,
min1.png,min2.png,min3.png,min4.png,allBlank.png,,,,,,,,,,,,0,9,9,9,,,,,,,,,,,,,,,,,"(0.25, -0.04)",images/min3.png,10,0.0556816181634,0.519668299588,[-0.7703125  -0.17222222],,,,,,,,,,,2018_Jul_09_1222,59.695851283,sequenceLearningTask,001,031,
min1.png,min2.png,min3.png,min4.png,allBlank.png,,,,,,,,,,,,0,9,9,9,,,,,,,,,,,,,,,,,"(-0.25, -0.04)",images/min2.png,10,0.06431012752,0.694971612305,[ 0.2734375  -0.28611111],,,,,,,,,,,2018_Jul_09_1222,59.695851283,sequenceLearningTask,001,031,
min1.png,min2.png,min3.png,min4.png,allBlank.png,,,,,,,,,,,,0,9,9,9,,,,,,,,,,,,,,,,,"(0.75, -0.04)",images/min4.png,10,0.0631831535138,0.830070223543,[-0.2234375  -0.13888889],,,,,,,,,,,2018_Jul_09_1222,59.695851283,sequenceLearningTask,001,031,
min1.png,min2.png,min3.png,min4.png,allBlank.png,,,,,,,,,,,,0,9,9,9,,,,,,,,,,,,,,,,,"(0.75, -0.04)",images/min4.png,10,0.0619265387068,0.594483858673,[ 0.684375   -0.23055556],,,,,,,,,,,2018_Jul_09_1222,59.695851283,sequenceLearningTask,001,031,
min1.png,min2.png,min3.png,min4.png,allBlank.png,,,,,,,,,,,,0,9,9,9,,,,,,,,,,,,,,,,,"(-0.25, -0.04)",images/min2.png,10,0.0607564878883,0.633532047737,[ 0.7546875  -0.15277778],,,,,,,,,,,2018_Jul_09_1222,59.695851283,sequenceLearningTask,001,031,
min1.png,min2.png,min3.png,min4.png,allBlank.png,,,,,,,,,,,,0,9,9,9,,,,,,,,,,,,,,,,,"(0.25, -0.04)",images/min3.png,10,0.0580081813969,0.617920567049,[-0.259375   -0.12222222],,,,,,,,,,,2018_Jul_09_1222,59.695851283,sequenceLearningTask,001,031,
min1.png,min2.png,min3.png,min4.png,allBlank.png,,,,,,,,,,,,0,9,9,9,,,,,,,,,,,,,,,,,"(0.75, -0.04)",images/min4.png,10,0.0513599789701,0.557137822732,[ 0.25       -0.15555556],,,,,,,,,,,2018_Jul_09_1222,59.695851283,sequenceLearningTask,001,031,
min1.png,min2.png,min3.png,min4.png,images/allBlank.png,"['num_7', 'num_4', 'num_1', 'num_0']",['num_4'],num_4,[2],'num_4',images/min2.png,"[(0.45, 0.79)]",,,,,0,-1,-1,0,0,0,0,1,,,,,,,,,,,,,"(0.75, 0.04)",images/min4.png,1,0.0354477802757,0.592974115629,[ 0.7640625  -0.23611111],,,,,,,['num_4'],,,,2018_Jul_09_1222,59.695851283,sequenceLearningTask,001,031,
min1.png,min2.png,min3.png,min4.png,images/allBlank.png,"['num_7', 'num_4', 'num_1', 'num_0']",['num_4'],num_4,[2],'num_4',images/min2.png,"[(0.45, 0.79)]",,,,,0,-1,-1,0,0,0,0,1,,,,,,,,,,,,,"(-0.25, 0.04)",images/min2.png,1,0.0601530008717,0.614244671073,[ 0.7359375  -0.12777778],,,,,,,['num_4'],,,,2018_Jul_09_1222,59.695851283,sequenceLearningTask,001,031,
min1.png,min2.png,min3.png,min4.png,images/allBlank.png,"['num_7', 'num_4', 'num_1', 'num_0']",['num_4'],num_4,[2],'num_4',images/min2.png,"[(0.45, 0.79)]",,,,,0,-1,-1,0,0,0,0,1,,,,,,,,,,,,,"(-0.75, 0.04)",images/min1.png,1,0.0646083838074,0.758199073607,[-0.2640625 -0.15     ],,,,,,,['num_4'],,,,2018_Jul_09_1222,59.695851283,sequenceLearningTask,001,031,
min1.png,min2.png,min3.png,min4.png,images/allBlank.png,"['num_7', 'num_4', 'num_1', 'num_0']",['num_4'],num_4,[2],'num_4',images/min2.png,"[(0.45, 0.79)]",,,,,0,-1,-1,0,0,0,0,1,,,,,,,,,,,,,"(-0.75, 0.04)",images/min1.png,1,0.0584676683648,0.695093458402,[-0.7671875  -0.15833333],,,,,,,['num_4'],,,,2018_Jul_09_1222,59.695851283,sequenceLearningTask,001,031,
min1.png,min2.png,min3.png,min4.png,images/allBlank.png,"['num_7', 'num_4', 'num_1', 'num_0']",['num_0'],num_0,[4],'num_0',images/min4.png,"[(0.45, 0.79)]",,,,,0,-1,-1,0,0,1,1,3,,,,,,,,,,,,,"(0.75, 0.04)",images/min4.png,2,0.0627331024734,0.8112981288,[-0.7        -0.19722222],,,,,,,['num_0'],,,,2018_Jul_09_1222,59.695851283,sequenceLearningTask,001,031,
min1.png,min2.png,min3.png,min4.png,images/allBlank.png,"['num_7', 'num_4', 'num_1', 'num_0']",['num_0'],num_0,[4],'num_0',images/min4.png,"[(0.45, 0.79)]",,,,,0,-1,-1,0,0,1,1,3,,,,,,,,,,,,,"(0.25, 0.04)",images/min3.png,2,0.0644057171885,0.693198895082,[ 0.8109375  -0.19722222],,,,,,,['num_0'],,,,2018_Jul_09_1222,59.695851283,sequenceLearningTask,001,031,
min1.png,min2.png,min3.png,min4.png,images/allBlank.png,"['num_7', 'num_4', 'num_1', 'num_0']",['num_0'],num_0,[4],'num_0',images/min4.png,"[(0.45, 0.79)]",,,,,0,-1,-1,0,0,1,1,3,,,,,,,,,,,,,"(0.75, 0.04)",images/min4.png,2,0.0572676688898,1.12268794968,[ 0.203125   -0.06388889],,,,,,,['num_0'],,,,2018_Jul_09_1222,59.695851283,sequenceLearningTask,001,031,
min1.png,min2.png,min3.png,min4.png,images/allBlank.png,"['num_7', 'num_4', 'num_1', 'num_0']",['num_0'],num_0,[4],'num_0',images/min4.png,"[(0.45, 0.79)]",,,,,0,-1,-1,0,0,1,1,3,,,,,,,,,,,,,"(-0.25, 0.04)",images/min2.png,2,0.0758215073729,0.659369165427,[ 0.7578125  -0.14722222],,,,,,,['num_0'],,,,2018_Jul_09_1222,59.695851283,sequenceLearningTask,001,031,
min1.png,min2.png,min3.png,min4.png,images/allBlank.png,"['num_7', 'num_4', 'num_1', 'num_0']",['num_7'],num_7,[1],'num_7',images/min1.png,"[(0.45, 0.79)]",,,,,0,-1,-1,0,0,2,2,0,,,,,,,,,,,,,"(-0.75, 0.04)",images/min1.png,3,0.0471499294508,0.792886649142,[-0.2890625  -0.20833333],,,,,,,['num_7'],,,,2018_Jul_09_1222,59.695851283,sequenceLearningTask,001,031,
min1.png,min2.png,min3.png,min4.png,images/allBlank.png,"['num_7', 'num_4', 'num_1', 'num_0']",['num_7'],num_7,[1],'num_7',images/min1.png,"[(0.45, 0.79)]",,,,,0,-1,-1,0,0,2,2,0,,,,,,,,,,,,,"(0.75, 0.04)",images/min4.png,3,0.065208998858,0.676996645285,[-0.721875   -0.09722222],,,,,,,['num_7'],,,,2018_Jul_09_1222,59.695851283,sequenceLearningTask,001,031,
min1.png,min2.png,min3.png,min4.png,images/allBlank.png,"['num_7', 'num_4', 'num_1', 'num_0']",['num_7'],num_7,[1],'num_7',images/min1.png,"[(0.45, 0.79)]",,,,,0,-1,-1,0,0,2,2,0,,,,,,,,,,,,,"(0.75, 0.04)",images/min4.png,3,0.0581361813238,0.752648716792,[ 0.759375   -0.20833333],,,,,,,['num_7'],,,,2018_Jul_09_1222,59.695851283,sequenceLearningTask,001,031,
min1.png,min2.png,min3.png,min4.png,images/allBlank.png,"['num_7', 'num_4', 'num_1', 'num_0']",['num_7'],num_7,[1],'num_7',images/min1.png,"[(0.45, 0.79)]",,,,,0,-1,-1,0,0,2,2,0,,,,,,,,,,,,,"(0.75, 0.04)",images/min4.png,3,0.0583113606554,0.70526330045,[ 0.7140625  -0.15277778],,,,,,,['num_7'],,,,2018_Jul_09_1222,59.695851283,sequenceLearningTask,001,031,
min1.png,min2.png,min3.png,min4.png,images/allBlank.png,"['num_7', 'num_4', 'num_1', 'num_0']",['num_1'],num_1,[3],'num_1',images/min3.png,"[(0.45, 0.79)]",,,,,0,-1,-1,0,0,3,3,2,,,,,,,,,,,,,"(-0.75, 0.04)",images/min1.png,4,0.0663417164469,0.739197235205,[ 0.721875   -0.19166667],,,,,,,['num_1'],,,,2018_Jul_09_1222,59.695851283,sequenceLearningTask,001,031,
min1.png,min2.png,min3.png,min4.png,images/allBlank.png,"['num_7', 'num_4', 'num_1', 'num_0']",['num_1'],num_1,[3],'num_1',images/min3.png,"[(0.45, 0.79)]",,,,,0,-1,-1,0,0,3,3,2,,,,,,,,,,,,,"(-0.75, 0.04)",images/min1.png,4,0.0693062279606,0.822016483289,[-0.734375   -0.10277778],,,,,,,['num_1'],,,,2018_Jul_09_1222,59.695851283,sequenceLearningTask,001,031,
min1.png,min2.png,min3.png,min4.png,images/allBlank.png,"['num_7', 'num_4', 'num_1', 'num_0']",['num_1'],num_1,[3],'num_1',images/min3.png,"[(0.45, 0.79)]",,,,,0,-1,-1,0,0,3,3,2,,,,,,,,,,,,,"(0.75, 0.04)",images/min4.png,4,0.0639088968746,0.94895920041,[-0.6890625  -0.11111111],,,,,,,['num_1'],,,,2018_Jul_09_1222,59.695851283,sequenceLearningTask,001,031,
min1.png,min2.png,min3.png,min4.png,images/allBlank.png,"['num_7', 'num_4', 'num_1', 'num_0']",['num_1'],num_1,[3],'num_1',images/min3.png,"[(0.45, 0.79)]",,,,,0,-1,-1,0,0,3,3,2,,,,,,,,,,,,,"(-0.25, 0.04)",images/min2.png,4,0.0513891071314,0.672553159995,[ 0.771875   -0.15555556],,,,,,,['num_1'],,,,2018_Jul_09_1222,59.695851283,sequenceLearningTask,001,031,
min1.png,min2.png,min3.png,min4.png,images/allBlank.png,"['num_7', 'num_4', 'num_1', 'num_0']",['num_1'],num_1,[3],'num_1',images/min3.png,"[(0.45, 0.79)]",,,,,0,-1,-1,0,1,0,4,2,,,,,,,,,,,,,"(0.75, 0.04)",images/min4.png,5,0.0614141286351,0.542106444249,[-0.253125   -0.14444444],,,,,,,['num_1'],,,,2018_Jul_09_1222,59.695851283,sequenceLearningTask,001,031,
min1.png,min2.png,min3.png,min4.png,images/allBlank.png,"['num_7', 'num_4', 'num_1', 'num_0']",['num_1'],num_1,[3],'num_1',images/min3.png,"[(0.45, 0.79)]",,,,,0,-1,-1,0,1,0,4,2,,,,,,,,,,,,,"(-0.25, 0.04)",images/min2.png,5,0.0569144382607,0.645524658263,[ 0.7125     -0.20277778],,,,,,,['num_1'],,,,2018_Jul_09_1222,59.695851283,sequenceLearningTask,001,031,
min1.png,min2.png,min3.png,min4.png,images/allBlank.png,"['num_7', 'num_4', 'num_1', 'num_0']",['num_1'],num_1,[3],'num_1',images/min3.png,"[(0.45, 0.79)]",,,,,0,-1,-1,0,1,0,4,2,,,,,,,,,,,,,"(-0.25, 0.04)",images/min2.png,5,0.058793411823,0.664910496445,[-0.2890625  -0.18055556],,,,,,,['num_1'],,,,2018_Jul_09_1222,59.695851283,sequenceLearningTask,001,031,
min1.png,min2.png,min3.png,min4.png,images/allBlank.png,"['num_7', 'num_4', 'num_1', 'num_0']",['num_1'],num_1,[3],'num_1',images/min3.png,"[(0.45, 0.79)]",,,,,0,-1,-1,0,1,0,4,2,,,,,,,,,,,,,"(0.25, 0.04)",images/min3.png,5,0.0587298220489,0.600233189645,[-0.24375    -0.23055556],,,,,,,['num_1'],,,,2018_Jul_09_1222,59.695851283,sequenceLearningTask,001,031,
min1.png,min2.png,min3.png,min4.png,images/allBlank.png,"['num_7', 'num_4', 'num_1', 'num_0']",['num_4'],num_4,[2],'num_4',images/min2.png,"[(0.45, 0.79)]",,,,,0,-1,-1,0,1,1,5,1,,,,,,,,,,,,,"(-0.75, 0.04)",images/min1.png,6,0.0571934124455,0.715993142221,[ 0.2625     -0.13055556],,,,,,,['num_4'],,,,2018_Jul_09_1222,59.695851283,sequenceLearningTask,001,031,
min1.png,min2.png,min3.png,min4.png,images/allBlank.png,"['num_7', 'num_4', 'num_1', 'num_0']",['num_4'],num_4,[2],'num_4',images/min2.png,"[(0.45, 0.79)]",,,,,0,-1,-1,0,1,1,5,1,,,,,,,,,,,,,"(0.75, 0.04)",images/min4.png,6,0.0578957711114,0.681267412729,[-0.7328125  -0.10833333],,,,,,,['num_4'],,,,2018_Jul_09_1222,59.695851283,sequenceLearningTask,001,031,
min1.png,min2.png,min3.png,min4.png,images/allBlank.png,"['num_7', 'num_4', 'num_1', 'num_0']",['num_4'],num_4,[2],'num_4',images/min2.png,"[(0.45, 0.79)]",,,,,0,-1,-1,0,1,1,5,1,,,,,,,,,,,,,"(-0.75, 0.04)",images/min1.png,6,0.0567207972053,0.701729353168,[ 0.7671875 -0.075    ],,,,,,,['num_4'],,,,2018_Jul_09_1222,59.695851283,sequenceLearningTask,001,031,
min1.png,min2.png,min3.png,min4.png,images/allBlank.png,"['num_7', 'num_4', 'num_1', 'num_0']",['num_4'],num_4,[2],'num_4',images/min2.png,"[(0.45, 0.79)]",,,,,0,-1,-1,0,1,1,5,1,,,,,,,,,,,,,"(0.75, 0.04)",images/min4.png,6,0.0634543328779,0.508876098902,[-0.6984375  -0.06388889],,,,,,,['num_4'],,,,2018_Jul_09_1222,59.695851283,sequenceLearningTask,001,031,
min1.png,min2.png,min3.png,min4.png,images/allBlank.png,"['num_7', 'num_4', 'num_1', 'num_0']",['num_0'],num_0,[4],'num_0',images/min4.png,"[(0.45, 0.79)]",,,,,0,-1,-1,0,1,2,6,3,,,,,,,,,,,,,"(-0.75, 0.04)",images/min1.png,7,0.0555458234157,0.602885496221,[ 0.7390625  -0.15833333],,,,,,,['num_0'],,,,2018_Jul_09_1222,59.695851283,sequenceLearningTask,001,031,
min1.png,min2.png,min3.png,min4.png,images/allBlank.png,"['num_7', 'num_4', 'num_1', 'num_0']",['num_0'],num_0,[4],'num_0',images/min4.png,"[(0.45, 0.79)]",,,,,0,-1,-1,0,1,2,6,3,,,,,,,,,,,,,"(-0.25, 0.04)",images/min2.png,7,0.0683790488401,0.839493399137,[-0.6984375  -0.13888889],,,,,,,['num_0'],,,,2018_Jul_09_1222,59.695851283,sequenceLearningTask,001,031,
min1.png,min2.png,min3.png,min4.png,images/allBlank.png,"['num_7', 'num_4', 'num_1', 'num_0']",['num_0'],num_0,[4],'num_0',images/min4.png,"[(0.45, 0.79)]",,,,,0,-1,-1,0,1,2,6,3,,,,,,,,,,,,,"(-0.25, 0.04)",images/min2.png,7,0.0561538230395,0.771835991065,[-0.2515625  -0.15833333],,,,,,,['num_0'],,,,2018_Jul_09_1222,59.695851283,sequenceLearningTask,001,031,
min1.png,min2.png,min3.png,min4.png,images/allBlank.png,"['num_7', 'num_4', 'num_1', 'num_0']",['num_0'],num_0,[4],'num_0',images/min4.png,"[(0.45, 0.79)]",,,,,0,-1,-1,0,1,2,6,3,,,,,,,,,,,,,"(-0.25, 0.04)",images/min2.png,7,0.061769000371,0.596664780867,[-0.2109375 -0.075    ],,,,,,,['num_0'],,,,2018_Jul_09_1222,59.695851283,sequenceLearningTask,001,031,
min1.png,min2.png,min3.png,min4.png,images/allBlank.png,"['num_7', 'num_4', 'num_1', 'num_0']",['num_7'],num_7,[1],'num_7',images/min1.png,"[(0.45, 0.79)]",,,,,0,-1,-1,0,1,3,7,0,,,,,,,,,,,,,"(0.75, 0.04)",images/min4.png,8,0.0554247976979,0.804018952185,[-0.2421875  -0.19722222],,,,,,,['num_7'],,,,2018_Jul_09_1222,59.695851283,sequenceLearningTask,001,031,
min1.png,min2.png,min3.png,min4.png,images/allBlank.png,"['num_7', 'num_4', 'num_1', 'num_0']",['num_7'],num_7,[1],'num_7',images/min1.png,"[(0.45, 0.79)]",,,,,0,-1,-1,0,1,3,7,0,,,,,,,,,,,,,"(-0.75, 0.04)",images/min1.png,8,0.0553259260487,0.835430221399,[ 0.7265625  -0.12777778],,,,,,,['num_7'],,,,2018_Jul_09_1222,59.695851283,sequenceLearningTask,001,031,
min1.png,min2.png,min3.png,min4.png,images/allBlank.png,"['num_7', 'num_4', 'num_1', 'num_0']",['num_7'],num_7,[1],'num_7',images/min1.png,"[(0.45, 0.79)]",,,,,0,-1,-1,0,1,3,7,0,,,,,,,,,,,,,"(-0.25, 0.04)",images/min2.png,8,0.0667478700634,0.655672756606,[-0.7296875  -0.19166667],,,,,,,['num_7'],,,,2018_Jul_09_1222,59.695851283,sequenceLearningTask,001,031,
min1.png,min2.png,min3.png,min4.png,images/allBlank.png,"['num_7', 'num_4', 'num_1', 'num_0']",['num_7'],num_7,[1],'num_7',images/min1.png,"[(0.45, 0.79)]",,,,,0,-1,-1,0,1,3,7,0,,,,,,,,,,,,,"(0.75, 0.04)",images/min4.png,8,0.0567285921425,1.05129597895,[-0.2421875  -0.13055556],,,,,,,['num_7'],,,,2018_Jul_09_1222,59.695851283,sequenceLearningTask,001,031,
min1.png,min2.png,min3.png,min4.png,images/allBlank.png,"['num_7', 'num_4', 'num_1', 'num_0']",['num_0'],num_0,[4],'num_0',images/min4.png,"[(0.45, 0.79)]",,,,,0,-1,-1,0,2,0,8,3,,,,,,,,,,,,,"(-0.75, 0.04)",images/min1.png,9,0.0538613112876,0.686046898016,[ 0.7140625  -0.13888889],,,,,,,['num_0'],,,,2018_Jul_09_1222,59.695851283,sequenceLearningTask,001,031,
min1.png,min2.png,min3.png,min4.png,images/allBlank.png,"['num_7', 'num_4', 'num_1', 'num_0']",['num_0'],num_0,[4],'num_0',images/min4.png,"[(0.45, 0.79)]",,,,,0,-1,-1,0,2,0,8,3,,,,,,,,,,,,,"(-0.25, 0.04)",images/min2.png,9,0.0565246947808,0.783179165912,[-0.7015625  -0.05833333],,,,,,,['num_0'],,,,2018_Jul_09_1222,59.695851283,sequenceLearningTask,001,031,
min1.png,min2.png,min3.png,min4.png,images/allBlank.png,"['num_7', 'num_4', 'num_1', 'num_0']",['num_0'],num_0,[4],'num_0',images/min4.png,"[(0.45, 0.79)]",,,,,0,-1,-1,0,2,0,8,3,,,,,,,,,,,,,"(-0.75, 0.04)",images/min1.png,9,0.0626588460291,0.777961526997,[-0.2125     -0.18611111],,,,,,,['num_0'],,,,2018_Jul_09_1222,59.695851283,sequenceLearningTask,001,031,
min1.png,min2.png,min3.png,min4.png,images/allBlank.png,"['num_7', 'num_4', 'num_1', 'num_0']",['num_0'],num_0,[4],'num_0',images/min4.png,"[(0.45, 0.79)]",,,,,0,-1,-1,0,2,0,8,3,,,,,,,,,,,,,"(0.25, 0.04)",images/min3.png,9,0.0278371167369,0.716202783049,[-0.7609375  -0.09722222],,,,,,,['num_0'],,,,2018_Jul_09_1222,59.695851283,sequenceLearningTask,001,031,
min1.png,min2.png,min3.png,min4.png,images/allBlank.png,"['num_7', 'num_4', 'num_1', 'num_0']",['num_7'],num_7,[1],'num_7',images/min1.png,"[(0.45, 0.79)]",,,,,0,-1,-1,0,2,1,9,0,,,,,,,,,,,,,"(0.25, 0.04)",images/min3.png,10,0.0555162848905,0.686408333713,[ 0.203125   -0.13888889],,,,,,,['num_7'],,,,2018_Jul_09_1222,59.695851283,sequenceLearningTask,001,031,
min1.png,min2.png,min3.png,min4.png,images/allBlank.png,"['num_7', 'num_4', 'num_1', 'num_0']",['num_7'],num_7,[1],'num_7',images/min1.png,"[(0.45, 0.79)]",,,,,0,-1,-1,0,2,1,9,0,,,,,,,,,,,,,"(0.25, 0.04)",images/min3.png,10,0.0568270536605,0.535959164728,[ 0.1625     -0.18055556],,,,,,,['num_7'],,,,2018_Jul_09_1222,59.695851283,sequenceLearningTask,001,031,
min1.png,min2.png,min3.png,min4.png,images/allBlank.png,"['num_7', 'num_4', 'num_1', 'num_0']",['num_7'],num_7,[1],'num_7',images/min1.png,"[(0.45, 0.79)]",,,,,0,-1,-1,0,2,1,9,0,,,,,,,,,,,,,"(0.75, 0.04)",images/min4.png,10,0.0637956662104,0.51163671317,[ 0.2734375  -0.19722222],,,,,,,['num_7'],,,,2018_Jul_09_1222,59.695851283,sequenceLearningTask,001,031,
min1.png,min2.png,min3.png,min4.png,images/allBlank.png,"['num_7', 'num_4', 'num_1', 'num_0']",['num_7'],num_7,[1],'num_7',images/min1.png,"[(0.45, 0.79)]",,,,,0,-1,-1,0,2,1,9,0,,,,,,,,,,,,,"(-0.25, 0.04)",images/min2.png,10,0.0608869493008,0.697375713964,[ 0.7609375  -0.20833333],,,,,,,['num_7'],,,,2018_Jul_09_1222,59.695851283,sequenceLearningTask,001,031,
min1.png,min2.png,min3.png,min4.png,images/allBlank.png,"['num_7', 'num_4', 'num_1', 'num_0']",['num_1'],num_1,[3],'num_1',images/min3.png,"[(0.45, 0.79)]",,,,,0,-1,-1,0,2,2,10,2,,,,,,,,,,,,,"(0.75, 0.04)",images/min4.png,11,0.0568389509572,0.59659831936,[-0.21875    -0.18611111],,,,,,,['num_1'],,,,2018_Jul_09_1222,59.695851283,sequenceLearningTask,001,031,
min1.png,min2.png,min3.png,min4.png,images/allBlank.png,"['num_7', 'num_4', 'num_1', 'num_0']",['num_1'],num_1,[3],'num_1',images/min3.png,"[(0.45, 0.79)]",,,,,0,-1,-1,0,2,2,10,2,,,,,,,,,,,,,"(0.75, 0.04)",images/min4.png,11,0.0549058236647,0.685657975147,[ 0.7421875  -0.26944444],,,,,,,['num_1'],,,,2018_Jul_09_1222,59.695851283,sequenceLearningTask,001,031,
min1.png,min2.png,min3.png,min4.png,images/allBlank.png,"['num_7', 'num_4', 'num_1', 'num_0']",['num_1'],num_1,[3],'num_1',images/min3.png,"[(0.45, 0.79)]",,,,,0,-1,-1,0,2,2,10,2,,,,,,,,,,,,,"(0.75, 0.04)",images/min4.png,11,0.0552656183718,0.468043295201,[ 0.8 -0.2],,,,,,,['num_1'],,,,2018_Jul_09_1222,59.695851283,sequenceLearningTask,001,031,
min1.png,min2.png,min3.png,min4.png,images/allBlank.png,"['num_7', 'num_4', 'num_1', 'num_0']",['num_1'],num_1,[3],'num_1',images/min3.png,"[(0.45, 0.79)]",,,,,0,-1,-1,0,2,2,10,2,,,,,,,,,,,,,"(-0.75, 0.04)",images/min1.png,11,0.0657571012853,0.777188604232,[ 0.74375    -0.21388889],,,,,,,['num_1'],,,,2018_Jul_09_1222,59.695851283,sequenceLearningTask,001,031,
min1.png,min2.png,min3.png,min4.png,images/allBlank.png,"['num_7', 'num_4', 'num_1', 'num_0']",['num_4'],num_4,[2],'num_4',images/min2.png,"[(0.45, 0.79)]",,,,,0,-1,-1,0,2,3,11,1,,,,,,,,,,,,,"(-0.25, 0.04)",images/min2.png,12,0.0544590544887,0.734712313977,[-0.7484375  -0.11944444],,,,,,,['num_4'],,,,2018_Jul_09_1222,59.695851283,sequenceLearningTask,001,031,
min1.png,min2.png,min3.png,min4.png,images/allBlank.png,"['num_7', 'num_4', 'num_1', 'num_0']",['num_4'],num_4,[2],'num_4',images/min2.png,"[(0.45, 0.79)]",,,,,0,-1,-1,0,2,3,11,1,,,,,,,,,,,,,"(0.25, 0.04)",images/min3.png,12,0.0581103351433,0.566901100683,[-0.24375    -0.17777778],,,,,,,['num_4'],,,,2018_Jul_09_1222,59.695851283,sequenceLearningTask,001,031,
min1.png,min2.png,min3.png,min4.png,images/allBlank.png,"['num_7', 'num_4', 'num_1', 'num_0']",['num_4'],num_4,[2],'num_4',images/min2.png,"[(0.45, 0.79)]",,,,,0,-1,-1,0,2,3,11,1,,,,,,,,,,,,,"(0.75, 0.04)",images/min4.png,12,0.0566063356819,0.517932095216,[ 0.2796875  -0.21666667],,,,,,,['num_4'],,,,2018_Jul_09_1222,59.695851283,sequenceLearningTask,001,031,
min1.png,min2.png,min3.png,min4.png,images/allBlank.png,"['num_7', 'num_4', 'num_1', 'num_0']",['num_4'],num_4,[2],'num_4',images/min2.png,"[(0.45, 0.79)]",,,,,0,-1,-1,0,2,3,11,1,,,,,,,,,,,,,"(0.25, 0.04)",images/min3.png,12,0.0637328969315,0.660098190769,[ 0.7359375  -0.21944444],,,,,,,['num_4'],,,,2018_Jul_09_1222,59.695851283,sequenceLearningTask,001,031,
min1.png,min2.png,min3.png,min4.png,images/allBlank.png,"['num_7', 'num_4', 'num_1', 'num_0']",['num_0'],num_0,[4],'num_0',images/min4.png,"[(0.45, 0.79)]",,,,,0,-1,-1,0,3,0,12,3,,,,,,,,,,,,,"(0.25, 0.04)",images/min3.png,13,0.0570662330138,0.668103931006,[ 0.1921875  -0.11666667],,,,,,,['num_0'],,,,2018_Jul_09_1222,59.695851283,sequenceLearningTask,001,031,
min1.png,min2.png,min3.png,min4.png,images/allBlank.png,"['num_7', 'num_4', 'num_1', 'num_0']",['num_0'],num_0,[4],'num_0',images/min4.png,"[(0.45, 0.79)]",,,,,0,-1,-1,0,3,0,12,3,,,,,,,,,,,,,"(0.75, 0.04)",images/min4.png,13,0.063326743315,0.795127878897,[ 0.2328125  -0.13888889],,,,,,,['num_0'],,,,2018_Jul_09_1222,59.695851283,sequenceLearningTask,001,031,
min1.png,min2.png,min3.png,min4.png,images/allBlank.png,"['num_7', 'num_4', 'num_1', 'num_0']",['num_0'],num_0,[4],'num_0',images/min4.png,"[(0.45, 0.79)]",,,,,0,-1,-1,0,3,0,12,3,,,,,,,,,,,,,"(0.25, 0.04)",images/min3.png,13,0.0553550542099,0.757205843227,[ 0.7234375  -0.08888889],,,,,,,['num_0'],,,,2018_Jul_09_1222,59.695851283,sequenceLearningTask,001,031,
min1.png,min2.png,min3.png,min4.png,images/allBlank.png,"['num_7', 'num_4', 'num_1', 'num_0']",['num_0'],num_0,[4],'num_0',images/min4.png,"[(0.45, 0.79)]",,,,,0,-1,-1,0,3,0,12,3,,,,,,,,,,,,,"(-0.25, 0.04)",images/min2.png,13,0.0571396688465,0.766395172686,[ 0.2953125  -0.20555556],,,,,,,['num_0'],,,,2018_Jul_09_1222,59.695851283,sequenceLearningTask,001,031,
min1.png,min2.png,min3.png,min4.png,images/allBlank.png,"['num_7', 'num_4', 'num_1', 'num_0']",['num_1'],num_1,[3],'num_1',images/min3.png,"[(0.45, 0.79)]",,,,,0,-1,-1,0,3,1,13,2,,,,,,,,,,,,,"(0.25, 0.04)",images/min3.png,14,0.0561152589507,0.970793858171,[-0.2328125  -0.15277778],,,,,,,['num_1'],,,,2018_Jul_09_1222,59.695851283,sequenceLearningTask,001,031,
min1.png,min2.png,min3.png,min4.png,images/allBlank.png,"['num_7', 'num_4', 'num_1', 'num_0']",['num_1'],num_1,[3],'num_1',images/min3.png,"[(0.45, 0.79)]",,,,,0,-1,-1,0,3,1,13,2,,,,,,,,,,,,,"(0.25, 0.04)",images/min3.png,14,0.0647445888026,0.68019377219,[ 0.2421875  -0.06944444],,,,,,,['num_1'],,,,2018_Jul_09_1222,59.695851283,sequenceLearningTask,001,031,
min1.png,min2.png,min3.png,min4.png,images/allBlank.png,"['num_7', 'num_4', 'num_1', 'num_0']",['num_1'],num_1,[3],'num_1',images/min3.png,"[(0.45, 0.79)]",,,,,0,-1,-1,0,3,1,13,2,,,,,,,,,,,,,"(0.25, 0.04)",images/min3.png,14,0.0549361825688,0.68669592333,[ 0.2953125  -0.18333333],,,,,,,['num_1'],,,,2018_Jul_09_1222,59.695851283,sequenceLearningTask,001,031,
min1.png,min2.png,min3.png,min4.png,images/allBlank.png,"['num_7', 'num_4', 'num_1', 'num_0']",['num_1'],num_1,[3],'num_1',images/min3.png,"[(0.45, 0.79)]",,,,,0,-1,-1,0,3,1,13,2,,,,,,,,,,,,,"(0.75, 0.04)",images/min4.png,14,0.0513874660246,0.691835203441,[ 0.2453125  -0.21388889],,,,,,,['num_1'],,,,2018_Jul_09_1222,59.695851283,sequenceLearningTask,001,031,
min1.png,min2.png,min3.png,min4.png,images/allBlank.png,"['num_7', 'num_4', 'num_1', 'num_0']",['num_4'],num_4,[2],'num_4',images/min2.png,"[(0.45, 0.79)]",,,,,0,-1,-1,0,3,2,14,1,,,,,,,,,,,,,"(0.25, 0.04)",images/min3.png,15,0.0628143332433,0.744485027972,[ 0.6890625  -0.10833333],,,,,,,['num_4'],,,,2018_Jul_09_1222,59.695851283,sequenceLearningTask,001,031,
min1.png,min2.png,min3.png,min4.png,images/allBlank.png,"['num_7', 'num_4', 'num_1', 'num_0']",['num_4'],num_4,[2],'num_4',images/min2.png,"[(0.45, 0.79)]",,,,,0,-1,-1,0,3,2,14,1,,,,,,,,,,,,,"(0.75, 0.04)",images/min4.png,15,0.0660996652441,0.809584898641,[ 0.2484375  -0.18888889],,,,,,,['num_4'],,,,2018_Jul_09_1222,59.695851283,sequenceLearningTask,001,031,
min1.png,min2.png,min3.png,min4.png,images/allBlank.png,"['num_7', 'num_4', 'num_1', 'num_0']",['num_4'],num_4,[2],'num_4',images/min2.png,"[(0.45, 0.79)]",,,,,0,-1,-1,0,3,2,14,1,,,,,,,,,,,,,"(0.25, 0.04)",images/min3.png,15,0.0582896170672,0.721227191272,[ 0.7671875  -0.22777778],,,,,,,['num_4'],,,,2018_Jul_09_1222,59.695851283,sequenceLearningTask,001,031,
min1.png,min2.png,min3.png,min4.png,images/allBlank.png,"['num_7', 'num_4', 'num_1', 'num_0']",['num_4'],num_4,[2],'num_4',images/min2.png,"[(0.45, 0.79)]",,,,,0,-1,-1,0,3,2,14,1,,,,,,,,,,,,,"(0.75, 0.04)",images/min4.png,15,0.0524479785236,0.774658964248,[ 0.2609375  -0.15555556],,,,,,,['num_4'],,,,2018_Jul_09_1222,59.695851283,sequenceLearningTask,001,031,
min1.png,min2.png,min3.png,min4.png,images/allBlank.png,"['num_7', 'num_4', 'num_1', 'num_0']",['num_7'],num_7,[1],'num_7',images/min1.png,"[(0.45, 0.79)]",,,,,0,-1,-1,0,3,3,15,0,,,,,,,,,,,,,"(-0.25, 0.04)",images/min2.png,16,0.0567088997923,0.76532399375,[ 0.7625     -0.21944444],,,,,,,['num_7'],,,,2018_Jul_09_1222,59.695851283,sequenceLearningTask,001,031,
min1.png,min2.png,min3.png,min4.png,images/allBlank.png,"['num_7', 'num_4', 'num_1', 'num_0']",['num_7'],num_7,[1],'num_7',images/min1.png,"[(0.45, 0.79)]",,,,,0,-1,-1,0,3,3,15,0,,,,,,,,,,,,,"(-0.25, 0.04)",images/min2.png,16,0.0557829514146,0.669457776705,[-0.19375 -0.175  ],,,,,,,['num_7'],,,,2018_Jul_09_1222,59.695851283,sequenceLearningTask,001,031,
min1.png,min2.png,min3.png,min4.png,images/allBlank.png,"['num_7', 'num_4', 'num_1', 'num_0']",['num_7'],num_7,[1],'num_7',images/min1.png,"[(0.45, 0.79)]",,,,,0,-1,-1,0,3,3,15,0,,,,,,,,,,,,,"(0.25, 0.04)",images/min3.png,16,0.048708082526,0.679500849335,[-0.1890625 -0.15     ],,,,,,,['num_7'],,,,2018_Jul_09_1222,59.695851283,sequenceLearningTask,001,031,
min1.png,min2.png,min3.png,min4.png,images/allBlank.png,"['num_7', 'num_4', 'num_1', 'num_0']",['num_7'],num_7,[1],'num_7',images/min1.png,"[(0.45, 0.79)]",,,,,0,-1,-1,0,3,3,15,0,,,,,,,,,,,,,"(0.25, 0.04)",images/min3.png,16,0.0559372077696,0.629923844128,[ 0.2703125  -0.17222222],,,,,,,['num_7'],,,,2018_Jul_09_1222,59.695851283,sequenceLearningTask,001,031,
min1.png,min2.png,min3.png,min4.png,images/allBlank.png,"['num_7', 'num_4', 'num_1', 'num_0']",['num_1'],num_1,[3],'num_1',images/min3.png,"[(0.45, 0.79)]",,,,,0,-1,-1,0,4,0,16,2,,,,,,,,,,,,,"(0.25, 0.04)",images/min3.png,17,0.0613821286242,0.627856152714,[ 0.2171875  -0.24722222],,,,,,,['num_1'],,,,2018_Jul_09_1222,59.695851283,sequenceLearningTask,001,031,
min1.png,min2.png,min3.png,min4.png,images/allBlank.png,"['num_7', 'num_4', 'num_1', 'num_0']",['num_1'],num_1,[3],'num_1',images/min3.png,"[(0.45, 0.79)]",,,,,0,-1,-1,0,4,0,16,2,,,,,,,,,,,,,"(0.25, 0.04)",images/min3.png,17,0.0572725919774,0.595489396714,[ 0.26875    -0.24166667],,,,,,,['num_1'],,,,2018_Jul_09_1222,59.695851283,sequenceLearningTask,001,031,
min1.png,min2.png,min3.png,min4.png,images/allBlank.png,"['num_7', 'num_4', 'num_1', 'num_0']",['num_1'],num_1,[3],'num_1',images/min3.png,"[(0.45, 0.79)]",,,,,0,-1,-1,0,4,0,16,2,,,,,,,,,,,,,"(-0.25, 0.04)",images/min2.png,17,0.0560840796679,0.688100230531,[ 0.2234375  -0.28888889],,,,,,,['num_1'],,,,2018_Jul_09_1222,59.695851283,sequenceLearningTask,001,031,
min1.png,min2.png,min3.png,min4.png,images/allBlank.png,"['num_7', 'num_4', 'num_1', 'num_0']",['num_1'],num_1,[3],'num_1',images/min3.png,"[(0.45, 0.79)]",,,,,0,-1,-1,0,4,0,16,2,,,,,,,,,,,,,"(0.75, 0.04)",images/min4.png,17,0.0629312562523,0.849172984948,[-0.2546875  -0.19722222],,,,,,,['num_1'],,,,2018_Jul_09_1222,59.695851283,sequenceLearningTask,001,031,
min1.png,min2.png,min3.png,min4.png,images/allBlank.png,"['num_7', 'num_4', 'num_1', 'num_0']",['num_7'],num_7,[1],'num_7',images/min1.png,"[(0.45, 0.79)]",,,,,0,-1,-1,0,4,1,17,0,,,,,,,,,,,,,"(0.25, 0.04)",images/min3.png,18,0.0550760799088,0.650529374136,[ 0.721875   -0.23055556],,,,,,,['num_7'],,,,2018_Jul_09_1222,59.695851283,sequenceLearningTask,001,031,
min1.png,min2.png,min3.png,min4.png,images/allBlank.png,"['num_7', 'num_4', 'num_1', 'num_0']",['num_7'],num_7,[1],'num_7',images/min1.png,"[(0.45, 0.79)]",,,,,0,-1,-1,0,4,1,17,0,,,,,,,,,,,,,"(-0.25, 0.04)",images/min2.png,18,0.0584697196027,0.933864642517,[ 0.2578125  -0.11388889],,,,,,,['num_7'],,,,2018_Jul_09_1222,59.695851283,sequenceLearningTask,001,031,
min1.png,min2.png,min3.png,min4.png,images/allBlank.png,"['num_7', 'num_4', 'num_1', 'num_0']",['num_7'],num_7,[1],'num_7',images/min1.png,"[(0.45, 0.79)]",,,,,0,-1,-1,0,4,1,17,0,,,,,,,,,,,,,"(0.75, 0.04)",images/min4.png,18,0.0606096162228,0.613905389211,[-0.2484375  -0.25277778],,,,,,,['num_7'],,,,2018_Jul_09_1222,59.695851283,sequenceLearningTask,001,031,
min1.png,min2.png,min3.png,min4.png,images/allBlank.png,"['num_7', 'num_4', 'num_1', 'num_0']",['num_7'],num_7,[1],'num_7',images/min1.png,"[(0.45, 0.79)]",,,,,0,-1,-1,0,4,1,17,0,,,,,,,,,,,,,"(0.25, 0.04)",images/min3.png,18,0.047014955082,0.613783543115,[ 0.7640625  -0.15277778],,,,,,,['num_7'],,,,2018_Jul_09_1222,59.695851283,sequenceLearningTask,001,031,
min1.png,min2.png,min3.png,min4.png,images/allBlank.png,"['num_7', 'num_4', 'num_1', 'num_0']",['num_0'],num_0,[4],'num_0',images/min4.png,"[(0.45, 0.79)]",,,,,0,-1,-1,0,4,2,18,3,,,,,,,,,,,,,"(0.25, 0.04)",images/min3.png,19,0.0573759764666,0.596575344913,[ 0.2484375  -0.18888889],,,,,,,['num_0'],,,,2018_Jul_09_1222,59.695851283,sequenceLearningTask,001,031,
min1.png,min2.png,min3.png,min4.png,images/allBlank.png,"['num_7', 'num_4', 'num_1', 'num_0']",['num_0'],num_0,[4],'num_0',images/min4.png,"[(0.45, 0.79)]",,,,,0,-1,-1,0,4,2,18,3,,,,,,,,,,,,,"(0.25, 0.04)",images/min3.png,19,0.0641423327615,0.664366086363,[ 0.253125   -0.23611111],,,,,,,['num_0'],,,,2018_Jul_09_1222,59.695851283,sequenceLearningTask,001,031,
min1.png,min2.png,min3.png,min4.png,images/allBlank.png,"['num_7', 'num_4', 'num_1', 'num_0']",['num_0'],num_0,[4],'num_0',images/min4.png,"[(0.45, 0.79)]",,,,,0,-1,-1,0,4,2,18,3,,,,,,,,,,,,,"(-0.75, 0.04)",images/min1.png,19,0.0630498202518,0.79656623723,[ 0.2328125  -0.28055556],,,,,,,['num_0'],,,,2018_Jul_09_1222,59.695851283,sequenceLearningTask,001,031,
min1.png,min2.png,min3.png,min4.png,images/allBlank.png,"['num_7', 'num_4', 'num_1', 'num_0']",['num_0'],num_0,[4],'num_0',images/min4.png,"[(0.45, 0.79)]",,,,,0,-1,-1,0,4,2,18,3,,,,,,,,,,,,,"(-0.75, 0.04)",images/min1.png,19,0.0649960758165,0.842565397965,[-0.734375   -0.13611111],,,,,,,['num_0'],,,,2018_Jul_09_1222,59.695851283,sequenceLearningTask,001,031,
min1.png,min2.png,min3.png,min4.png,images/allBlank.png,"['num_7', 'num_4', 'num_1', 'num_0']",['num_4'],num_4,[2],'num_4',images/min2.png,"[(0.45, 0.79)]",,,,,0,-1,-1,0,4,3,19,1,,,,,,,,,,,,,"(-0.25, 0.04)",images/min2.png,20,0.0552582336823,0.768533838564,[-0.7390625  -0.17222222],,,,,,,['num_4'],,,,2018_Jul_09_1222,59.695851283,sequenceLearningTask,001,031,
min1.png,min2.png,min3.png,min4.png,images/allBlank.png,"['num_7', 'num_4', 'num_1', 'num_0']",['num_4'],num_4,[2],'num_4',images/min2.png,"[(0.45, 0.79)]",,,,,0,-1,-1,0,4,3,19,1,,,,,,,,,,,,,"(-0.75, 0.04)",images/min1.png,20,0.0617743337061,0.797991057159,[-0.3328125  -0.16388889],,,,,,,['num_4'],,,,2018_Jul_09_1222,59.695851283,sequenceLearningTask,001,031,
min1.png,min2.png,min3.png,min4.png,images/allBlank.png,"['num_7', 'num_4', 'num_1', 'num_0']",['num_4'],num_4,[2],'num_4',images/min2.png,"[(0.45, 0.79)]",,,,,0,-1,-1,0,4,3,19,1,,,,,,,,,,,,,"(-0.25, 0.04)",images/min2.png,20,0.0525825425284,0.639059019857,[-0.740625 -0.1     ],,,,,,,['num_4'],,,,2018_Jul_09_1222,59.695851283,sequenceLearningTask,001,031,
min1.png,min2.png,min3.png,min4.png,images/allBlank.png,"['num_7', 'num_4', 'num_1', 'num_0']",['num_4'],num_4,[2],'num_4',images/min2.png,"[(0.45, 0.79)]",,,,,0,-1,-1,0,4,3,19,1,,,,,,,,,,,,,"(0.75, 0.04)",images/min4.png,20,0.0556061310926,0.652784142527,[-0.2625     -0.17222222],,,,,,,['num_4'],,,,2018_Jul_09_1222,59.695851283,sequenceLearningTask,001,031,
min1.png,min2.png,min3.png,min4.png,allBlank.png,"['num_7', 'num_4', 'num_1', 'num_0']",['num_4'],num_4,[2],'num_4',images/min2.png,"[(0.45, 0.79)]",,,,,0,0,0,0,4,3,19,1,,,,,,,,,,,,,"(-0.75, -0.04)",images/min1.png,1,0.0379035741789,0.706323812832,[ 0.7578125  -0.18611111],,,,,,,['num_4'],,,,2018_Jul_09_1222,59.695851283,sequenceLearningTask,001,031,
min1.png,min2.png,min3.png,min4.png,allBlank.png,"['num_7', 'num_4', 'num_1', 'num_0']",['num_4'],num_4,[2],'num_4',images/min2.png,"[(0.45, 0.79)]",,,,,0,0,0,0,4,3,19,1,,,,,,,,,,,,,"(0.25, -0.04)",images/min3.png,1,0.0649858195102,0.579181711073,[-0.7140625  -0.16388889],,,,,,,['num_4'],,,,2018_Jul_09_1222,59.695851283,sequenceLearningTask,001,031,
min1.png,min2.png,min3.png,min4.png,allBlank.png,"['num_7', 'num_4', 'num_1', 'num_0']",['num_4'],num_4,[2],'num_4',images/min2.png,"[(0.45, 0.79)]",,,,,0,0,0,0,4,3,19,1,,,,,,,,,,,,,"(-0.25, -0.04)",images/min2.png,1,0.0493517746218,0.643436864251,[ 0.2390625  -0.18333333],,,,,,,['num_4'],,,,2018_Jul_09_1222,59.695851283,sequenceLearningTask,001,031,
min1.png,min2.png,min3.png,min4.png,allBlank.png,"['num_7', 'num_4', 'num_1', 'num_0']",['num_4'],num_4,[2],'num_4',images/min2.png,"[(0.45, 0.79)]",,,,,0,0,0,0,4,3,19,1,,,,,,,,,,,,,"(0.75, -0.04)",images/min4.png,1,0.0554666438838,0.635417585378,[-0.3046875  -0.19166667],,,,,,,['num_4'],,,,2018_Jul_09_1222,59.695851283,sequenceLearningTask,001,031,
min1.png,min2.png,min3.png,min4.png,allBlank.png,"['num_7', 'num_4', 'num_1', 'num_0']",['num_4'],num_4,[2],'num_4',images/min2.png,"[(0.45, 0.79)]",,,,,0,0,0,0,4,3,19,1,,,,,,,,,,,,,"(0.75, -0.04)",images/min4.png,1,0.0500446974766,0.593482833472,[ 0.809375 -0.2     ],,,,,,,['num_4'],,,,2018_Jul_09_1222,59.695851283,sequenceLearningTask,001,031,
min1.png,min2.png,min3.png,min4.png,allBlank.png,"['num_7', 'num_4', 'num_1', 'num_0']",['num_4'],num_4,[2],'num_4',images/min2.png,"[(0.45, 0.79)]",,,,,0,0,0,0,4,3,19,1,,,,,,,,,,,,,"(-0.25, -0.04)",images/min2.png,1,0.0536393625662,0.589702322148,[ 0.7203125  -0.21111111],,,,,,,['num_4'],,,,2018_Jul_09_1222,59.695851283,sequenceLearningTask,001,031,
min1.png,min2.png,min3.png,min4.png,allBlank.png,"['num_7', 'num_4', 'num_1', 'num_0']",['num_4'],num_4,[2],'num_4',images/min2.png,"[(0.45, 0.79)]",,,,,0,0,0,0,4,3,19,1,,,,,,,,,,,,,"(0.25, -0.04)",images/min3.png,1,0.0533722857945,0.572229098529,[-0.303125   -0.08055556],,,,,,,['num_4'],,,,2018_Jul_09_1222,59.695851283,sequenceLearningTask,001,031,
min1.png,min2.png,min3.png,min4.png,allBlank.png,"['num_7', 'num_4', 'num_1', 'num_0']",['num_4'],num_4,[2],'num_4',images/min2.png,"[(0.45, 0.79)]",,,,,0,0,0,0,4,3,19,1,,,,,,,,,,,,,"(0.75, -0.04)",images/min4.png,1,0.0584139247658,0.550210646004,[ 0.2234375 -0.25     ],,,,,,,['num_4'],,,,2018_Jul_09_1222,59.695851283,sequenceLearningTask,001,031,
min1.png,min2.png,min3.png,min4.png,allBlank.png,"['num_7', 'num_4', 'num_1', 'num_0']",['num_4'],num_4,[2],'num_4',images/min2.png,"[(0.45, 0.79)]",,,,,0,1,1,1,4,3,19,1,,,,,,,,,,,,,"(-0.75, -0.04)",images/min1.png,2,0.0611683852039,0.74581466848,[ 0.778125   -0.25833333],,,,,,,['num_4'],,,,2018_Jul_09_1222,59.695851283,sequenceLearningTask,001,031,
min1.png,min2.png,min3.png,min4.png,allBlank.png,"['num_7', 'num_4', 'num_1', 'num_0']",['num_4'],num_4,[2],'num_4',images/min2.png,"[(0.45, 0.79)]",,,,,0,1,1,1,4,3,19,1,,,,,,,,,,,,,"(0.25, -0.04)",images/min3.png,2,0.0638506404357,0.661888548988,[-0.76875    -0.14444444],,,,,,,['num_4'],,,,2018_Jul_09_1222,59.695851283,sequenceLearningTask,001,031,
min1.png,min2.png,min3.png,min4.png,allBlank.png,"['num_7', 'num_4', 'num_1', 'num_0']",['num_4'],num_4,[2],'num_4',images/min2.png,"[(0.45, 0.79)]",,,,,0,1,1,1,4,3,19,1,,,,,,,,,,,,,"(-0.25, -0.04)",images/min2.png,2,0.0520553631941,0.658064960851,[ 0.2234375  -0.14722222],,,,,,,['num_4'],,,,2018_Jul_09_1222,59.695851283,sequenceLearningTask,001,031,
min1.png,min2.png,min3.png,min4.png,allBlank.png,"['num_7', 'num_4', 'num_1', 'num_0']",['num_4'],num_4,[2],'num_4',images/min2.png,"[(0.45, 0.79)]",,,,,0,1,1,1,4,3,19,1,,,,,,,,,,,,,"(0.75, -0.04)",images/min4.png,2,0.0629123843974,0.510708713555,[-0.2453125  -0.13611111],,,,,,,['num_4'],,,,2018_Jul_09_1222,59.695851283,sequenceLearningTask,001,031,
min1.png,min2.png,min3.png,min4.png,allBlank.png,"['num_7', 'num_4', 'num_1', 'num_0']",['num_4'],num_4,[2],'num_4',images/min2.png,"[(0.45, 0.79)]",,,,,0,1,1,1,4,3,19,1,,,,,,,,,,,,,"(0.75, -0.04)",images/min4.png,2,0.0597181293415,0.665751931956,[ 0.746875 -0.175   ],,,,,,,['num_4'],,,,2018_Jul_09_1222,59.695851283,sequenceLearningTask,001,031,
min1.png,min2.png,min3.png,min4.png,allBlank.png,"['num_7', 'num_4', 'num_1', 'num_0']",['num_4'],num_4,[2],'num_4',images/min2.png,"[(0.45, 0.79)]",,,,,0,1,1,1,4,3,19,1,,,,,,,,,,,,,"(-0.25, -0.04)",images/min2.png,2,0.0596327959793,0.700645456207,[ 0.7140625  -0.20833333],,,,,,,['num_4'],,,,2018_Jul_09_1222,59.695851283,sequenceLearningTask,001,031,
min1.png,min2.png,min3.png,min4.png,allBlank.png,"['num_7', 'num_4', 'num_1', 'num_0']",['num_4'],num_4,[2],'num_4',images/min2.png,"[(0.45, 0.79)]",,,,,0,1,1,1,4,3,19,1,,,,,,,,,,,,,"(0.25, -0.04)",images/min3.png,2,0.0572368996218,0.601676471066,[-0.240625   -0.10277778],,,,,,,['num_4'],,,,2018_Jul_09_1222,59.695851283,sequenceLearningTask,001,031,
min1.png,min2.png,min3.png,min4.png,allBlank.png,"['num_7', 'num_4', 'num_1', 'num_0']",['num_4'],num_4,[2],'num_4',images/min2.png,"[(0.45, 0.79)]",,,,,0,1,1,1,4,3,19,1,,,,,,,,,,,,,"(0.75, -0.04)",images/min4.png,2,0.0563441821141,0.635685482877,[ 0.2328125  -0.20555556],,,,,,,['num_4'],,,,2018_Jul_09_1222,59.695851283,sequenceLearningTask,001,031,
min1.png,min2.png,min3.png,min4.png,allBlank.png,"['num_7', 'num_4', 'num_1', 'num_0']",['num_4'],num_4,[2],'num_4',images/min2.png,"[(0.45, 0.79)]",,,,,0,2,2,2,4,3,19,1,,,,,,,,,,,,,"(-0.75, -0.04)",images/min1.png,3,0.0542346443981,0.753093434614,[ 0.7796875  -0.14722222],,,,,,,['num_4'],,,,2018_Jul_09_1222,59.695851283,sequenceLearningTask,001,031,
min1.png,min2.png,min3.png,min4.png,allBlank.png,"['num_7', 'num_4', 'num_1', 'num_0']",['num_4'],num_4,[2],'num_4',images/min2.png,"[(0.45, 0.79)]",,,,,0,2,2,2,4,3,19,1,,,,,,,,,,,,,"(0.25, -0.04)",images/min3.png,3,0.0555626437999,0.569968176424,[-0.7953125 -0.075    ],,,,,,,['num_4'],,,,2018_Jul_09_1222,59.695851283,sequenceLearningTask,001,031,
min1.png,min2.png,min3.png,min4.png,allBlank.png,"['num_7', 'num_4', 'num_1', 'num_0']",['num_4'],num_4,[2],'num_4',images/min2.png,"[(0.45, 0.79)]",,,,,0,2,2,2,4,3,19,1,,,,,,,,,,,,,"(-0.25, -0.04)",images/min2.png,3,0.0609628468519,0.698332431493,[ 0.2265625  -0.16388889],,,,,,,['num_4'],,,,2018_Jul_09_1222,59.695851283,sequenceLearningTask,001,031,
min1.png,min2.png,min3.png,min4.png,allBlank.png,"['num_7', 'num_4', 'num_1', 'num_0']",['num_4'],num_4,[2],'num_4',images/min2.png,"[(0.45, 0.79)]",,,,,0,2,2,2,4,3,19,1,,,,,,,,,,,,,"(0.75, -0.04)",images/min4.png,3,0.0559519770322,0.605266623432,[-0.2578125  -0.17222222],,,,,,,['num_4'],,,,2018_Jul_09_1222,59.695851283,sequenceLearningTask,001,031,
min1.png,min2.png,min3.png,min4.png,allBlank.png,"['num_7', 'num_4', 'num_1', 'num_0']",['num_4'],num_4,[2],'num_4',images/min2.png,"[(0.45, 0.79)]",,,,,0,2,2,2,4,3,19,1,,,,,,,,,,,,,"(0.75, -0.04)",images/min4.png,3,0.0584040785907,0.616079336964,[ 0.7984375  -0.13055556],,,,,,,['num_4'],,,,2018_Jul_09_1222,59.695851283,sequenceLearningTask,001,031,
min1.png,min2.png,min3.png,min4.png,allBlank.png,"['num_7', 'num_4', 'num_1', 'num_0']",['num_4'],num_4,[2],'num_4',images/min2.png,"[(0.45, 0.79)]",,,,,0,2,2,2,4,3,19,1,,,,,,,,,,,,,"(-0.25, -0.04)",images/min2.png,3,0.0611884878017,0.61074313405,[ 0.74375    -0.08055556],,,,,,,['num_4'],,,,2018_Jul_09_1222,59.695851283,sequenceLearningTask,001,031,
min1.png,min2.png,min3.png,min4.png,allBlank.png,"['num_7', 'num_4', 'num_1', 'num_0']",['num_4'],num_4,[2],'num_4',images/min2.png,"[(0.45, 0.79)]",,,,,0,2,2,2,4,3,19,1,,,,,,,,,,,,,"(0.25, -0.04)",images/min3.png,3,0.0624848974403,0.66257572826,[-0.20625     0.00833333],,,,,,,['num_4'],,,,2018_Jul_09_1222,59.695851283,sequenceLearningTask,001,031,
min1.png,min2.png,min3.png,min4.png,allBlank.png,"['num_7', 'num_4', 'num_1', 'num_0']",['num_4'],num_4,[2],'num_4',images/min2.png,"[(0.45, 0.79)]",,,,,0,2,2,2,4,3,19,1,,,,,,,,,,,,,"(0.75, -0.04)",images/min4.png,3,0.0505435690284,0.490203696303,[ 0.2484375  -0.16944444],,,,,,,['num_4'],,,,2018_Jul_09_1222,59.695851283,sequenceLearningTask,001,031,
min1.png,min2.png,min3.png,min4.png,allBlank.png,"['num_7', 'num_4', 'num_1', 'num_0']",['num_4'],num_4,[2],'num_4',images/min2.png,"[(0.45, 0.79)]",,,,,0,3,3,3,4,3,19,1,,,,,,,,,,,,,"(-0.75, -0.04)",images/min1.png,4,0.0600434625521,0.67915541376,[ 0.7484375  -0.13055556],,,,,,,['num_4'],,,,2018_Jul_09_1222,59.695851283,sequenceLearningTask,001,031,
min1.png,min2.png,min3.png,min4.png,allBlank.png,"['num_7', 'num_4', 'num_1', 'num_0']",['num_4'],num_4,[2],'num_4',images/min2.png,"[(0.45, 0.79)]",,,,,0,3,3,3,4,3,19,1,,,,,,,,,,,,,"(0.25, -0.04)",images/min3.png,4,0.0563786436105,0.601242830278,[-0.7328125 -0.05     ],,,,,,,['num_4'],,,,2018_Jul_09_1222,59.695851283,sequenceLearningTask,001,031,
min1.png,min2.png,min3.png,min4.png,allBlank.png,"['num_7', 'num_4', 'num_1', 'num_0']",['num_4'],num_4,[2],'num_4',images/min2.png,"[(0.45, 0.79)]",,,,,0,3,3,3,4,3,19,1,,,,,,,,,,,,,"(-0.25, -0.04)",images/min2.png,4,0.0614633593941,0.698624944198,[ 0.3015625  -0.25833333],,,,,,,['num_4'],,,,2018_Jul_09_1222,59.695851283,sequenceLearningTask,001,031,
min1.png,min2.png,min3.png,min4.png,allBlank.png,"['num_7', 'num_4', 'num_1', 'num_0']",['num_4'],num_4,[2],'num_4',images/min2.png,"[(0.45, 0.79)]",,,,,0,3,3,3,4,3,19,1,,,,,,,,,,,,,"(0.75, -0.04)",images/min4.png,4,0.0645119735273,0.529223577701,[-0.2140625  -0.20555556],,,,,,,['num_4'],,,,2018_Jul_09_1222,59.695851283,sequenceLearningTask,001,031,
min1.png,min2.png,min3.png,min4.png,allBlank.png,"['num_7', 'num_4', 'num_1', 'num_0']",['num_4'],num_4,[2],'num_4',images/min2.png,"[(0.45, 0.79)]",,,,,0,3,3,3,4,3,19,1,,,,,,,,,,,,,"(0.75, -0.04)",images/min4.png,4,0.054498439189,1.25539107481,[ 0.76875    -0.15833333],,,,,,,['num_4'],,,,2018_Jul_09_1222,59.695851283,sequenceLearningTask,001,031,
min1.png,min2.png,min3.png,min4.png,allBlank.png,"['num_7', 'num_4', 'num_1', 'num_0']",['num_4'],num_4,[2],'num_4',images/min2.png,"[(0.45, 0.79)]",,,,,0,3,3,3,4,3,19,1,,,,,,,,,,,,,"(-0.25, -0.04)",images/min2.png,4,0.0528336194111,0.757929945481,[ 0.7296875  -0.21666667],,,,,,,['num_4'],,,,2018_Jul_09_1222,59.695851283,sequenceLearningTask,001,031,
min1.png,min2.png,min3.png,min4.png,allBlank.png,"['num_7', 'num_4', 'num_1', 'num_0']",['num_4'],num_4,[2],'num_4',images/min2.png,"[(0.45, 0.79)]",,,,,0,3,3,3,4,3,19,1,,,,,,,,,,,,,"(0.25, -0.04)",images/min3.png,4,0.0611733082915,0.613059440744,[-0.2625     -0.04722222],,,,,,,['num_4'],,,,2018_Jul_09_1222,59.695851283,sequenceLearningTask,001,031,
min1.png,min2.png,min3.png,min4.png,allBlank.png,"['num_7', 'num_4', 'num_1', 'num_0']",['num_4'],num_4,[2],'num_4',images/min2.png,"[(0.45, 0.79)]",,,,,0,3,3,3,4,3,19,1,,,,,,,,,,,,,"(0.75, -0.04)",images/min4.png,4,0.0563236692687,0.502311588847,[ 0.2359375  -0.19166667],,,,,,,['num_4'],,,,2018_Jul_09_1222,59.695851283,sequenceLearningTask,001,031,
min1.png,min2.png,min3.png,min4.png,allBlank.png,"['num_7', 'num_4', 'num_1', 'num_0']",['num_4'],num_4,[2],'num_4',images/min2.png,"[(0.45, 0.79)]",,,,,0,4,4,4,4,3,19,1,,,,,,,,,,,,,"(-0.75, -0.04)",images/min1.png,5,0.0529685936635,0.736817338853,[ 0.7078125  -0.26388889],,,,,,,['num_4'],,,,2018_Jul_09_1222,59.695851283,sequenceLearningTask,001,031,
min1.png,min2.png,min3.png,min4.png,allBlank.png,"['num_7', 'num_4', 'num_1', 'num_0']",['num_4'],num_4,[2],'num_4',images/min2.png,"[(0.45, 0.79)]",,,,,0,4,4,4,4,3,19,1,,,,,,,,,,,,,"(0.25, -0.04)",images/min3.png,5,0.0485780313611,0.528846552246,[-0.73125 -0.125  ],,,,,,,['num_4'],,,,2018_Jul_09_1222,59.695851283,sequenceLearningTask,001,031,
min1.png,min2.png,min3.png,min4.png,allBlank.png,"['num_7', 'num_4', 'num_1', 'num_0']",['num_4'],num_4,[2],'num_4',images/min2.png,"[(0.45, 0.79)]",,,,,0,4,4,4,4,3,19,1,,,,,,,,,,,,,"(-0.25, -0.04)",images/min2.png,5,0.0591987449443,0.73303108383,[ 0.246875   -0.20833333],,,,,,,['num_4'],,,,2018_Jul_09_1222,59.695851283,sequenceLearningTask,001,031,
min1.png,min2.png,min3.png,min4.png,allBlank.png,"['num_7', 'num_4', 'num_1', 'num_0']",['num_4'],num_4,[2],'num_4',images/min2.png,"[(0.45, 0.79)]",,,,,0,4,4,4,4,3,19,1,,,,,,,,,,,,,"(0.75, -0.04)",images/min4.png,5,0.0651006912813,0.527818450122,[-0.2625     -0.13055556],,,,,,,['num_4'],,,,2018_Jul_09_1222,59.695851283,sequenceLearningTask,001,031,
min1.png,min2.png,min3.png,min4.png,allBlank.png,"['num_7', 'num_4', 'num_1', 'num_0']",['num_4'],num_4,[2],'num_4',images/min2.png,"[(0.45, 0.79)]",,,,,0,4,4,4,4,3,19,1,,,,,,,,,,,,,"(0.75, -0.04)",images/min4.png,5,0.0566896178061,0.666571623879,[ 0.7828125  -0.21944444],,,,,,,['num_4'],,,,2018_Jul_09_1222,59.695851283,sequenceLearningTask,001,031,
min1.png,min2.png,min3.png,min4.png,allBlank.png,"['num_7', 'num_4', 'num_1', 'num_0']",['num_4'],num_4,[2],'num_4',images/min2.png,"[(0.45, 0.79)]",,,,,0,4,4,4,4,3,19,1,,,,,,,,,,,,,"(-0.25, -0.04)",images/min2.png,5,0.0553640798898,0.703581660055,[ 0.7046875  -0.20833333],,,,,,,['num_4'],,,,2018_Jul_09_1222,59.695851283,sequenceLearningTask,001,031,
min1.png,min2.png,min3.png,min4.png,allBlank.png,"['num_7', 'num_4', 'num_1', 'num_0']",['num_4'],num_4,[2],'num_4',images/min2.png,"[(0.45, 0.79)]",,,,,0,4,4,4,4,3,19,1,,,,,,,,,,,,,"(0.25, -0.04)",images/min3.png,5,0.0266215275042,0.666126495926,[-0.225      -0.23611111],,,,,,,['num_4'],,,,2018_Jul_09_1222,59.695851283,sequenceLearningTask,001,031,
min1.png,min2.png,min3.png,min4.png,allBlank.png,"['num_7', 'num_4', 'num_1', 'num_0']",['num_4'],num_4,[2],'num_4',images/min2.png,"[(0.45, 0.79)]",,,,,0,4,4,4,4,3,19,1,,,,,,,,,,,,,"(0.75, -0.04)",images/min4.png,5,0.0521234658081,0.640393993701,[ 0.2296875  -0.23055556],,,,,,,['num_4'],,,,2018_Jul_09_1222,59.695851283,sequenceLearningTask,001,031,
min1.png,min2.png,min3.png,min4.png,allBlank.png,"['num_7', 'num_4', 'num_1', 'num_0']",['num_4'],num_4,[2],'num_4',images/min2.png,"[(0.45, 0.79)]",,,,,0,5,5,5,4,3,19,1,,,,,,,,,,,,,"(-0.75, -0.04)",images/min1.png,6,0.0547482852126,0.735767903272,[ 0.7453125  -0.16388889],,,,,,,['num_4'],,,,2018_Jul_09_1222,59.695851283,sequenceLearningTask,001,031,
min1.png,min2.png,min3.png,min4.png,allBlank.png,"['num_7', 'num_4', 'num_1', 'num_0']",['num_4'],num_4,[2],'num_4',images/min2.png,"[(0.45, 0.79)]",,,,,0,5,5,5,4,3,19,1,,,,,,,,,,,,,"(0.25, -0.04)",images/min3.png,6,0.0520463376306,0.57380530308,[-0.8234375  -0.06666667],,,,,,,['num_4'],,,,2018_Jul_09_1222,59.695851283,sequenceLearningTask,001,031,
min1.png,min2.png,min3.png,min4.png,allBlank.png,"['num_7', 'num_4', 'num_1', 'num_0']",['num_4'],num_4,[2],'num_4',images/min2.png,"[(0.45, 0.79)]",,,,,0,5,5,5,4,3,19,1,,,,,,,,,,,,,"(-0.25, -0.04)",images/min2.png,6,0.0505251075374,1.37790589617,[ 0.2109375  -0.22222222],0.659644857515,1,,,,,['num_4'],,,,2018_Jul_09_1222,59.695851283,sequenceLearningTask,001,031,
min1.png,min2.png,min3.png,min4.png,allBlank.png,"['num_7', 'num_4', 'num_1', 'num_0']",['num_4'],num_4,[2],'num_4',images/min2.png,"[(0.45, 0.79)]",,,,,0,5,5,5,4,3,19,1,,,,,,,,,,,,,"(0.75, -0.04)",images/min4.png,6,0.0537616190268,0.720935088815,[-0.1859375  -0.06944444],,,,,,,['num_4'],,,,2018_Jul_09_1222,59.695851283,sequenceLearningTask,001,031,
min1.png,min2.png,min3.png,min4.png,allBlank.png,"['num_7', 'num_4', 'num_1', 'num_0']",['num_4'],num_4,[2],'num_4',images/min2.png,"[(0.45, 0.79)]",,,,,0,5,5,5,4,3,19,1,,,,,,,,,,,,,"(0.75, -0.04)",images/min4.png,6,0.0593878730433,0.648454298032,[ 0.73125    -0.15277778],,,,,,,['num_4'],,,,2018_Jul_09_1222,59.695851283,sequenceLearningTask,001,031,
min1.png,min2.png,min3.png,min4.png,allBlank.png,"['num_7', 'num_4', 'num_1', 'num_0']",['num_4'],num_4,[2],'num_4',images/min2.png,"[(0.45, 0.79)]",,,,,0,5,5,5,4,3,19,1,,,,,,,,,,,,,"(-0.25, -0.04)",images/min2.png,6,0.0528549526352,0.705041351728,[ 0.76875    -0.11944444],,,,,,,['num_4'],,,,2018_Jul_09_1222,59.695851283,sequenceLearningTask,001,031,
min1.png,min2.png,min3.png,min4.png,allBlank.png,"['num_7', 'num_4', 'num_1', 'num_0']",['num_4'],num_4,[2],'num_4',images/min2.png,"[(0.45, 0.79)]",,,,,0,5,5,5,4,3,19,1,,,,,,,,,,,,,"(0.25, -0.04)",images/min3.png,6,0.0689447921468,0.58955134789,[-0.1578125  -0.10277778],,,,,,,['num_4'],,,,2018_Jul_09_1222,59.695851283,sequenceLearningTask,001,031,
min1.png,min2.png,min3.png,min4.png,allBlank.png,"['num_7', 'num_4', 'num_1', 'num_0']",['num_4'],num_4,[2],'num_4',images/min2.png,"[(0.45, 0.79)]",,,,,0,5,5,5,4,3,19,1,,,,,,,,,,,,,"(0.75, -0.04)",images/min4.png,6,0.0546280801063,0.569437304861,[ 0.2796875  -0.14722222],,,,,,,['num_4'],,,,2018_Jul_09_1222,59.695851283,sequenceLearningTask,001,031,
min1.png,min2.png,min3.png,min4.png,allBlank.png,"['num_7', 'num_4', 'num_1', 'num_0']",['num_4'],num_4,[2],'num_4',images/min2.png,"[(0.45, 0.79)]",,,,,0,6,6,6,4,3,19,1,,,,,,,,,,,,,"(-0.75, -0.04)",images/min1.png,7,0.0574432585854,0.803447465296,[ 0.8140625  -0.13888889],,,,,,,['num_4'],,,,2018_Jul_09_1222,59.695851283,sequenceLearningTask,001,031,
min1.png,min2.png,min3.png,min4.png,allBlank.png,"['num_7', 'num_4', 'num_1', 'num_0']",['num_4'],num_4,[2],'num_4',images/min2.png,"[(0.45, 0.79)]",,,,,0,6,6,6,4,3,19,1,,,,,,,,,,,,,"(0.25, -0.04)",images/min3.png,7,0.0623593591154,0.545014750795,[-0.728125   -0.08611111],,,,,,,['num_4'],,,,2018_Jul_09_1222,59.695851283,sequenceLearningTask,001,031,
min1.png,min2.png,min3.png,min4.png,allBlank.png,"['num_7', 'num_4', 'num_1', 'num_0']",['num_4'],num_4,[2],'num_4',images/min2.png,"[(0.45, 0.79)]",,,,,0,6,6,6,4,3,19,1,,,,,,,,,,,,,"(-0.25, -0.04)",images/min2.png,7,0.055420695222,0.687061871984,[ 0.2625     -0.18333333],,,,,,,['num_4'],,,,2018_Jul_09_1222,59.695851283,sequenceLearningTask,001,031,
min1.png,min2.png,min3.png,min4.png,allBlank.png,"['num_7', 'num_4', 'num_1', 'num_0']",['num_4'],num_4,[2],'num_4',images/min2.png,"[(0.45, 0.79)]",,,,,0,6,6,6,4,3,19,1,,,,,,,,,,,,,"(0.75, -0.04)",images/min4.png,7,0.0543774135876,0.67017326341,[-0.2953125  -0.11111111],,,,,,,['num_4'],,,,2018_Jul_09_1222,59.695851283,sequenceLearningTask,001,031,
min1.png,min2.png,min3.png,min4.png,allBlank.png,"['num_7', 'num_4', 'num_1', 'num_0']",['num_4'],num_4,[2],'num_4',images/min2.png,"[(0.45, 0.79)]",,,,,0,6,6,6,4,3,19,1,,,,,,,,,,,,,"(0.75, -0.04)",images/min4.png,7,0.0523802861571,0.627490204177,[ 0.7421875  -0.19722222],,,,,,,['num_4'],,,,2018_Jul_09_1222,59.695851283,sequenceLearningTask,001,031,
min1.png,min2.png,min3.png,min4.png,allBlank.png,"['num_7', 'num_4', 'num_1', 'num_0']",['num_4'],num_4,[2],'num_4',images/min2.png,"[(0.45, 0.79)]",,,,,0,6,6,6,4,3,19,1,,,,,,,,,,,,,"(-0.25, -0.04)",images/min2.png,7,0.0545099263545,0.637144354056,[ 0.7171875  -0.06944444],,,,,,,['num_4'],,,,2018_Jul_09_1222,59.695851283,sequenceLearningTask,001,031,
min1.png,min2.png,min3.png,min4.png,allBlank.png,"['num_7', 'num_4', 'num_1', 'num_0']",['num_4'],num_4,[2],'num_4',images/min2.png,"[(0.45, 0.79)]",,,,,0,6,6,6,4,3,19,1,,,,,,,,,,,,,"(0.25, -0.04)",images/min3.png,7,0.0619302309351,0.579208377865,[-0.2296875  -0.09166667],,,,,,,['num_4'],,,,2018_Jul_09_1222,59.695851283,sequenceLearningTask,001,031,
min1.png,min2.png,min3.png,min4.png,allBlank.png,"['num_7', 'num_4', 'num_1', 'num_0']",['num_4'],num_4,[2],'num_4',images/min2.png,"[(0.45, 0.79)]",,,,,0,6,6,6,4,3,19,1,,,,,,,,,,,,,"(0.75, -0.04)",images/min4.png,7,0.0633308457909,0.527365527232,[ 0.2921875  -0.18055556],,,,,,,['num_4'],,,,2018_Jul_09_1222,59.695851283,sequenceLearningTask,001,031,
min1.png,min2.png,min3.png,min4.png,allBlank.png,"['num_7', 'num_4', 'num_1', 'num_0']",['num_4'],num_4,[2],'num_4',images/min2.png,"[(0.45, 0.79)]",,,,,0,7,7,7,4,3,19,1,,,,,,,,,,,,,"(-0.75, -0.04)",images/min1.png,8,0.0468758782372,0.762733635842,[ 0.7 -0.2],,,,,,,['num_4'],,,,2018_Jul_09_1222,59.695851283,sequenceLearningTask,001,031,
min1.png,min2.png,min3.png,min4.png,allBlank.png,"['num_7', 'num_4', 'num_1', 'num_0']",['num_4'],num_4,[2],'num_4',images/min2.png,"[(0.45, 0.79)]",,,,,0,7,7,7,4,3,19,1,,,,,,,,,,,,,"(0.25, -0.04)",images/min3.png,8,0.0566555664409,0.63558866235,[-0.7640625  -0.15277778],,,,,,,['num_4'],,,,2018_Jul_09_1222,59.695851283,sequenceLearningTask,001,031,
min1.png,min2.png,min3.png,min4.png,allBlank.png,"['num_7', 'num_4', 'num_1', 'num_0']",['num_4'],num_4,[2],'num_4',images/min2.png,"[(0.45, 0.79)]",,,,,0,7,7,7,4,3,19,1,,,,,,,,,,,,,"(-0.25, -0.04)",images/min2.png,8,0.0521870555822,0.65683214087,[ 0.2328125  -0.30277778],,,,,,,['num_4'],,,,2018_Jul_09_1222,59.695851283,sequenceLearningTask,001,031,
min1.png,min2.png,min3.png,min4.png,allBlank.png,"['num_7', 'num_4', 'num_1', 'num_0']",['num_4'],num_4,[2],'num_4',images/min2.png,"[(0.45, 0.79)]",,,,,0,7,7,7,4,3,19,1,,,,,,,,,,,,,"(0.75, -0.04)",images/min4.png,8,0.0630912561901,0.628894921509,[-0.2375 -0.15  ],,,,,,,['num_4'],,,,2018_Jul_09_1222,59.695851283,sequenceLearningTask,001,031,
min1.png,min2.png,min3.png,min4.png,allBlank.png,"['num_7', 'num_4', 'num_1', 'num_0']",['num_4'],num_4,[2],'num_4',images/min2.png,"[(0.45, 0.79)]",,,,,0,7,7,7,4,3,19,1,,,,,,,,,,,,,"(0.75, -0.04)",images/min4.png,8,0.0517353633186,0.639992763172,[ 0.790625   -0.21666667],,,,,,,['num_4'],,,,2018_Jul_09_1222,59.695851283,sequenceLearningTask,001,031,
min1.png,min2.png,min3.png,min4.png,allBlank.png,"['num_7', 'num_4', 'num_1', 'num_0']",['num_4'],num_4,[2],'num_4',images/min2.png,"[(0.45, 0.79)]",,,,,0,7,7,7,4,3,19,1,,,,,,,,,,,,,"(-0.25, -0.04)",images/min2.png,8,0.0505538253346,0.659648139728,[ 0.6859375  -0.26388889],,,,,,,['num_4'],,,,2018_Jul_09_1222,59.695851283,sequenceLearningTask,001,031,
min1.png,min2.png,min3.png,min4.png,allBlank.png,"['num_7', 'num_4', 'num_1', 'num_0']",['num_4'],num_4,[2],'num_4',images/min2.png,"[(0.45, 0.79)]",,,,,0,7,7,7,4,3,19,1,,,,,,,,,,,,,"(0.25, -0.04)",images/min3.png,8,0.0574038738851,0.701586994226,[-0.225      -0.25277778],,,,,,,['num_4'],,,,2018_Jul_09_1222,59.695851283,sequenceLearningTask,001,031,
min1.png,min2.png,min3.png,min4.png,allBlank.png,"['num_7', 'num_4', 'num_1', 'num_0']",['num_4'],num_4,[2],'num_4',images/min2.png,"[(0.45, 0.79)]",,,,,0,7,7,7,4,3,19,1,,,,,,,,,,,,,"(0.75, -0.04)",images/min4.png,8,0.0540529008722,0.624076462002,[ 0.25       -0.20833333],,,,,,,['num_4'],,,,2018_Jul_09_1222,59.695851283,sequenceLearningTask,001,031,
min1.png,min2.png,min3.png,min4.png,allBlank.png,"['num_7', 'num_4', 'num_1', 'num_0']",['num_4'],num_4,[2],'num_4',images/min2.png,"[(0.45, 0.79)]",,,,,0,8,8,8,4,3,19,1,,,,,,,,,,,,,"(-0.75, -0.04)",images/min1.png,9,0.0570760790724,0.783209935063,[ 0.7578125  -0.30833333],,,,,,,['num_4'],,,,2018_Jul_09_1222,59.695851283,sequenceLearningTask,001,031,
min1.png,min2.png,min3.png,min4.png,allBlank.png,"['num_7', 'num_4', 'num_1', 'num_0']",['num_4'],num_4,[2],'num_4',images/min2.png,"[(0.45, 0.79)]",,,,,0,8,8,8,4,3,19,1,,,,,,,,,,,,,"(0.25, -0.04)",images/min3.png,9,0.0604192572646,0.748748820974,[-0.8203125  -0.19166667],,,,,,,['num_4'],,,,2018_Jul_09_1222,59.695851283,sequenceLearningTask,001,031,
min1.png,min2.png,min3.png,min4.png,allBlank.png,"['num_7', 'num_4', 'num_1', 'num_0']",['num_4'],num_4,[2],'num_4',images/min2.png,"[(0.45, 0.79)]",,,,,0,8,8,8,4,3,19,1,,,,,,,,,,,,,"(-0.25, -0.04)",images/min2.png,9,0.060921000666,0.714452630025,[ 0.2609375  -0.27222222],,,,,,,['num_4'],,,,2018_Jul_09_1222,59.695851283,sequenceLearningTask,001,031,
min1.png,min2.png,min3.png,min4.png,allBlank.png,"['num_7', 'num_4', 'num_1', 'num_0']",['num_4'],num_4,[2],'num_4',images/min2.png,"[(0.45, 0.79)]",,,,,0,8,8,8,4,3,19,1,,,,,,,,,,,,,"(0.75, -0.04)",images/min4.png,9,0.0531954653561,0.740317234769,[-0.26875    -0.18611111],,,,,,,['num_4'],,,,2018_Jul_09_1222,59.695851283,sequenceLearningTask,001,031,
min1.png,min2.png,min3.png,min4.png,allBlank.png,"['num_7', 'num_4', 'num_1', 'num_0']",['num_4'],num_4,[2],'num_4',images/min2.png,"[(0.45, 0.79)]",,,,,0,8,8,8,4,3,19,1,,,,,,,,,,,,,"(0.75, -0.04)",images/min4.png,9,0.0579076685244,0.650213476853,[ 0.784375 -0.075   ],,,,,,,['num_4'],,,,2018_Jul_09_1222,59.695851283,sequenceLearningTask,001,031,
min1.png,min2.png,min3.png,min4.png,allBlank.png,"['num_7', 'num_4', 'num_1', 'num_0']",['num_4'],num_4,[2],'num_4',images/min2.png,"[(0.45, 0.79)]",,,,,0,8,8,8,4,3,19,1,,,,,,,,,,,,,"(-0.25, -0.04)",images/min2.png,9,0.0633148459019,0.614409183851,[ 0.7640625  -0.19722222],,,,,,,['num_4'],,,,2018_Jul_09_1222,59.695851283,sequenceLearningTask,001,031,
min1.png,min2.png,min3.png,min4.png,allBlank.png,"['num_7', 'num_4', 'num_1', 'num_0']",['num_4'],num_4,[2],'num_4',images/min2.png,"[(0.45, 0.79)]",,,,,0,8,8,8,4,3,19,1,,,,,,,,,,,,,"(0.25, -0.04)",images/min3.png,9,0.0546465417137,0.585810631514,[-0.196875   -0.11944444],,,,,,,['num_4'],,,,2018_Jul_09_1222,59.695851283,sequenceLearningTask,001,031,
min1.png,min2.png,min3.png,min4.png,allBlank.png,"['num_7', 'num_4', 'num_1', 'num_0']",['num_4'],num_4,[2],'num_4',images/min2.png,"[(0.45, 0.79)]",,,,,0,8,8,8,4,3,19,1,,,,,,,,,,,,,"(0.75, -0.04)",images/min4.png,9,0.042406956898,0.438628332922,[ 0.1984375  -0.21388889],,,,,,,['num_4'],,,,2018_Jul_09_1222,59.695851283,sequenceLearningTask,001,031,
min1.png,min2.png,min3.png,min4.png,allBlank.png,"['num_7', 'num_4', 'num_1', 'num_0']",['num_4'],num_4,[2],'num_4',images/min2.png,"[(0.45, 0.79)]",,,,,0,9,9,9,4,3,19,1,,,,,,,,,,,,,"(-0.75, -0.04)",images/min1.png,10,0.0587966938037,0.663134497125,[ 0.790625   -0.21666667],,,,,,,['num_4'],,,,2018_Jul_09_1222,59.695851283,sequenceLearningTask,001,031,
min1.png,min2.png,min3.png,min4.png,allBlank.png,"['num_7', 'num_4', 'num_1', 'num_0']",['num_4'],num_4,[2],'num_4',images/min2.png,"[(0.45, 0.79)]",,,,,0,9,9,9,4,3,19,1,,,,,,,,,,,,,"(0.25, -0.04)",images/min3.png,10,0.0544397725025,0.536129421089,[-0.71875    -0.01944444],,,,,,,['num_4'],,,,2018_Jul_09_1222,59.695851283,sequenceLearningTask,001,031,
min1.png,min2.png,min3.png,min4.png,allBlank.png,"['num_7', 'num_4', 'num_1', 'num_0']",['num_4'],num_4,[2],'num_4',images/min2.png,"[(0.45, 0.79)]",,,,,0,9,9,9,4,3,19,1,,,,,,,,,,,,,"(-0.25, -0.04)",images/min2.png,10,0.0576332071796,0.702686480945,[ 0.25625    -0.30555556],,,,,,,['num_4'],,,,2018_Jul_09_1222,59.695851283,sequenceLearningTask,001,031,
min1.png,min2.png,min3.png,min4.png,allBlank.png,"['num_7', 'num_4', 'num_1', 'num_0']",['num_4'],num_4,[2],'num_4',images/min2.png,"[(0.45, 0.79)]",,,,,0,9,9,9,4,3,19,1,,,,,,,,,,,,,"(0.75, -0.04)",images/min4.png,10,0.0549817210995,0.637685892289,[-0.2203125  -0.19166667],,,,,,,['num_4'],,,,2018_Jul_09_1222,59.695851283,sequenceLearningTask,001,031,
min1.png,min2.png,min3.png,min4.png,allBlank.png,"['num_7', 'num_4', 'num_1', 'num_0']",['num_4'],num_4,[2],'num_4',images/min2.png,"[(0.45, 0.79)]",,,,,0,9,9,9,4,3,19,1,,,,,,,,,,,,,"(0.75, -0.04)",images/min4.png,10,0.0590137194376,0.597924677772,[ 0.7328125  -0.11111111],,,,,,,['num_4'],,,,2018_Jul_09_1222,59.695851283,sequenceLearningTask,001,031,
min1.png,min2.png,min3.png,min4.png,allBlank.png,"['num_7', 'num_4', 'num_1', 'num_0']",['num_4'],num_4,[2],'num_4',images/min2.png,"[(0.45, 0.79)]",,,,,0,9,9,9,4,3,19,1,,,,,,,,,,,,,"(-0.25, -0.04)",images/min2.png,10,0.0490584414219,0.641161172767,[ 0.709375   -0.18611111],,,,,,,['num_4'],,,,2018_Jul_09_1222,59.695851283,sequenceLearningTask,001,031,
min1.png,min2.png,min3.png,min4.png,allBlank.png,"['num_7', 'num_4', 'num_1', 'num_0']",['num_4'],num_4,[2],'num_4',images/min2.png,"[(0.45, 0.79)]",,,,,0,9,9,9,4,3,19,1,,,,,,,,,,,,,"(0.25, -0.04)",images/min3.png,10,0.0532922857674,0.640025583678,[-0.2484375  -0.19166667],,,,,,,['num_4'],,,,2018_Jul_09_1222,59.695851283,sequenceLearningTask,001,031,
min1.png,min2.png,min3.png,min4.png,allBlank.png,"['num_7', 'num_4', 'num_1', 'num_0']",['num_4'],num_4,[2],'num_4',images/min2.png,"[(0.45, 0.79)]",,,,,0,9,9,9,4,3,19,1,,,,,,,,,,,,,"(0.75, -0.04)",images/min4.png,10,0.0564036691794,0.60165718908,[ 0.2671875  -0.20833333],,,,,,,['num_4'],,,,2018_Jul_09_1222,59.695851283,sequenceLearningTask,001,031,
min1.png,min2.png,min3.png,min4.png,allBlank.png,"['num_7', 'num_4', 'num_1', 'num_0']",['num_4'],num_4,[2],'num_4',images/min2.png,"[(0.45, 0.79)]",,,,,0,9,9,9,4,3,19,1,0,-1,-1,0,,,,,,,,,,,,,,,,,,,,,['num_4'],,,,2018_Jul_09_1222,59.695851283,sequenceLearningTask,001,031,
min1.png,min2.png,min3.png,min4.png,allBlank.png,"['num_7', 'num_4', 'num_1', 'num_0']",['num_4'],num_4,[2],'num_4',images/min2.png,"[(0.45, 0.79)]",,,,,0,9,9,9,4,3,19,1,0,-1,-1,0,,,,,,,,,,,,,,,,,['1'],,,,['num_4'],,,,2018_Jul_09_1222,59.695851283,sequenceLearningTask,001,031,
min1.png,min2.png,min3.png,min4.png,allBlank.png,"['num_7', 'num_4', 'num_1', 'num_0']",['num_4'],num_4,[2],'num_4',images/min2.png,"[(0.45, 0.79)]",,,,,0,9,9,9,4,3,19,1,0,-1,-1,0,,,,,,,,,,,,,,,,,['2'],,,,['num_4'],,,,2018_Jul_09_1222,59.695851283,sequenceLearningTask,001,031,
min1.png,min2.png,min3.png,min4.png,allBlank.png,"['num_7', 'num_4', 'num_1', 'num_0']",['num_4'],num_4,[2],'num_4',images/min2.png,"[(0.45, 0.79)]",,,,,0,9,9,9,4,3,19,1,0,-1,-1,0,,,,,,,,,,,,,,,,,['1'],,,,['num_4'],,,,2018_Jul_09_1222,59.695851283,sequenceLearningTask,001,031,
min1.png,min2.png,min3.png,min4.png,allBlank.png,"['num_7', 'num_4', 'num_1', 'num_0']",['num_4'],num_4,[2],'num_4',images/min2.png,"[(0.45, 0.79)]",,,,,0,9,9,9,4,3,19,1,0,-1,-1,0,,,,,,,,,,,,,,,,,['2'],,,,['num_4'],,,,2018_Jul_09_1222,59.695851283,sequenceLearningTask,001,031,
min1.png,min2.png,min3.png,min4.png,allBlank.png,"['num_7', 'num_4', 'num_1', 'num_0']",['num_4'],num_4,[2],'num_4',images/min2.png,"[(0.45, 0.79)]",0,0,0,0,0,9,9,9,4,3,19,1,0,-1,-1,0,,,,,,,,,,,,,,,,,,return,1.51952019706,,['num_4'],,,,2018_Jul_09_1222,59.695851283,sequenceLearningTask,001,031,
min1.png,min2.png,min3.png,min4.png,allBlank.png,"['num_7', 'num_4', 'num_1', 'num_0']",['num_4'],num_4,[2],'num_4',images/min2.png,"[(0.45, 0.79)]",,,,,0,9,9,9,4,3,19,1,0,-1,-1,0,0,0,0,0,,,,,,,1,,,,,,,,,,['num_4'],0,['4'],7.48590872379,2018_Jul_09_1222,59.695851283,sequenceLearningTask,001,031,
min1.png,min2.png,min3.png,min4.png,allBlank.png,"['num_7', 'num_4', 'num_1', 'num_0']",['num_4'],num_4,[2],'num_4',images/min2.png,"[(0.45, 0.79)]",,,,,0,9,9,9,4,3,19,1,0,-1,-1,0,0,0,0,0,,,,,,,1,,,,,,,,,,['num_4'],1,['2'],9.20947888843,2018_Jul_09_1222,59.695851283,sequenceLearningTask,001,031,
min1.png,min2.png,min3.png,min4.png,allBlank.png,"['num_7', 'num_4', 'num_1', 'num_0']",['num_4'],num_4,[2],'num_4',images/min2.png,"[(0.45, 0.79)]",,,,,0,9,9,9,4,3,19,1,0,-1,-1,0,0,0,0,0,,,,,,,1,,,,,,,,,,['num_4'],0,['3'],5.141078096,2018_Jul_09_1222,59.695851283,sequenceLearningTask,001,031,
min1.png,min2.png,min3.png,min4.png,allBlank.png,"['num_7', 'num_4', 'num_1', 'num_0']",['num_4'],num_4,[2],'num_4',images/min2.png,"[(0.45, 0.79)]",,,,,0,9,9,9,4,3,19,1,0,-1,-1,0,0,0,0,0,,,,,,,1,,,,,,,,,,['num_4'],0,['1'],3.88421789359,2018_Jul_09_1222,59.695851283,sequenceLearningTask,001,031,
