pawPatrol1,pawPatrol2,pawPatrol3,pawPatrol4,blank,randomPaw,correctKeyPress,allowableKey,correctKey,correctKeyPressNum,trials.thisRepN,trials.thisTrialN,trials.thisN,trials.thisIndex,trials_3.thisRepN,trials_3.thisTrialN,trials_3.thisN,trials_3.thisIndex,trials_2.thisRepN,trials_2.thisTrialN,trials_2.thisN,trials_2.thisIndex,trials_questions.thisRepN,trials_questions.thisTrialN,trials_questions.thisN,trials_questions.thisIndex,correctKey,repetitionNumber,stimulusPresent.t,trialCorrect,key_resp_9.keys,key_resp_9.corr,key_resp_9.rt,keyRespCorrect,date,frameRate,expName,session,participant,
min1.png,min2.png,min3.png,min4.png,allBlank.png,,,,['num_7'],,,,,,0,0,0,0,,,,,,,,,['num_7'],1,0.116446406748,1,['num_7'],0,[1.2702897519156977],,2018_Apr_03_1715,60.114062628,sequenceLearningTask,001,059,
min1.png,min2.png,min3.png,min4.png,allBlank.png,,,,['num_1'],,,,,,0,0,0,0,,,,,,,,,['num_1'],1,0.0556578689866,1,['num_1'],0,[1.9891175339944311],,2018_Apr_03_1715,60.114062628,sequenceLearningTask,001,059,
min1.png,min2.png,min3.png,min4.png,allBlank.png,,,,['num_4'],,,,,,0,0,0,0,,,,,,,,,['num_4'],1,0.0548275096735,1,['num_4'],0,[1.1065264026765362],,2018_Apr_03_1715,60.114062628,sequenceLearningTask,001,059,
min1.png,min2.png,min3.png,min4.png,allBlank.png,,,,['num_0'],,,,,,0,0,0,0,,,,,,,,,['num_0'],1,0.0546026890697,1,['num_0'],0,[1.4058647818928875],,2018_Apr_03_1715,60.114062628,sequenceLearningTask,001,059,
min1.png,min2.png,min3.png,min4.png,allBlank.png,,,,['num_0'],,,,,,0,0,0,0,,,,,,,,,['num_0'],1,0.0597866911958,1,['num_0'],0,[0.9331495110345713],,2018_Apr_03_1715,60.114062628,sequenceLearningTask,001,059,
min1.png,min2.png,min3.png,min4.png,allBlank.png,,,,['num_4'],,,,,,0,0,0,0,,,,,,,,,['num_4'],1,0.0617793073943,1,['num_4'],0,[1.4319821259414311],,2018_Apr_03_1715,60.114062628,sequenceLearningTask,001,059,
min1.png,min2.png,min3.png,min4.png,allBlank.png,,,,['num_1'],,,,,,0,0,0,0,,,,,,,,,['num_1'],1,0.0553821765679,1,['num_1'],0,[1.456186443563638],,2018_Apr_03_1715,60.114062628,sequenceLearningTask,001,059,
min1.png,min2.png,min3.png,min4.png,allBlank.png,,,,['num_0'],,,,,,0,0,0,0,,,,,,,,,['num_0'],1,0.0587749984697,1,['num_0'],0,[1.0185427768374211],,2018_Apr_03_1715,60.114062628,sequenceLearningTask,001,059,
min1.png,min2.png,min3.png,min4.png,allBlank.png,,,,['num_7'],,,,,,0,1,1,1,,,,,,,,,['num_7'],2,0.0550141764143,1,['num_7'],0,[1.3042032017256133],,2018_Apr_03_1715,60.114062628,sequenceLearningTask,001,059,
min1.png,min2.png,min3.png,min4.png,allBlank.png,,,,['num_1'],,,,,,0,1,1,1,,,,,,,,,['num_1'],2,0.0559393049989,1,['num_1'],0,[1.221145526622422],,2018_Apr_03_1715,60.114062628,sequenceLearningTask,001,059,
min1.png,min2.png,min3.png,min4.png,allBlank.png,,,,['num_4'],,,,,,0,1,1,1,,,,,,,,,['num_4'],2,0.0505181745721,1,['num_4'],0,[1.3611418917535048],,2018_Apr_03_1715,60.114062628,sequenceLearningTask,001,059,
min1.png,min2.png,min3.png,min4.png,allBlank.png,,,,['num_0'],,,,,,0,1,1,1,,,,,,,,,['num_0'],2,0.06049930687,1,['num_0'],0,[0.9675257302660611],,2018_Apr_03_1715,60.114062628,sequenceLearningTask,001,059,
min1.png,min2.png,min3.png,min4.png,allBlank.png,,,,['num_0'],,,,,,0,1,1,1,,,,,,,,,['num_0'],2,0.0583553059914,1,['num_0'],0,[1.5861688558652531],,2018_Apr_03_1715,60.114062628,sequenceLearningTask,001,059,
min1.png,min2.png,min3.png,min4.png,allBlank.png,,,,['num_4'],,,,,,0,1,1,1,,,,,,,,,['num_4'],2,0.0608837172877,1,['num_4'],0,[1.5170558018689917],,2018_Apr_03_1715,60.114062628,sequenceLearningTask,001,059,
min1.png,min2.png,min3.png,min4.png,allBlank.png,,,,['num_1'],,,,,,0,1,1,1,,,,,,,,,['num_1'],2,0.0540439196084,1,['num_1'],0,[1.9402563857474888],,2018_Apr_03_1715,60.114062628,sequenceLearningTask,001,059,
min1.png,min2.png,min3.png,min4.png,allBlank.png,,,,['num_0'],,,,,,0,1,1,1,,,,,,,,,['num_0'],2,0.0525764318263,1,['num_0'],0,[1.6422796481165278],,2018_Apr_03_1715,60.114062628,sequenceLearningTask,001,059,
min1.png,min2.png,min3.png,min4.png,allBlank.png,,,,['num_7'],,,,,,0,2,2,2,,,,,,,,,['num_7'],3,0.0515758160291,1,['num_7'],0,[4.591139114312682],,2018_Apr_03_1715,60.114062628,sequenceLearningTask,001,059,
min1.png,min2.png,min3.png,min4.png,allBlank.png,,,,['num_1'],,,,,,0,2,2,2,,,,,,,,,['num_1'],3,0.0542625863636,1,['num_1'],0,[2.490508508926723],,2018_Apr_03_1715,60.114062628,sequenceLearningTask,001,059,
min1.png,min2.png,min3.png,min4.png,allBlank.png,,,,['num_4'],,,,,,0,2,2,2,,,,,,,,,['num_4'],3,0.0436689409944,1,['num_4'],0,[3.468173320274218],,2018_Apr_03_1715,60.114062628,sequenceLearningTask,001,059,
min1.png,min2.png,min3.png,min4.png,allBlank.png,,,,['num_0'],,,,,,0,2,2,2,,,,,,,,,['num_0'],3,0.0595540757131,1,['num_0'],0,[1.3347652655465936],,2018_Apr_03_1715,60.114062628,sequenceLearningTask,001,059,
min1.png,min2.png,min3.png,min4.png,allBlank.png,,,,['num_0'],,,,,,0,2,2,2,,,,,,,,,['num_0'],3,0.0553358175748,1,['num_0'],0,[0.8225787990049866],,2018_Apr_03_1715,60.114062628,sequenceLearningTask,001,059,
min1.png,min2.png,min3.png,min4.png,allBlank.png,,,,['num_4'],,,,,,0,2,2,2,,,,,,,,,['num_4'],3,0.0569317156624,1,['num_4'],0,[1.6211358445652877],,2018_Apr_03_1715,60.114062628,sequenceLearningTask,001,059,
min1.png,min2.png,min3.png,min4.png,allBlank.png,,,,['num_1'],,,,,,0,2,2,2,,,,,,,,,['num_1'],3,0.0534108937063,1,['num_1'],0,[1.2242158868575643],,2018_Apr_03_1715,60.114062628,sequenceLearningTask,001,059,
min1.png,min2.png,min3.png,min4.png,allBlank.png,,,,['num_0'],,,,,,0,2,2,2,,,,,,,,,['num_0'],3,0.0522519188744,1,['num_0'],0,[1.0762063902402588],,2018_Apr_03_1715,60.114062628,sequenceLearningTask,001,059,
min1.png,min2.png,min3.png,min4.png,allBlank.png,,,,['num_7'],,,,,,0,3,3,3,,,,,,,,,['num_7'],4,0.0581608443754,1,['num_7'],0,[1.0178084175604454],,2018_Apr_03_1715,60.114062628,sequenceLearningTask,001,059,
min1.png,min2.png,min3.png,min4.png,allBlank.png,,,,['num_1'],,,,,,0,3,3,3,,,,,,,,,['num_1'],4,0.0535384835021,1,['num_1'],0,[1.757642567237781],,2018_Apr_03_1715,60.114062628,sequenceLearningTask,001,059,
min1.png,min2.png,min3.png,min4.png,allBlank.png,,,,['num_4'],,,,,,0,3,3,3,,,,,,,,,['num_4'],4,0.0553288432129,1,['num_4'],0,[1.1223393322397897],,2018_Apr_03_1715,60.114062628,sequenceLearningTask,001,059,
min1.png,min2.png,min3.png,min4.png,allBlank.png,,,,['num_0'],,,,,,0,3,3,3,,,,,,,,,['num_0'],4,0.0594375628461,1,['num_0'],0,[1.4017810879122408],,2018_Apr_03_1715,60.114062628,sequenceLearningTask,001,059,
min1.png,min2.png,min3.png,min4.png,allBlank.png,,,,['num_0'],,,,,,0,3,3,3,,,,,,,,,['num_0'],4,0.0485809430102,1,['num_0'],0,[1.4792715812400274],,2018_Apr_03_1715,60.114062628,sequenceLearningTask,001,059,
min1.png,min2.png,min3.png,min4.png,allBlank.png,,,,['num_4'],,,,,,0,3,3,3,,,,,,,,,['num_4'],4,0.0528750986159,1,['num_4'],0,[2.0757382874835457],,2018_Apr_03_1715,60.114062628,sequenceLearningTask,001,059,
min1.png,min2.png,min3.png,min4.png,allBlank.png,,,,['num_1'],,,,,,0,3,3,3,,,,,,,,,['num_1'],4,0.0538416631134,1,['num_1'],0,[1.2076915723846469],,2018_Apr_03_1715,60.114062628,sequenceLearningTask,001,059,
min1.png,min2.png,min3.png,min4.png,allBlank.png,,,,['num_0'],,,,,,0,3,3,3,,,,,,,,,['num_0'],4,0.0526305856947,1,['num_0'],0,[0.875126102615468],,2018_Apr_03_1715,60.114062628,sequenceLearningTask,001,059,
min1.png,min2.png,min3.png,min4.png,allBlank.png,,,,['num_7'],,,,,,0,4,4,4,,,,,,,,,['num_7'],5,0.0518691494872,1,['num_7'],0,[1.558807613870158],,2018_Apr_03_1715,60.114062628,sequenceLearningTask,001,059,
min1.png,min2.png,min3.png,min4.png,allBlank.png,,,,['num_1'],,,,,,0,4,4,4,,,,,,,,,['num_1'],5,0.0385042209273,1,['num_1'],0,[1.1407598526202491],,2018_Apr_03_1715,60.114062628,sequenceLearningTask,001,059,
min1.png,min2.png,min3.png,min4.png,allBlank.png,,,,['num_4'],,,,,,0,4,4,4,,,,,,,,,['num_4'],5,0.0582671008269,1,['num_4'],0,[1.5519731495296583],,2018_Apr_03_1715,60.114062628,sequenceLearningTask,001,059,
min1.png,min2.png,min3.png,min4.png,allBlank.png,,,,['num_0'],,,,,,0,4,4,4,,,,,,,,,['num_0'],5,0.0530777653657,1,['num_0'],0,[1.2405892269089236],,2018_Apr_03_1715,60.114062628,sequenceLearningTask,001,059,
min1.png,min2.png,min3.png,min4.png,allBlank.png,,,,['num_0'],,,,,,0,4,4,4,,,,,,,,,['num_0'],5,0.051898277703,1,['num_0'],0,[1.5762106979309465],,2018_Apr_03_1715,60.114062628,sequenceLearningTask,001,059,
min1.png,min2.png,min3.png,min4.png,allBlank.png,,,,['num_4'],,,,,,0,4,4,4,,,,,,,,,['num_4'],5,0.0525985856802,1,['num_4'],0,[1.0751196205601445],,2018_Apr_03_1715,60.114062628,sequenceLearningTask,001,059,
min1.png,min2.png,min3.png,min4.png,allBlank.png,,,,['num_1'],,,,,,0,4,4,4,,,,,,,,,['num_1'],5,0.0570051515897,1,['num_1'],0,[4.070807003408845],,2018_Apr_03_1715,60.114062628,sequenceLearningTask,001,059,
min1.png,min2.png,min3.png,min4.png,allBlank.png,,,,['num_0'],,,,,,0,4,4,4,,,,,,,,,['num_0'],5,0.0583807418989,1,['num_0'],0,[0.8687031256231421],,2018_Apr_03_1715,60.114062628,sequenceLearningTask,001,059,
min1.png,min2.png,min3.png,min4.png,allBlank.png,,,,['num_7'],,,,,,0,5,5,5,,,,,,,,,['num_7'],6,0.0545452531478,1,['num_7'],0,[0.9226046861986106],,2018_Apr_03_1715,60.114062628,sequenceLearningTask,001,059,
min1.png,min2.png,min3.png,min4.png,allBlank.png,,,,['num_1'],,,,,,0,5,5,5,,,,,,,,,['num_1'],6,0.064074692953,1,['num_1'],0,[1.3619263023283565],,2018_Apr_03_1715,60.114062628,sequenceLearningTask,001,059,
min1.png,min2.png,min3.png,min4.png,allBlank.png,,,,['num_4'],,,,,,0,5,5,5,,,,,,,,,['num_4'],6,0.0577518185637,1,['num_4'],0,[1.0039405144343618],,2018_Apr_03_1715,60.114062628,sequenceLearningTask,001,059,
min1.png,min2.png,min3.png,min4.png,allBlank.png,,,,['num_0'],,,,,,0,5,5,5,,,,,,,,,['num_0'],6,0.056153458936,1,['num_0'],0,[2.2559004126778746],,2018_Apr_03_1715,60.114062628,sequenceLearningTask,001,059,
min1.png,min2.png,min3.png,min4.png,allBlank.png,,,,['num_0'],,,,,,0,5,5,5,,,,,,,,,['num_0'],6,0.0545066890299,1,['num_0'],0,[0.5400207343664079],,2018_Apr_03_1715,60.114062628,sequenceLearningTask,001,059,
min1.png,min2.png,min3.png,min4.png,allBlank.png,,,,['num_4'],,,,,,0,5,5,5,,,,,,,,,['num_4'],6,0.0592135627558,1,['num_4'],0,[2.669697505516524],,2018_Apr_03_1715,60.114062628,sequenceLearningTask,001,059,
min1.png,min2.png,min3.png,min4.png,allBlank.png,,,,['num_1'],,,,,,0,5,5,5,,,,,,,,,['num_1'],6,0.0578162288475,1,['num_1'],0,[1.1037694784681662],,2018_Apr_03_1715,60.114062628,sequenceLearningTask,001,059,
min1.png,min2.png,min3.png,min4.png,allBlank.png,,,,['num_0'],,,,,,0,5,5,5,,,,,,,,,['num_0'],6,0.0542018683918,1,['num_0'],0,[2.440675462843501],,2018_Apr_03_1715,60.114062628,sequenceLearningTask,001,059,
min1.png,min2.png,min3.png,min4.png,allBlank.png,,,,['num_7'],,,,,,0,6,6,6,,,,,,,,,['num_7'],7,0.0535996117324,1,['num_7'],0,[1.2390039954880194],,2018_Apr_03_1715,60.114062628,sequenceLearningTask,001,059,
min1.png,min2.png,min3.png,min4.png,allBlank.png,,,,['num_1'],,,,,,0,6,6,6,,,,,,,,,['num_1'],7,0.051986072609,1,['num_1'],0,[1.1429132894008944],,2018_Apr_03_1715,60.114062628,sequenceLearningTask,001,059,
min1.png,min2.png,min3.png,min4.png,allBlank.png,,,,['num_4'],,,,,,0,6,6,6,,,,,,,,,['num_4'],7,0.0530876115226,1,['num_4'],0,[1.1738170969510975],,2018_Apr_03_1715,60.114062628,sequenceLearningTask,001,059,
min1.png,min2.png,min3.png,min4.png,allBlank.png,,,,['num_0'],,,,,,0,6,6,6,,,,,,,,,['num_0'],7,0.0564238180195,1,['num_0'],0,[1.2542737453404698],,2018_Apr_03_1715,60.114062628,sequenceLearningTask,001,059,
min1.png,min2.png,min3.png,min4.png,allBlank.png,,,,['num_0'],,,,,,0,6,6,6,,,,,,,,,['num_0'],7,0.0568960233395,1,['num_0'],0,[1.0218674961506622],,2018_Apr_03_1715,60.114062628,sequenceLearningTask,001,059,
min1.png,min2.png,min3.png,min4.png,allBlank.png,,,,['num_4'],,,,,,0,6,6,6,,,,,,,,,['num_4'],7,0.0578843314397,1,['num_4'],0,[1.1517723699580529],,2018_Apr_03_1715,60.114062628,sequenceLearningTask,001,059,
min1.png,min2.png,min3.png,min4.png,allBlank.png,,,,['num_1'],,,,,,0,6,6,6,,,,,,,,,['num_1'],7,0.0544266889956,1,['num_1'],0,[2.090465267883701],,2018_Apr_03_1715,60.114062628,sequenceLearningTask,001,059,
min1.png,min2.png,min3.png,min4.png,allBlank.png,,,,['num_0'],,,,,,0,6,6,6,,,,,,,,,['num_0'],7,0.0605485376618,1,['num_0'],0,[1.033647193293291],,2018_Apr_03_1715,60.114062628,sequenceLearningTask,001,059,
min1.png,min2.png,min3.png,min4.png,allBlank.png,,,,['num_7'],,,,,,0,7,7,7,,,,,,,,,['num_7'],8,0.0535561245342,1,['num_7'],0,[0.8402530626663065],,2018_Apr_03_1715,60.114062628,sequenceLearningTask,001,059,
min1.png,min2.png,min3.png,min4.png,allBlank.png,,,,['num_1'],,,,,,0,7,7,7,,,,,,,,,['num_1'],8,0.0537263810147,1,['num_1'],0,[1.2901794011013408],,2018_Apr_03_1715,60.114062628,sequenceLearningTask,001,059,
min1.png,min2.png,min3.png,min4.png,allBlank.png,,,,['num_4'],,,,,,0,7,7,7,,,,,,,,,['num_4'],8,0.0511713030464,1,['num_4'],0,[1.7099658297302085],,2018_Apr_03_1715,60.114062628,sequenceLearningTask,001,059,
min1.png,min2.png,min3.png,min4.png,allBlank.png,,,,['num_0'],,,,,,0,7,7,7,,,,,,,,,['num_0'],8,0.054219509424,1,['num_0'],0,[0.9740012201000354],,2018_Apr_03_1715,60.114062628,sequenceLearningTask,001,059,
min1.png,min2.png,min3.png,min4.png,allBlank.png,,,,['num_0'],,,,,,0,7,7,7,,,,,,,,,['num_0'],8,0.0520956111177,1,['num_0'],0,[1.0254227796613122],,2018_Apr_03_1715,60.114062628,sequenceLearningTask,001,059,
min1.png,min2.png,min3.png,min4.png,allBlank.png,,,,['num_4'],,,,,,0,7,7,7,,,,,,,,,['num_4'],8,0.0559868947639,1,['num_4'],0,[1.2883324259819346],,2018_Apr_03_1715,60.114062628,sequenceLearningTask,001,059,
min1.png,min2.png,min3.png,min4.png,allBlank.png,,,,['num_1'],,,,,,0,7,7,7,,,,,,,,,['num_1'],8,0.0544681249085,1,['num_1'],0,[1.0057238997833338],,2018_Apr_03_1715,60.114062628,sequenceLearningTask,001,059,
min1.png,min2.png,min3.png,min4.png,allBlank.png,,,,['num_0'],,,,,,0,7,7,7,,,,,,,,,['num_0'],8,0.0624513076727,1,['num_0'],0,[1.0985497840192693],,2018_Apr_03_1715,60.114062628,sequenceLearningTask,001,059,
min1.png,min2.png,min3.png,min4.png,allBlank.png,,,,['num_7'],,,,,,0,8,8,8,,,,,,,,,['num_7'],9,0.0590469985837,1,['num_7'],0,[1.050573969467223],,2018_Apr_03_1715,60.114062628,sequenceLearningTask,001,059,
min1.png,min2.png,min3.png,min4.png,allBlank.png,,,,['num_1'],,,,,,0,8,8,8,,,,,,,,,['num_1'],9,0.055280843193,1,['num_1'],0,[2.7079514699289575],,2018_Apr_03_1715,60.114062628,sequenceLearningTask,001,059,
min1.png,min2.png,min3.png,min4.png,allBlank.png,,,,['num_4'],,,,,,0,8,8,8,,,,,,,,,['num_4'],9,0.0589251523779,1,['num_4'],0,[1.1023471189146221],,2018_Apr_03_1715,60.114062628,sequenceLearningTask,001,059,
min1.png,min2.png,min3.png,min4.png,allBlank.png,,,,['num_0'],,,,,,0,8,8,8,,,,,,,,,['num_0'],9,0.047091711629,1,['num_0'],0,[0.8882502105625463],,2018_Apr_03_1715,60.114062628,sequenceLearningTask,001,059,
min1.png,min2.png,min3.png,min4.png,allBlank.png,,,,['num_0'],,,,,,0,8,8,8,,,,,,,,,['num_0'],9,0.05966484499,1,['num_0'],0,[0.7676109815838572],,2018_Apr_03_1715,60.114062628,sequenceLearningTask,001,059,
min1.png,min2.png,min3.png,min4.png,allBlank.png,,,,['num_4'],,,,,,0,8,8,8,,,,,,,,,['num_4'],9,0.0575934595254,1,['num_4'],0,[1.1205411776609253],,2018_Apr_03_1715,60.114062628,sequenceLearningTask,001,059,
min1.png,min2.png,min3.png,min4.png,allBlank.png,,,,['num_1'],,,,,,0,8,8,8,,,,,,,,,['num_1'],9,0.0577153057275,1,['num_1'],0,[1.487875071950839],,2018_Apr_03_1715,60.114062628,sequenceLearningTask,001,059,
min1.png,min2.png,min3.png,min4.png,allBlank.png,,,,['num_0'],,,,,,0,8,8,8,,,,,,,,,['num_0'],9,0.0557251510691,1,['num_0'],0,[0.7878423744987231],,2018_Apr_03_1715,60.114062628,sequenceLearningTask,001,059,
min1.png,min2.png,min3.png,min4.png,allBlank.png,,,,['num_7'],,,,,,0,9,9,9,,,,,,,,,['num_7'],10,0.0550913046536,1,['num_7'],0,[0.9372434614342637],,2018_Apr_03_1715,60.114062628,sequenceLearningTask,001,059,
min1.png,min2.png,min3.png,min4.png,allBlank.png,,,,['num_1'],,,,,,0,9,9,9,,,,,,,,,['num_1'],10,0.0517116109586,1,['num_1'],0,[1.29303150483247],,2018_Apr_03_1715,60.114062628,sequenceLearningTask,001,059,
min1.png,min2.png,min3.png,min4.png,allBlank.png,,,,['num_4'],,,,,,0,9,9,9,,,,,,,,,['num_4'],10,0.0571918183377,1,['num_4'],0,[1.1222211783497187],,2018_Apr_03_1715,60.114062628,sequenceLearningTask,001,059,
min1.png,min2.png,min3.png,min4.png,allBlank.png,,,,['num_0'],,,,,,0,9,9,9,,,,,,,,,['num_0'],10,0.0607996146864,1,['num_0'],0,[0.7670661608499358],,2018_Apr_03_1715,60.114062628,sequenceLearningTask,001,059,
min1.png,min2.png,min3.png,min4.png,allBlank.png,,,,['num_0'],,,,,,0,9,9,9,,,,,,,,,['num_0'],10,0.0504250463309,1,['num_0'],0,[1.0617464868701063],,2018_Apr_03_1715,60.114062628,sequenceLearningTask,001,059,
min1.png,min2.png,min3.png,min4.png,allBlank.png,,,,['num_4'],,,,,,0,9,9,9,,,,,,,,,['num_4'],10,0.0536952015136,1,['num_4'],0,[1.0235335481156653],,2018_Apr_03_1715,60.114062628,sequenceLearningTask,001,059,
min1.png,min2.png,min3.png,min4.png,allBlank.png,,,,['num_1'],,,,,,0,9,9,9,,,,,,,,,['num_1'],10,0.0545034069728,1,['num_1'],0,[0.7063371102922247],,2018_Apr_03_1715,60.114062628,sequenceLearningTask,001,059,
min1.png,min2.png,min3.png,min4.png,allBlank.png,,,,['num_0'],,,,,,0,9,9,9,,,,,,,,,['num_0'],10,0.0522178675747,1,['num_0'],0,[0.4416756683785934],,2018_Apr_03_1715,60.114062628,sequenceLearningTask,001,059,
min1.png,min2.png,min3.png,min4.png,allBlank.png,,,,['num_7'],,,,,,0,0,0,0,,,,,,,,,['num_7'],1,0.0559286383323,1,['num_7'],0,[1.1704439673630986],,2018_Apr_03_1715,60.114062628,sequenceLearningTask,001,059,
min1.png,min2.png,min3.png,min4.png,allBlank.png,,,,['num_1'],,,,,,0,0,0,0,,,,,,,,,['num_1'],1,0.0504508924932,1,['num_1'],0,[0.7784097552466847],,2018_Apr_03_1715,60.114062628,sequenceLearningTask,001,059,
min1.png,min2.png,min3.png,min4.png,allBlank.png,,,,['num_4'],,,,,,0,0,0,0,,,,,,,,,['num_4'],1,0.0524668933176,1,['num_4'],0,[0.8422321404032118],,2018_Apr_03_1715,60.114062628,sequenceLearningTask,001,059,
min1.png,min2.png,min3.png,min4.png,allBlank.png,,,,['num_0'],,,,,,0,0,0,0,,,,,,,,,['num_0'],1,0.055944638334,1,['num_0'],0,[0.5715448498631304],,2018_Apr_03_1715,60.114062628,sequenceLearningTask,001,059,
min1.png,min2.png,min3.png,min4.png,allBlank.png,,,,['num_0'],,,,,,0,0,0,0,,,,,,,,,['num_0'],1,0.0605514094568,1,['num_0'],0,[0.6829274596639152],,2018_Apr_03_1715,60.114062628,sequenceLearningTask,001,059,
min1.png,min2.png,min3.png,min4.png,allBlank.png,,,,['num_4'],,,,,,0,0,0,0,,,,,,,,,['num_4'],1,0.0524722266564,1,['num_4'],0,[0.9761747594566259],,2018_Apr_03_1715,60.114062628,sequenceLearningTask,001,059,
min1.png,min2.png,min3.png,min4.png,allBlank.png,,,,['num_1'],,,,,,0,0,0,0,,,,,,,,,['num_1'],1,0.0531548936015,0,"['num_1', 'num_0', 'num_1']",0,"[0.8756323592315312, 2.674632071644737]",,2018_Apr_03_1715,60.114062628,sequenceLearningTask,001,059,
min1.png,min2.png,min3.png,min4.png,allBlank.png,,,,['num_0'],,,,,,0,0,0,0,,,,,,,,,['num_0'],1,0.0548303814685,1,['num_0'],0,[0.5231148812745232],,2018_Apr_03_1715,60.114062628,sequenceLearningTask,001,059,
min1.png,min2.png,min3.png,min4.png,allBlank.png,,,,['num_7'],,,,,,0,1,1,1,,,,,,,,,['num_7'],2,0.0484385839773,1,['num_7'],0,[1.0786859809995804],,2018_Apr_03_1715,60.114062628,sequenceLearningTask,001,059,
min1.png,min2.png,min3.png,min4.png,allBlank.png,,,,['num_1'],,,,,,0,1,1,1,,,,,,,,,['num_1'],2,0.0546970480791,1,['num_1'],0,[1.190222847271798],,2018_Apr_03_1715,60.114062628,sequenceLearningTask,001,059,
min1.png,min2.png,min3.png,min4.png,allBlank.png,,,,['num_4'],,,,,,0,1,1,1,,,,,,,,,['num_4'],2,0.0542273042956,1,['num_4'],0,[1.341466396497708],,2018_Apr_03_1715,60.114062628,sequenceLearningTask,001,059,
min1.png,min2.png,min3.png,min4.png,allBlank.png,,,,['num_0'],,,,,,0,1,1,1,,,,,,,,,['num_0'],2,0.0526781754561,1,['num_0'],0,[1.359109890916443],,2018_Apr_03_1715,60.114062628,sequenceLearningTask,001,059,
min1.png,min2.png,min3.png,min4.png,allBlank.png,,,,['num_0'],,,,,,0,1,1,1,,,,,,,,,['num_0'],2,0.0481916095159,1,['num_0'],0,[1.047294378375227],,2018_Apr_03_1715,60.114062628,sequenceLearningTask,001,059,
min1.png,min2.png,min3.png,min4.png,allBlank.png,,,,['num_4'],,,,,,0,1,1,1,,,,,,,,,['num_4'],2,0.0648988984176,1,['num_4'],0,[0.9780500422748446],,2018_Apr_03_1715,60.114062628,sequenceLearningTask,001,059,
min1.png,min2.png,min3.png,min4.png,allBlank.png,,,,['num_1'],,,,,,0,1,1,1,,,,,,,,,['num_1'],2,0.0512439184567,1,['num_1'],0,[0.9604393683839589],,2018_Apr_03_1715,60.114062628,sequenceLearningTask,001,059,
min1.png,min2.png,min3.png,min4.png,allBlank.png,,,,['num_0'],,,,,,0,1,1,1,,,,,,,,,['num_0'],2,0.0552156123958,1,['num_0'],0,[0.9893152776676288],,2018_Apr_03_1715,60.114062628,sequenceLearningTask,001,059,
min1.png,min2.png,min3.png,min4.png,allBlank.png,,,,['num_7'],,,,,,0,2,2,2,,,,,,,,,['num_7'],3,0.0577805365247,1,['num_7'],0,[1.3520157341627055],,2018_Apr_03_1715,60.114062628,sequenceLearningTask,001,059,
min1.png,min2.png,min3.png,min4.png,allBlank.png,,,,['num_1'],,,,,,0,2,2,2,,,,,,,,,['num_1'],3,0.0636472055994,1,['num_1'],0,[1.6134743029651872],,2018_Apr_03_1715,60.114062628,sequenceLearningTask,001,059,
min1.png,min2.png,min3.png,min4.png,allBlank.png,,,,['num_4'],,,,,,0,2,2,2,,,,,,,,,['num_4'],3,0.0535187911846,1,['num_4'],0,[1.074941569208022],,2018_Apr_03_1715,60.114062628,sequenceLearningTask,001,059,
min1.png,min2.png,min3.png,min4.png,allBlank.png,,,,['num_0'],,,,,,0,2,2,2,,,,,,,,,['num_0'],3,0.0575569466891,1,['num_0'],0,[1.1369374920795963],,2018_Apr_03_1715,60.114062628,sequenceLearningTask,001,059,
min1.png,min2.png,min3.png,min4.png,allBlank.png,,,,['num_0'],,,,,,0,2,2,2,,,,,,,,,['num_0'],3,0.0537325348632,1,['num_0'],0,[4.941502745230537],,2018_Apr_03_1715,60.114062628,sequenceLearningTask,001,059,
min1.png,min2.png,min3.png,min4.png,allBlank.png,,,,['num_4'],,,,,,0,2,2,2,,,,,,,,,['num_4'],3,0.0455622751033,1,['num_4'],0,[1.0491926355643955],,2018_Apr_03_1715,60.114062628,sequenceLearningTask,001,059,
min1.png,min2.png,min3.png,min4.png,allBlank.png,,,,['num_1'],,,,,,0,2,2,2,,,,,,,,,['num_1'],3,0.054509560825,1,['num_1'],0,[1.1896345393361116],,2018_Apr_03_1715,60.114062628,sequenceLearningTask,001,059,
min1.png,min2.png,min3.png,min4.png,allBlank.png,,,,['num_0'],,,,,,0,2,2,2,,,,,,,,,['num_0'],3,0.0604250504293,1,['num_0'],0,[0.8185127460565127],,2018_Apr_03_1715,60.114062628,sequenceLearningTask,001,059,
min1.png,min2.png,min3.png,min4.png,allBlank.png,,,,['num_7'],,,,,,0,3,3,3,,,,,,,,,['num_7'],4,0.0567643309805,1,['num_7'],0,[1.3031750987393025],,2018_Apr_03_1715,60.114062628,sequenceLearningTask,001,059,
min1.png,min2.png,min3.png,min4.png,allBlank.png,,,,['num_1'],,,,,,0,3,3,3,,,,,,,,,['num_1'],4,0.0552529457455,1,['num_1'],0,[1.2893498622979678],,2018_Apr_03_1715,60.114062628,sequenceLearningTask,001,059,
min1.png,min2.png,min3.png,min4.png,allBlank.png,,,,['num_4'],,,,,,0,3,3,3,,,,,,,,,['num_4'],4,0.0554293560745,1,['num_4'],0,[1.456391571853601],,2018_Apr_03_1715,60.114062628,sequenceLearningTask,001,059,
min1.png,min2.png,min3.png,min4.png,allBlank.png,,,,['num_0'],,,,,,0,3,3,3,,,,,,,,,['num_0'],4,0.0514904826632,1,['num_0'],0,[3.209550855201087],,2018_Apr_03_1715,60.114062628,sequenceLearningTask,001,059,
min1.png,min2.png,min3.png,min4.png,allBlank.png,,,,['num_0'],,,,,,0,3,3,3,,,,,,,,,['num_0'],4,0.0562375615336,1,['num_0'],0,[0.8393587033242511],,2018_Apr_03_1715,60.114062628,sequenceLearningTask,001,059,
min1.png,min2.png,min3.png,min4.png,allBlank.png,,,,['num_4'],,,,,,0,3,3,3,,,,,,,,,['num_4'],4,0.0507220720901,1,['num_4'],0,[2.277314165050484],,2018_Apr_03_1715,60.114062628,sequenceLearningTask,001,059,
min1.png,min2.png,min3.png,min4.png,allBlank.png,,,,['num_1'],,,,,,0,3,3,3,,,,,,,,,['num_1'],4,0.0531401243679,1,['num_1'],0,[0.857750095485244],,2018_Apr_03_1715,60.114062628,sequenceLearningTask,001,059,
min1.png,min2.png,min3.png,min4.png,allBlank.png,,,,['num_0'],,,,,,0,3,3,3,,,,,,,,,['num_0'],4,0.0513390979868,1,['num_0'],0,[0.6937192589612096],,2018_Apr_03_1715,60.114062628,sequenceLearningTask,001,059,
min1.png,min2.png,min3.png,min4.png,allBlank.png,,,,['num_7'],,,,,,0,4,4,4,,,,,,,,,['num_7'],5,0.0549226891999,1,['num_7'],0,[0.8373349076246086],,2018_Apr_03_1715,60.114062628,sequenceLearningTask,001,059,
min1.png,min2.png,min3.png,min4.png,allBlank.png,,,,['num_1'],,,,,,0,4,4,4,,,,,,,,,['num_1'],5,0.0514035082706,1,['num_1'],0,[1.1093830192330643],,2018_Apr_03_1715,60.114062628,sequenceLearningTask,001,059,
min1.png,min2.png,min3.png,min4.png,allBlank.png,,,,['num_4'],,,,,,0,4,4,4,,,,,,,,,['num_4'],5,0.0603626914308,1,['num_4'],0,[0.9169895044069563],,2018_Apr_03_1715,60.114062628,sequenceLearningTask,001,059,
min1.png,min2.png,min3.png,min4.png,allBlank.png,,,,['num_0'],,,,,,0,4,4,4,,,,,,,,,['num_0'],5,0.0559901768138,1,['num_0'],0,[0.9048077558181831],,2018_Apr_03_1715,60.114062628,sequenceLearningTask,001,059,
min1.png,min2.png,min3.png,min4.png,allBlank.png,,,,['num_0'],,,,,,0,4,4,4,,,,,,,,,['num_0'],5,0.0556152023055,1,['num_0'],0,[0.4893462520412868],,2018_Apr_03_1715,60.114062628,sequenceLearningTask,001,059,
min1.png,min2.png,min3.png,min4.png,allBlank.png,,,,['num_4'],,,,,,0,4,4,4,,,,,,,,,['num_4'],5,0.0577259724014,1,['num_4'],0,[1.5528121242314228],,2018_Apr_03_1715,60.114062628,sequenceLearningTask,001,059,
min1.png,min2.png,min3.png,min4.png,allBlank.png,,,,['num_1'],,,,,,0,4,4,4,,,,,,,,,['num_1'],5,0.0545735608503,1,['num_1'],0,[1.0072209260397358],,2018_Apr_03_1715,60.114062628,sequenceLearningTask,001,059,
min1.png,min2.png,min3.png,min4.png,allBlank.png,,,,['num_0'],,,,,,0,4,4,4,,,,,,,,,['num_0'],5,0.0578744852828,1,['num_0'],0,[0.5863780867184687],,2018_Apr_03_1715,60.114062628,sequenceLearningTask,001,059,
min1.png,min2.png,min3.png,min4.png,allBlank.png,,,,['num_7'],,,,,,0,5,5,5,,,,,,,,,['num_7'],6,0.056585459115,1,['num_7'],0,[1.403253909025807],,2018_Apr_03_1715,60.114062628,sequenceLearningTask,001,059,
min1.png,min2.png,min3.png,min4.png,allBlank.png,,,,['num_1'],,,,,,0,5,5,5,,,,,,,,,['num_1'],6,0.0630318207295,0,"['num_4', 'num_1']",0,"[0.5812810589886794, 1.581009879388148]",,2018_Apr_03_1715,60.114062628,sequenceLearningTask,001,059,
min1.png,min2.png,min3.png,min4.png,allBlank.png,,,,['num_4'],,,,,,0,5,5,5,,,,,,,,,['num_4'],6,0.0516115083519,0,"['num_0', 'num_4']",0,"[0.8604659940392594, 1.8114592047022597]",,2018_Apr_03_1715,60.114062628,sequenceLearningTask,001,059,
min1.png,min2.png,min3.png,min4.png,allBlank.png,,,,['num_0'],,,,,,0,5,5,5,,,,,,,,,['num_0'],6,0.055362073992,1,['num_0'],0,[0.5053208226963761],,2018_Apr_03_1715,60.114062628,sequenceLearningTask,001,059,
min1.png,min2.png,min3.png,min4.png,allBlank.png,,,,['num_0'],,,,,,0,5,5,5,,,,,,,,,['num_0'],6,0.063114282304,1,['num_0'],0,[0.4467755679070251],,2018_Apr_03_1715,60.114062628,sequenceLearningTask,001,059,
min1.png,min2.png,min3.png,min4.png,allBlank.png,,,,['num_4'],,,,,,0,5,5,5,,,,,,,,,['num_4'],6,0.056569459106,1,['num_4'],0,[1.4715242960119213],,2018_Apr_03_1715,60.114062628,sequenceLearningTask,001,059,
min1.png,min2.png,min3.png,min4.png,allBlank.png,,,,['num_1'],,,,,,0,5,5,5,,,,,,,,,['num_1'],6,0.0566031001472,1,['num_1'],0,[5.220969936806796],,2018_Apr_03_1715,60.114062628,sequenceLearningTask,001,059,
min1.png,min2.png,min3.png,min4.png,allBlank.png,,,,['num_0'],,,,,,0,5,5,5,,,,,,,,,['num_0'],6,0.0581169469187,1,['num_0'],0,[0.8041373555424798],,2018_Apr_03_1715,60.114062628,sequenceLearningTask,001,059,
min1.png,min2.png,min3.png,min4.png,allBlank.png,,,,['num_7'],,,,,,0,6,6,6,,,,,,,,,['num_7'],7,0.0507479182561,1,['num_7'],0,[1.0753231078269891],,2018_Apr_03_1715,60.114062628,sequenceLearningTask,001,059,
min1.png,min2.png,min3.png,min4.png,allBlank.png,,,,['num_1'],,,,,,0,6,6,6,,,,,,,,,['num_1'],7,0.050448841208,1,['num_1'],0,[0.9610124968276068],,2018_Apr_03_1715,60.114062628,sequenceLearningTask,001,059,
min1.png,min2.png,min3.png,min4.png,allBlank.png,,,,['num_4'],,,,,,0,6,6,6,,,,,,,,,['num_4'],7,0.0574900748688,1,['num_4'],0,[1.0544024838563928],,2018_Apr_03_1715,60.114062628,sequenceLearningTask,001,059,
min1.png,min2.png,min3.png,min4.png,allBlank.png,,,,['num_0'],,,,,,0,6,6,6,,,,,,,,,['num_0'],7,0.0512833030916,1,['num_0'],0,[1.8759470260301896],,2018_Apr_03_1715,60.114062628,sequenceLearningTask,001,059,
min1.png,min2.png,min3.png,min4.png,allBlank.png,,,,['num_0'],,,,,,0,6,6,6,,,,,,,,,['num_0'],7,0.0584373573074,1,['num_0'],0,[1.8354296760735451],,2018_Apr_03_1715,60.114062628,sequenceLearningTask,001,059,
min1.png,min2.png,min3.png,min4.png,allBlank.png,,,,['num_4'],,,,,,0,6,6,6,,,,,,,,,['num_4'],7,0.0496000203493,1,['num_4'],0,[1.0789608529048564],,2018_Apr_03_1715,60.114062628,sequenceLearningTask,001,059,
min1.png,min2.png,min3.png,min4.png,allBlank.png,,,,['num_1'],,,,,,0,6,6,6,,,,,,,,,['num_1'],7,0.05467530448,1,['num_1'],0,[0.9225866349079297],,2018_Apr_03_1715,60.114062628,sequenceLearningTask,001,059,
min1.png,min2.png,min3.png,min4.png,allBlank.png,,,,['num_0'],,,,,,0,6,6,6,,,,,,,,,['num_0'],7,0.0558974588312,1,['num_0'],0,[1.2217083986470243],,2018_Apr_03_1715,60.114062628,sequenceLearningTask,001,059,
min1.png,min2.png,min3.png,min4.png,allBlank.png,,,,['num_7'],,,,,,0,7,7,7,,,,,,,,,['num_7'],8,0.0543717146138,1,['num_7'],0,[1.037520425648836],,2018_Apr_03_1715,60.114062628,sequenceLearningTask,001,059,
min1.png,min2.png,min3.png,min4.png,allBlank.png,,,,['num_1'],,,,,,0,7,7,7,,,,,,,,,['num_1'],8,0.0518428930664,1,['num_1'],0,[1.4926455354434438],,2018_Apr_03_1715,60.114062628,sequenceLearningTask,001,059,
min1.png,min2.png,min3.png,min4.png,allBlank.png,,,,['num_4'],,,,,,0,7,7,7,,,,,,,,,['num_4'],8,0.0468480192212,1,['num_4'],0,[0.9487302353772975],,2018_Apr_03_1715,60.114062628,sequenceLearningTask,001,059,
min1.png,min2.png,min3.png,min4.png,allBlank.png,,,,['num_0'],,,,,,0,7,7,7,,,,,,,,,['num_0'],8,0.0512402261484,1,['num_0'],0,[2.5260666773610865],,2018_Apr_03_1715,60.114062628,sequenceLearningTask,001,059,
min1.png,min2.png,min3.png,min4.png,allBlank.png,,,,['num_0'],,,,,,0,7,7,7,,,,,,,,,['num_0'],8,0.0485177634946,1,['num_0'],0,[0.3957589315941732],,2018_Apr_03_1715,60.114062628,sequenceLearningTask,001,059,
min1.png,min2.png,min3.png,min4.png,allBlank.png,,,,['num_4'],,,,,,0,7,7,7,,,,,,,,,['num_4'],8,0.0499680204994,1,['num_4'],0,[1.1612677584671474],,2018_Apr_03_1715,60.114062628,sequenceLearningTask,001,059,
min1.png,min2.png,min3.png,min4.png,allBlank.png,,,,['num_1'],,,,,,0,7,7,7,,,,,,,,,['num_1'],8,0.0497587896425,1,['num_1'],0,[1.628602924552979],,2018_Apr_03_1715,60.114062628,sequenceLearningTask,001,059,
min1.png,min2.png,min3.png,min4.png,allBlank.png,,,,['num_0'],,,,,,0,7,7,7,,,,,,,,,['num_0'],8,0.049708738341,1,['num_0'],0,[0.8624922512790363],,2018_Apr_03_1715,60.114062628,sequenceLearningTask,001,059,
min1.png,min2.png,min3.png,min4.png,allBlank.png,,,,['num_7'],,,,,,0,8,8,8,,,,,,,,,['num_7'],9,0.0499667897275,1,['num_7'],0,[0.9770018367198645],,2018_Apr_03_1715,60.114062628,sequenceLearningTask,001,059,
min1.png,min2.png,min3.png,min4.png,allBlank.png,,,,['num_1'],,,,,,0,8,8,8,,,,,,,,,['num_1'],9,0.0507483285146,0,"['num_1', 'num_0', 'num_1']",0,"[4.6761992517713225, 6.511268722570094]",,2018_Apr_03_1715,60.114062628,sequenceLearningTask,001,059,
min1.png,min2.png,min3.png,min4.png,allBlank.png,,,,['num_4'],,,,,,0,8,8,8,,,,,,,,,['num_4'],9,0.0542478171265,1,['num_4'],0,[1.5234020608804713],,2018_Apr_03_1715,60.114062628,sequenceLearningTask,001,059,
min1.png,min2.png,min3.png,min4.png,allBlank.png,,,,['num_0'],,,,,,0,8,8,8,,,,,,,,,['num_0'],9,0.0597682296466,1,['num_0'],0,[1.5849307015087106],,2018_Apr_03_1715,60.114062628,sequenceLearningTask,001,059,
min1.png,min2.png,min3.png,min4.png,allBlank.png,,,,['num_0'],,,,,,0,8,8,8,,,,,,,,,['num_0'],9,0.0507364310724,1,['num_0'],0,[0.6273143086400523],,2018_Apr_03_1715,60.114062628,sequenceLearningTask,001,059,
min1.png,min2.png,min3.png,min4.png,allBlank.png,,,,['num_4'],,,,,,0,8,8,8,,,,,,,,,['num_4'],9,0.049126173999,1,['num_4'],0,[2.263325236235687],,2018_Apr_03_1715,60.114062628,sequenceLearningTask,001,059,
min1.png,min2.png,min3.png,min4.png,allBlank.png,,,,['num_1'],,,,,,0,8,8,8,,,,,,,,,['num_1'],9,0.0537550989757,1,['num_1'],0,[1.0739922354841838],,2018_Apr_03_1715,60.114062628,sequenceLearningTask,001,059,
min1.png,min2.png,min3.png,min4.png,allBlank.png,,,,['num_0'],,,,,,0,8,8,8,,,,,,,,,['num_0'],9,0.0503950975981,1,['num_0'],0,[0.7941915053088451],,2018_Apr_03_1715,60.114062628,sequenceLearningTask,001,059,
min1.png,min2.png,min3.png,min4.png,allBlank.png,,,,['num_7'],,,,,,0,9,9,9,,,,,,,,,['num_7'],10,0.051299303097,1,['num_7'],0,[1.4410410014534136],,2018_Apr_03_1715,60.114062628,sequenceLearningTask,001,059,
min1.png,min2.png,min3.png,min4.png,allBlank.png,,,,['num_1'],,,,,,0,9,9,9,,,,,,,,,['num_1'],10,0.0611811533017,1,['num_1'],0,[1.3488957328809192],,2018_Apr_03_1715,60.114062628,sequenceLearningTask,001,059,
min1.png,min2.png,min3.png,min4.png,allBlank.png,,,,['num_4'],,,,,,0,9,9,9,,,,,,,,,['num_4'],10,0.0555848433178,1,['num_4'],0,[1.1562347307626624],,2018_Apr_03_1715,60.114062628,sequenceLearningTask,001,059,
min1.png,min2.png,min3.png,min4.png,allBlank.png,,,,['num_0'],,,,,,0,9,9,9,,,,,,,,,['num_0'],10,0.0573575619928,1,['num_0'],0,[0.8033545859907463],,2018_Apr_03_1715,60.114062628,sequenceLearningTask,001,059,
min1.png,min2.png,min3.png,min4.png,allBlank.png,,,,['num_0'],,,,,,0,9,9,9,,,,,,,,,['num_0'],10,0.0525690472095,1,['num_0'],0,[0.37556200023027486],,2018_Apr_03_1715,60.114062628,sequenceLearningTask,001,059,
min1.png,min2.png,min3.png,min4.png,allBlank.png,,,,['num_4'],,,,,,0,9,9,9,,,,,,,,,['num_4'],10,0.051680841716,1,['num_4'],0,[2.875931846534513],,2018_Apr_03_1715,60.114062628,sequenceLearningTask,001,059,
min1.png,min2.png,min3.png,min4.png,allBlank.png,,,,['num_1'],,,,,,0,9,9,9,,,,,,,,,['num_1'],10,0.0564275103279,1,['num_1'],0,[0.9050157559031504],,2018_Apr_03_1715,60.114062628,sequenceLearningTask,001,059,
min1.png,min2.png,min3.png,min4.png,allBlank.png,,,,['num_0'],,,,,,0,9,9,9,,,,,,,,,['num_0'],10,0.0564160231443,1,['num_0'],0,[1.2733445223966555],,2018_Apr_03_1715,60.114062628,sequenceLearningTask,001,059,
min1.png,min2.png,min3.png,min4.png,images/allBlank.png,images/min3.png,'num_1',"['num_7', 'num_4', 'num_1', 'num_0']",['num_1'],num_1,,,,,0,9,9,9,0,0,0,2,,,,,['num_1'],,0.0477296606077,1,['num_1'],0,[2.073169671042706],1,2018_Apr_03_1715,60.114062628,sequenceLearningTask,001,059,
min1.png,min2.png,min3.png,min4.png,images/allBlank.png,images/min4.png,'num_0',"['num_7', 'num_4', 'num_1', 'num_0']",['num_0'],num_0,,,,,0,9,9,9,0,1,1,3,,,,,['num_0'],,0.0499237127879,1,['num_0'],0,[1.8419786018348532],1,2018_Apr_03_1715,60.114062628,sequenceLearningTask,001,059,
min1.png,min2.png,min3.png,min4.png,images/allBlank.png,images/min1.png,'num_7',"['num_7', 'num_4', 'num_1', 'num_0']",['num_7'],num_7,,,,,0,9,9,9,0,2,2,0,,,,,['num_7'],,0.0513682262026,0,"['num_0', 'num_7']",0,"[0.056693356589676114, 1.5577536647178931]",0,2018_Apr_03_1715,60.114062628,sequenceLearningTask,001,059,
min1.png,min2.png,min3.png,min4.png,images/allBlank.png,images/min2.png,'num_4',"['num_7', 'num_4', 'num_1', 'num_0']",['num_4'],num_4,,,,,0,9,9,9,0,3,3,1,,,,,['num_4'],,0.0538986887805,1,['num_4'],0,[0.8893291853673873],1,2018_Apr_03_1715,60.114062628,sequenceLearningTask,001,059,
min1.png,min2.png,min3.png,min4.png,images/allBlank.png,images/min3.png,'num_1',"['num_7', 'num_4', 'num_1', 'num_0']",['num_1'],num_1,,,,,0,9,9,9,1,0,4,2,,,,,['num_1'],,0.0489850457379,1,['num_1'],0,[0.6265151288243942],1,2018_Apr_03_1715,60.114062628,sequenceLearningTask,001,059,
min1.png,min2.png,min3.png,min4.png,images/allBlank.png,images/min4.png,'num_0',"['num_7', 'num_4', 'num_1', 'num_0']",['num_0'],num_0,,,,,0,9,9,9,1,1,5,3,,,,,['num_0'],,0.0518367392142,1,['num_0'],0,[0.3904407755653665],1,2018_Apr_03_1715,60.114062628,sequenceLearningTask,001,059,
min1.png,min2.png,min3.png,min4.png,images/allBlank.png,images/min2.png,'num_4',"['num_7', 'num_4', 'num_1', 'num_0']",['num_4'],num_4,,,,,0,9,9,9,1,2,6,1,,,,,['num_4'],,0.0562149974212,1,['num_4'],0,[1.2356878915634297],1,2018_Apr_03_1715,60.114062628,sequenceLearningTask,001,059,
min1.png,min2.png,min3.png,min4.png,images/allBlank.png,images/min1.png,'num_7',"['num_7', 'num_4', 'num_1', 'num_0']",['num_7'],num_7,,,,,0,9,9,9,1,3,7,0,,,,,['num_7'],,0.057810074999,1,['num_7'],0,[0.9169250941231439],1,2018_Apr_03_1715,60.114062628,sequenceLearningTask,001,059,
min1.png,min2.png,min3.png,min4.png,images/allBlank.png,images/min1.png,'num_7',"['num_7', 'num_4', 'num_1', 'num_0']",['num_7'],num_7,,,,,0,9,9,9,2,0,8,0,,,,,['num_7'],,0.0622765383705,1,['num_7'],0,[1.0122071844962193],1,2018_Apr_03_1715,60.114062628,sequenceLearningTask,001,059,
min1.png,min2.png,min3.png,min4.png,images/allBlank.png,images/min2.png,'num_4',"['num_7', 'num_4', 'num_1', 'num_0']",['num_4'],num_4,,,,,0,9,9,9,2,1,9,1,,,,,['num_4'],,0.0514330467413,1,['num_4'],0,[1.0249632922896126],1,2018_Apr_03_1715,60.114062628,sequenceLearningTask,001,059,
min1.png,min2.png,min3.png,min4.png,images/allBlank.png,images/min3.png,'num_1',"['num_7', 'num_4', 'num_1', 'num_0']",['num_1'],num_1,,,,,0,9,9,9,2,2,10,2,,,,,['num_1'],,0.0500225846263,1,['num_1'],0,[0.9420688993122894],1,2018_Apr_03_1715,60.114062628,sequenceLearningTask,001,059,
min1.png,min2.png,min3.png,min4.png,images/allBlank.png,images/min4.png,'num_0',"['num_7', 'num_4', 'num_1', 'num_0']",['num_0'],num_0,,,,,0,9,9,9,2,3,11,3,,,,,['num_0'],,0.0477013529016,1,['num_0'],0,[3.0791499811930407],1,2018_Apr_03_1715,60.114062628,sequenceLearningTask,001,059,
min1.png,min2.png,min3.png,min4.png,images/allBlank.png,images/min4.png,'num_0',"['num_7', 'num_4', 'num_1', 'num_0']",['num_0'],num_0,,,,,0,9,9,9,3,0,12,3,,,,,['num_0'],,0.0477165323937,1,['num_0'],0,[2.194465310549276],1,2018_Apr_03_1715,60.114062628,sequenceLearningTask,001,059,
min1.png,min2.png,min3.png,min4.png,images/allBlank.png,images/min1.png,'num_7',"['num_7', 'num_4', 'num_1', 'num_0']",['num_7'],num_7,,,,,0,9,9,9,3,1,13,0,,,,,['num_7'],,0.053378483437,1,['num_7'],0,[2.624124153488083],1,2018_Apr_03_1715,60.114062628,sequenceLearningTask,001,059,
min1.png,min2.png,min3.png,min4.png,images/allBlank.png,images/min2.png,'num_4',"['num_7', 'num_4', 'num_1', 'num_0']",['num_4'],num_4,,,,,0,9,9,9,3,2,14,1,,,,,['num_4'],,0.0481021735795,1,['num_4'],0,[0.7786719092000567],1,2018_Apr_03_1715,60.114062628,sequenceLearningTask,001,059,
min1.png,min2.png,min3.png,min4.png,images/allBlank.png,images/min3.png,'num_1',"['num_7', 'num_4', 'num_1', 'num_0']",['num_1'],num_1,,,,,0,9,9,9,3,3,15,2,,,,,['num_1'],,0.0547532532328,1,['num_1'],0,[0.7715510857669869],1,2018_Apr_03_1715,60.114062628,sequenceLearningTask,001,059,
min1.png,min2.png,min3.png,min4.png,images/allBlank.png,images/min4.png,'num_0',"['num_7', 'num_4', 'num_1', 'num_0']",['num_0'],num_0,,,,,0,9,9,9,4,0,16,3,,,,,['num_0'],,0.0519282264322,1,['num_0'],0,[0.47338275831134524],1,2018_Apr_03_1715,60.114062628,sequenceLearningTask,001,059,
min1.png,min2.png,min3.png,min4.png,images/allBlank.png,images/min3.png,'num_1',"['num_7', 'num_4', 'num_1', 'num_0']",['num_1'],num_1,,,,,0,9,9,9,4,1,17,2,,,,,['num_1'],,0.0593452551184,1,['num_1'],0,[1.382635233901965],1,2018_Apr_03_1715,60.114062628,sequenceLearningTask,001,059,
min1.png,min2.png,min3.png,min4.png,images/allBlank.png,images/min1.png,'num_7',"['num_7', 'num_4', 'num_1', 'num_0']",['num_7'],num_7,,,,,0,9,9,9,4,2,18,0,,,,,['num_7'],,0.0566281257961,1,['num_7'],0,[1.1187602538520878],1,2018_Apr_03_1715,60.114062628,sequenceLearningTask,001,059,
min1.png,min2.png,min3.png,min4.png,images/allBlank.png,images/min2.png,'num_4',"['num_7', 'num_4', 'num_1', 'num_0']",['num_4'],num_4,,,,,0,9,9,9,4,3,19,1,,,,,['num_4'],,0.0499815589646,1,['num_4'],0,[1.558738690764585],1,2018_Apr_03_1715,60.114062628,sequenceLearningTask,001,059,
min1.png,min2.png,min3.png,min4.png,images/allBlank.png,images/min1.png,'num_7',"['num_7', 'num_4', 'num_1', 'num_0']",['num_7'],num_7,,,,,0,9,9,9,5,0,20,0,,,,,['num_7'],,0.0469132500184,1,['num_7'],0,[1.9295827403439034],1,2018_Apr_03_1715,60.114062628,sequenceLearningTask,001,059,
min1.png,min2.png,min3.png,min4.png,images/allBlank.png,images/min2.png,'num_4',"['num_7', 'num_4', 'num_1', 'num_0']",['num_4'],num_4,,,,,0,9,9,9,5,1,21,1,,,,,['num_4'],,0.0561079204526,1,['num_4'],0,[0.8683831254893448],1,2018_Apr_03_1715,60.114062628,sequenceLearningTask,001,059,
min1.png,min2.png,min3.png,min4.png,images/allBlank.png,images/min4.png,'num_0',"['num_7', 'num_4', 'num_1', 'num_0']",['num_0'],num_0,,,,,0,9,9,9,5,2,22,3,,,,,['num_0'],,0.0573743825116,1,['num_0'],0,[0.9504471591571928],1,2018_Apr_03_1715,60.114062628,sequenceLearningTask,001,059,
min1.png,min2.png,min3.png,min4.png,images/allBlank.png,images/min3.png,'num_1',"['num_7', 'num_4', 'num_1', 'num_0']",['num_1'],num_1,,,,,0,9,9,9,5,3,23,2,,,,,['num_1'],,0.0490564303836,1,['num_1'],0,[0.860450814543583],1,2018_Apr_03_1715,60.114062628,sequenceLearningTask,001,059,
min1.png,min2.png,min3.png,min4.png,images/allBlank.png,images/min1.png,'num_7',"['num_7', 'num_4', 'num_1', 'num_0']",['num_7'],num_7,,,,,0,9,9,9,6,0,24,0,,,,,['num_7'],,0.0473719168695,1,['num_7'],0,[1.263337133677851],1,2018_Apr_03_1715,60.114062628,sequenceLearningTask,001,059,
min1.png,min2.png,min3.png,min4.png,images/allBlank.png,images/min4.png,'num_0',"['num_7', 'num_4', 'num_1', 'num_0']",['num_0'],num_0,,,,,0,9,9,9,6,1,25,3,,,,,['num_0'],,0.0535003296427,1,['num_0'],0,[4.872348665579921],1,2018_Apr_03_1715,60.114062628,sequenceLearningTask,001,059,
min1.png,min2.png,min3.png,min4.png,images/allBlank.png,images/min2.png,'num_4',"['num_7', 'num_4', 'num_1', 'num_0']",['num_4'],num_4,,,,,0,9,9,9,6,2,26,1,,,,,['num_4'],,0.052395098417,1,['num_4'],0,[3.073451107055007],1,2018_Apr_03_1715,60.114062628,sequenceLearningTask,001,059,
min1.png,min2.png,min3.png,min4.png,images/allBlank.png,images/min3.png,'num_1',"['num_7', 'num_4', 'num_1', 'num_0']",['num_1'],num_1,,,,,0,9,9,9,6,3,27,2,,,,,['num_1'],,0.0434108896043,0,"['num_4', 'num_4', 'num_4', 'num_4', 'num_1']",0,"[0.00016082057845778763, 0.13169974634001846, 0.36477840606312384, 0.7162164989604207]",0,2018_Apr_03_1715,60.114062628,sequenceLearningTask,001,059,
min1.png,min2.png,min3.png,min4.png,images/allBlank.png,images/min2.png,'num_4',"['num_7', 'num_4', 'num_1', 'num_0']",['num_4'],num_4,,,,,0,9,9,9,7,0,28,1,,,,,['num_4'],,0.0553567406605,0,"['num_1', 'num_1', 'num_1', 'num_4']",0,"[0.00036964117680327035, 0.10297276019628043, 1.1046962480832008]",0,2018_Apr_03_1715,60.114062628,sequenceLearningTask,001,059,
min1.png,min2.png,min3.png,min4.png,images/allBlank.png,images/min1.png,'num_7',"['num_7', 'num_4', 'num_1', 'num_0']",['num_7'],num_7,,,,,0,9,9,9,7,1,29,0,,,,,['num_7'],,0.0564016641656,1,['num_7'],0,[0.8853140042301675],1,2018_Apr_03_1715,60.114062628,sequenceLearningTask,001,059,
min1.png,min2.png,min3.png,min4.png,images/allBlank.png,images/min3.png,'num_1',"['num_7', 'num_4', 'num_1', 'num_0']",['num_1'],num_1,,,,,0,9,9,9,7,2,30,2,,,,,['num_1'],,0.0565194078008,1,['num_1'],0,[4.23603948145319],1,2018_Apr_03_1715,60.114062628,sequenceLearningTask,001,059,
min1.png,min2.png,min3.png,min4.png,images/allBlank.png,images/min4.png,'num_0',"['num_7', 'num_4', 'num_1', 'num_0']",['num_0'],num_0,,,,,0,9,9,9,7,3,31,3,,,,,['num_0'],,0.0564180744259,1,['num_0'],0,[0.8006042258894013],1,2018_Apr_03_1715,60.114062628,sequenceLearningTask,001,059,
min1.png,min2.png,min3.png,min4.png,images/allBlank.png,images/min1.png,'num_7',"['num_7', 'num_4', 'num_1', 'num_0']",['num_7'],num_7,,,,,0,9,9,9,8,0,32,0,,,,,['num_7'],,0.0488119174624,1,['num_7'],0,[3.511674056073389],1,2018_Apr_03_1715,60.114062628,sequenceLearningTask,001,059,
min1.png,min2.png,min3.png,min4.png,images/allBlank.png,images/min3.png,'num_1',"['num_7', 'num_4', 'num_1', 'num_0']",['num_1'],num_1,,,,,0,9,9,9,8,1,33,2,,,,,['num_1'],,0.0576882287969,1,['num_1'],0,[1.6016265032303636],1,2018_Apr_03_1715,60.114062628,sequenceLearningTask,001,059,
min1.png,min2.png,min3.png,min4.png,images/allBlank.png,images/min2.png,'num_4',"['num_7', 'num_4', 'num_1', 'num_0']",['num_4'],num_4,,,,,0,9,9,9,8,2,34,1,,,,,['num_4'],,0.0526408421101,1,['num_4'],0,[1.0061275922562345],1,2018_Apr_03_1715,60.114062628,sequenceLearningTask,001,059,
min1.png,min2.png,min3.png,min4.png,images/allBlank.png,images/min4.png,'num_0',"['num_7', 'num_4', 'num_1', 'num_0']",['num_0'],num_0,,,,,0,9,9,9,8,3,35,3,,,,,['num_0'],,0.0512865851415,1,['num_0'],0,[0.5240715996187646],1,2018_Apr_03_1715,60.114062628,sequenceLearningTask,001,059,
min1.png,min2.png,min3.png,min4.png,images/allBlank.png,images/min2.png,'num_4',"['num_7', 'num_4', 'num_1', 'num_0']",['num_4'],num_4,,,,,0,9,9,9,9,0,36,1,,,,,['num_4'],,0.0509555080826,1,['num_4'],0,[1.0578223826960311],1,2018_Apr_03_1715,60.114062628,sequenceLearningTask,001,059,
min1.png,min2.png,min3.png,min4.png,images/allBlank.png,images/min4.png,'num_0',"['num_7', 'num_4', 'num_1', 'num_0']",['num_0'],num_0,,,,,0,9,9,9,9,1,37,3,,,,,['num_0'],,0.048225660812,1,['num_0'],0,[0.8619958408198727],1,2018_Apr_03_1715,60.114062628,sequenceLearningTask,001,059,
min1.png,min2.png,min3.png,min4.png,images/allBlank.png,images/min3.png,'num_1',"['num_7', 'num_4', 'num_1', 'num_0']",['num_1'],num_1,,,,,0,9,9,9,9,2,38,2,,,,,['num_1'],,0.0314802180401,1,['num_1'],0,[0.9802830688313406],1,2018_Apr_03_1715,60.114062628,sequenceLearningTask,001,059,
min1.png,min2.png,min3.png,min4.png,images/allBlank.png,images/min1.png,'num_7',"['num_7', 'num_4', 'num_1', 'num_0']",['num_7'],num_7,,,,,0,9,9,9,9,3,39,0,,,,,['num_7'],,0.0548102788962,1,['num_7'],0,[3.2542089248017874],1,2018_Apr_03_1715,60.114062628,sequenceLearningTask,001,059,
min1.png,min2.png,min3.png,min4.png,images/allBlank.png,images/min3.png,'num_1',"['num_7', 'num_4', 'num_1', 'num_0']",['num_1'],num_1,,,,,0,9,9,9,10,0,40,2,,,,,['num_1'],,0.0534560219312,1,['num_1'],0,[0.9891573288878135],1,2018_Apr_03_1715,60.114062628,sequenceLearningTask,001,059,
min1.png,min2.png,min3.png,min4.png,images/allBlank.png,images/min1.png,'num_7',"['num_7', 'num_4', 'num_1', 'num_0']",['num_7'],num_7,,,,,0,9,9,9,10,1,41,0,,,,,['num_7'],,0.0541132529688,1,['num_7'],0,[1.038144836162246],1,2018_Apr_03_1715,60.114062628,sequenceLearningTask,001,059,
min1.png,min2.png,min3.png,min4.png,images/allBlank.png,images/min4.png,'num_0',"['num_7', 'num_4', 'num_1', 'num_0']",['num_0'],num_0,,,,,0,9,9,9,10,2,42,3,,,,,['num_0'],,0.054002073437,1,['num_0'],0,[1.1360734917216178],1,2018_Apr_03_1715,60.114062628,sequenceLearningTask,001,059,
min1.png,min2.png,min3.png,min4.png,images/allBlank.png,images/min2.png,'num_4',"['num_7', 'num_4', 'num_1', 'num_0']",['num_4'],num_4,,,,,0,9,9,9,10,3,43,1,,,,,['num_4'],,0.0509805337351,1,['num_4'],0,[0.8590526601219608],1,2018_Apr_03_1715,60.114062628,sequenceLearningTask,001,059,
min1.png,min2.png,min3.png,min4.png,images/allBlank.png,images/min4.png,'num_0',"['num_7', 'num_4', 'num_1', 'num_0']",['num_0'],num_0,,,,,0,9,9,9,11,0,44,3,,,,,['num_0'],,0.059857665583,1,['num_0'],0,[0.8989053944242187],1,2018_Apr_03_1715,60.114062628,sequenceLearningTask,001,059,
min1.png,min2.png,min3.png,min4.png,images/allBlank.png,images/min2.png,'num_4',"['num_7', 'num_4', 'num_1', 'num_0']",['num_4'],num_4,,,,,0,9,9,9,11,1,45,1,,,,,['num_4'],,0.0474949938434,1,['num_4'],0,[1.012441851256881],1,2018_Apr_03_1715,60.114062628,sequenceLearningTask,001,059,
min1.png,min2.png,min3.png,min4.png,images/allBlank.png,images/min3.png,'num_1',"['num_7', 'num_4', 'num_1', 'num_0']",['num_1'],num_1,,,,,0,9,9,9,11,2,46,2,,,,,['num_1'],,0.0558277152122,1,['num_1'],0,[0.9711876804867643],1,2018_Apr_03_1715,60.114062628,sequenceLearningTask,001,059,
min1.png,min2.png,min3.png,min4.png,images/allBlank.png,images/min1.png,'num_7',"['num_7', 'num_4', 'num_1', 'num_0']",['num_7'],num_7,,,,,0,9,9,9,11,3,47,0,,,,,['num_7'],,0.0555618689505,1,['num_7'],0,[1.269886879956175],1,2018_Apr_03_1715,60.114062628,sequenceLearningTask,001,059,
min1.png,min2.png,min3.png,min4.png,images/allBlank.png,images/min3.png,'num_1',"['num_7', 'num_4', 'num_1', 'num_0']",['num_1'],num_1,,,,,0,9,9,9,12,0,48,2,,,,,['num_1'],,0.0511553030374,1,['num_1'],0,[1.0083150803366152],1,2018_Apr_03_1715,60.114062628,sequenceLearningTask,001,059,
min1.png,min2.png,min3.png,min4.png,images/allBlank.png,images/min1.png,'num_7',"['num_7', 'num_4', 'num_1', 'num_0']",['num_7'],num_7,,,,,0,9,9,9,12,1,49,0,,,,,['num_7'],,0.048909558529,1,['num_7'],0,[1.1610691942842095],1,2018_Apr_03_1715,60.114062628,sequenceLearningTask,001,059,
min1.png,min2.png,min3.png,min4.png,images/allBlank.png,images/min4.png,'num_0',"['num_7', 'num_4', 'num_1', 'num_0']",['num_0'],num_0,,,,,0,9,9,9,12,2,50,3,,,,,['num_0'],,0.0489870970196,1,['num_0'],0,[0.8931929818245408],1,2018_Apr_03_1715,60.114062628,sequenceLearningTask,001,059,
min1.png,min2.png,min3.png,min4.png,images/allBlank.png,images/min2.png,'num_4',"['num_7', 'num_4', 'num_1', 'num_0']",['num_4'],num_4,,,,,0,9,9,9,12,3,51,1,,,,,['num_4'],,0.0558240229038,1,['num_4'],0,[1.9034178065303422],1,2018_Apr_03_1715,60.114062628,sequenceLearningTask,001,059,
min1.png,min2.png,min3.png,min4.png,images/allBlank.png,images/min2.png,'num_4',"['num_7', 'num_4', 'num_1', 'num_0']",['num_4'],num_4,,,,,0,9,9,9,13,0,52,1,,,,,['num_4'],,0.0504127386303,1,['num_4'],0,[4.241491381126252],1,2018_Apr_03_1715,60.114062628,sequenceLearningTask,001,059,
min1.png,min2.png,min3.png,min4.png,images/allBlank.png,images/min3.png,'num_1',"['num_7', 'num_4', 'num_1', 'num_0']",['num_1'],num_1,,,,,0,9,9,9,13,1,53,2,,,,,['num_1'],,0.0620890511127,1,['num_1'],0,[1.8108565377879131],1,2018_Apr_03_1715,60.114062628,sequenceLearningTask,001,059,
min1.png,min2.png,min3.png,min4.png,images/allBlank.png,images/min1.png,'num_7',"['num_7', 'num_4', 'num_1', 'num_0']",['num_7'],num_7,,,,,0,9,9,9,13,2,54,0,,,,,['num_7'],,0.0565247411396,1,['num_7'],0,[4.435917307044292],1,2018_Apr_03_1715,60.114062628,sequenceLearningTask,001,059,
min1.png,min2.png,min3.png,min4.png,images/allBlank.png,images/min4.png,'num_0',"['num_7', 'num_4', 'num_1', 'num_0']",['num_0'],num_0,,,,,0,9,9,9,13,3,55,3,,,,,['num_0'],,0.0475089425672,1,['num_0'],0,[1.1116505073441658],1,2018_Apr_03_1715,60.114062628,sequenceLearningTask,001,059,
min1.png,min2.png,min3.png,min4.png,images/allBlank.png,images/min2.png,'num_4',"['num_7', 'num_4', 'num_1', 'num_0']",['num_4'],num_4,,,,,0,9,9,9,14,0,56,1,,,,,['num_4'],,0.0506995079777,1,['num_4'],0,[6.325897569597146],1,2018_Apr_03_1715,60.114062628,sequenceLearningTask,001,059,
min1.png,min2.png,min3.png,min4.png,images/allBlank.png,images/min3.png,'num_1',"['num_7', 'num_4', 'num_1', 'num_0']",['num_1'],num_1,,,,,0,9,9,9,14,1,57,2,,,,,['num_1'],,0.0531950987497,0,"['num_1', 'num_1']",0,"[0.00020758983009727672, 1.522514265645441]",0,2018_Apr_03_1715,60.114062628,sequenceLearningTask,001,059,
min1.png,min2.png,min3.png,min4.png,images/allBlank.png,images/min1.png,'num_7',"['num_7', 'num_4', 'num_1', 'num_0']",['num_7'],num_7,,,,,0,9,9,9,14,2,58,0,,,,,['num_7'],,0.0566748950441,1,['num_7'],0,[1.9857091223420866],1,2018_Apr_03_1715,60.114062628,sequenceLearningTask,001,059,
min1.png,min2.png,min3.png,min4.png,images/allBlank.png,images/min4.png,'num_0',"['num_7', 'num_4', 'num_1', 'num_0']",['num_0'],num_0,,,,,0,9,9,9,14,3,59,3,,,,,['num_0'],,0.0502396103548,1,['num_0'],0,[1.0099499528005254],1,2018_Apr_03_1715,60.114062628,sequenceLearningTask,001,059,
min1.png,min2.png,min3.png,min4.png,images/allBlank.png,images/min4.png,'num_0',"['num_7', 'num_4', 'num_1', 'num_0']",['num_0'],num_0,,,,,0,9,9,9,15,0,60,3,,,,,['num_0'],,0.049021968829,1,['num_0'],0,[1.34336219215038],1,2018_Apr_03_1715,60.114062628,sequenceLearningTask,001,059,
min1.png,min2.png,min3.png,min4.png,images/allBlank.png,images/min2.png,'num_4',"['num_7', 'num_4', 'num_1', 'num_0']",['num_4'],num_4,,,,,0,9,9,9,15,1,61,1,,,,,['num_4'],,0.0507331490189,1,['num_4'],0,[2.47623116973773],1,2018_Apr_03_1715,60.114062628,sequenceLearningTask,001,059,
min1.png,min2.png,min3.png,min4.png,images/allBlank.png,images/min3.png,'num_1',"['num_7', 'num_4', 'num_1', 'num_0']",['num_1'],num_1,,,,,0,9,9,9,15,2,62,2,,,,,['num_1'],,0.056723715581,0,"['num_4', 'num_1']",0,"[2.2698343671145267, 2.3197154132176365]",0,2018_Apr_03_1715,60.114062628,sequenceLearningTask,001,059,
min1.png,min2.png,min3.png,min4.png,images/allBlank.png,images/min1.png,'num_7',"['num_7', 'num_4', 'num_1', 'num_0']",['num_7'],num_7,,,,,0,9,9,9,15,3,63,0,,,,,['num_7'],,0.0523159188961,0,"['num_4', 'num_1', 'num_4', 'num_7']",0,"[1.2231143479439197, 2.4912732271877758, 2.939615154715284]",0,2018_Apr_03_1715,60.114062628,sequenceLearningTask,001,059,
min1.png,min2.png,min3.png,min4.png,images/allBlank.png,images/min3.png,'num_1',"['num_7', 'num_4', 'num_1', 'num_0']",['num_1'],num_1,,,,,0,9,9,9,16,0,64,2,,,,,['num_1'],,0.0394211443781,0,"['num_7', 'num_1']",0,"[0.00015958980657160282, 1.3895780059792742]",0,2018_Apr_03_1715,60.114062628,sequenceLearningTask,001,059,
min1.png,min2.png,min3.png,min4.png,images/allBlank.png,images/min2.png,'num_4',"['num_7', 'num_4', 'num_1', 'num_0']",['num_4'],num_4,,,,,0,9,9,9,16,1,65,1,,,,,['num_4'],,0.0498117127427,1,['num_4'],0,[0.8417295760918933],1,2018_Apr_03_1715,60.114062628,sequenceLearningTask,001,059,
min1.png,min2.png,min3.png,min4.png,images/allBlank.png,images/min4.png,'num_0',"['num_7', 'num_4', 'num_1', 'num_0']",['num_0'],num_0,,,,,0,9,9,9,16,2,66,3,,,,,['num_0'],,0.0480467889429,1,['num_0'],0,[2.5786176732799504],1,2018_Apr_03_1715,60.114062628,sequenceLearningTask,001,059,
min1.png,min2.png,min3.png,min4.png,images/allBlank.png,images/min1.png,'num_7',"['num_7', 'num_4', 'num_1', 'num_0']",['num_7'],num_7,,,,,0,9,9,9,16,3,67,0,,,,,['num_7'],,0.0524886369167,1,['num_7'],0,[6.239961944600509],1,2018_Apr_03_1715,60.114062628,sequenceLearningTask,001,059,
min1.png,min2.png,min3.png,min4.png,images/allBlank.png,images/min1.png,'num_7',"['num_7', 'num_4', 'num_1', 'num_0']",['num_7'],num_7,,,,,0,9,9,9,17,0,68,0,,,,,['num_7'],,0.0583704854871,1,['num_7'],0,[1.231605018092523],1,2018_Apr_03_1715,60.114062628,sequenceLearningTask,001,059,
min1.png,min2.png,min3.png,min4.png,images/allBlank.png,images/min4.png,'num_0',"['num_7', 'num_4', 'num_1', 'num_0']",['num_0'],num_0,,,,,0,9,9,9,17,1,69,3,,,,,['num_0'],,0.077527826681,1,['num_0'],0,[2.3957929828902707],1,2018_Apr_03_1715,60.114062628,sequenceLearningTask,001,059,
min1.png,min2.png,min3.png,min4.png,images/allBlank.png,images/min2.png,'num_4',"['num_7', 'num_4', 'num_1', 'num_0']",['num_4'],num_4,,,,,0,9,9,9,17,2,70,1,,,,,['num_4'],,0.0465001216435,1,['num_4'],0,[1.4805938381905435],1,2018_Apr_03_1715,60.114062628,sequenceLearningTask,001,059,
min1.png,min2.png,min3.png,min4.png,images/allBlank.png,images/min3.png,'num_1',"['num_7', 'num_4', 'num_1', 'num_0']",['num_1'],num_1,,,,,0,9,9,9,17,3,71,2,,,,,['num_1'],,0.0515647391039,1,['num_1'],0,[2.0909686527047597],1,2018_Apr_03_1715,60.114062628,sequenceLearningTask,001,059,
min1.png,min2.png,min3.png,min4.png,images/allBlank.png,images/min1.png,'num_7',"['num_7', 'num_4', 'num_1', 'num_0']",['num_7'],num_7,,,,,0,9,9,9,18,0,72,0,,,,,['num_7'],,0.0561633050893,1,['num_7'],0,[2.718788807706005],1,2018_Apr_03_1715,60.114062628,sequenceLearningTask,001,059,
min1.png,min2.png,min3.png,min4.png,images/allBlank.png,images/min4.png,'num_0',"['num_7', 'num_4', 'num_1', 'num_0']",['num_0'],num_0,,,,,0,9,9,9,18,1,73,3,,,,,['num_0'],,0.0575536646356,1,['num_0'],0,[1.3502938872989034],1,2018_Apr_03_1715,60.114062628,sequenceLearningTask,001,059,
min1.png,min2.png,min3.png,min4.png,images/allBlank.png,images/min3.png,'num_1',"['num_7', 'num_4', 'num_1', 'num_0']",['num_1'],num_1,,,,,0,9,9,9,18,2,74,2,,,,,['num_1'],,0.0568849464144,1,['num_1'],0,[1.0680783869029256],1,2018_Apr_03_1715,60.114062628,sequenceLearningTask,001,059,
min1.png,min2.png,min3.png,min4.png,images/allBlank.png,images/min2.png,'num_4',"['num_7', 'num_4', 'num_1', 'num_0']",['num_4'],num_4,,,,,0,9,9,9,18,3,75,1,,,,,['num_4'],,0.0487401225619,1,['num_4'],0,[1.0605686402341234],1,2018_Apr_03_1715,60.114062628,sequenceLearningTask,001,059,
min1.png,min2.png,min3.png,min4.png,images/allBlank.png,images/min2.png,'num_4',"['num_7', 'num_4', 'num_1', 'num_0']",['num_4'],num_4,,,,,0,9,9,9,19,0,76,1,,,,,['num_4'],,0.0551429969819,1,['num_4'],0,[0.8212364394821634],1,2018_Apr_03_1715,60.114062628,sequenceLearningTask,001,059,
min1.png,min2.png,min3.png,min4.png,images/allBlank.png,images/min3.png,'num_1',"['num_7', 'num_4', 'num_1', 'num_0']",['num_1'],num_1,,,,,0,9,9,9,19,1,77,2,,,,,['num_1'],,0.0523056624879,1,['num_1'],0,[1.0068082079196756],1,2018_Apr_03_1715,60.114062628,sequenceLearningTask,001,059,
min1.png,min2.png,min3.png,min4.png,images/allBlank.png,images/min1.png,'num_7',"['num_7', 'num_4', 'num_1', 'num_0']",['num_7'],num_7,,,,,0,9,9,9,19,2,78,0,,,,,['num_7'],,0.0457825828853,0,"['num_4', 'num_7']",0,"[0.8649870215340343, 1.5484088403718488]",0,2018_Apr_03_1715,60.114062628,sequenceLearningTask,001,059,
min1.png,min2.png,min3.png,min4.png,images/allBlank.png,images/min4.png,'num_0',"['num_7', 'num_4', 'num_1', 'num_0']",['num_0'],num_0,,,,,0,9,9,9,19,3,79,3,,,,,['num_0'],,0.0569735618374,0,"['num_1', 'num_0', 'num_1', 'num_0']",0,"[1.1356923633611586, 1.1847504347715585, 2.5011078978895966]",0,2018_Apr_03_1715,60.114062628,sequenceLearningTask,001,059,
min1.png,min2.png,min3.png,min4.png,allBlank.png,,,,['num_7'],,,,,,0,0,0,0,,,,,,,,,['num_7'],1,0.0572197157817,1,['num_7'],0,[1.302037457244296],,2018_Apr_03_1715,60.114062628,sequenceLearningTask,001,059,
min1.png,min2.png,min3.png,min4.png,allBlank.png,,,,['num_1'],,,,,,0,0,0,0,,,,,,,,,['num_1'],1,0.0601637169893,1,['num_1'],0,[0.8675203559068905],,2018_Apr_03_1715,60.114062628,sequenceLearningTask,001,059,
min1.png,min2.png,min3.png,min4.png,allBlank.png,,,,['num_4'],,,,,,0,0,0,0,,,,,,,,,['num_4'],1,0.0511700722745,1,['num_4'],0,[1.0105559017683845],,2018_Apr_03_1715,60.114062628,sequenceLearningTask,001,059,
min1.png,min2.png,min3.png,min4.png,allBlank.png,,,,['num_0'],,,,,,0,0,0,0,,,,,,,,,['num_0'],1,0.0521678162731,1,['num_0'],0,[2.6925229507796757],,2018_Apr_03_1715,60.114062628,sequenceLearningTask,001,059,
min1.png,min2.png,min3.png,min4.png,allBlank.png,,,,['num_0'],,,,,,0,0,0,0,,,,,,,,,['num_0'],1,0.0488250456729,1,['num_0'],0,[1.179302227406879],,2018_Apr_03_1715,60.114062628,sequenceLearningTask,001,059,
min1.png,min2.png,min3.png,min4.png,allBlank.png,,,,['num_4'],,,,,,0,0,0,0,,,,,,,,,['num_4'],1,0.0489891483012,1,['num_4'],0,[1.8457500905642519],,2018_Apr_03_1715,60.114062628,sequenceLearningTask,001,059,
min1.png,min2.png,min3.png,min4.png,allBlank.png,,,,['num_1'],,,,,,0,0,0,0,,,,,,,,,['num_1'],1,0.0495466869943,1,['num_1'],0,[1.2601834913548373],,2018_Apr_03_1715,60.114062628,sequenceLearningTask,001,059,
min1.png,min2.png,min3.png,min4.png,allBlank.png,,,,['num_0'],,,,,,0,0,0,0,,,,,,,,,['num_0'],1,0.056267100008,1,['num_0'],0,[0.9878203026928531],,2018_Apr_03_1715,60.114062628,sequenceLearningTask,001,059,
min1.png,min2.png,min3.png,min4.png,allBlank.png,,,,['num_7'],,,,,,0,1,1,1,,,,,,,,,['num_7'],2,0.0470806347003,1,['num_7'],0,[1.3784621039849299],,2018_Apr_03_1715,60.114062628,sequenceLearningTask,001,059,
min1.png,min2.png,min3.png,min4.png,allBlank.png,,,,['num_1'],,,,,,0,1,1,1,,,,,,,,,['num_1'],2,0.0564012539071,1,['num_1'],0,[4.470927782946092],,2018_Apr_03_1715,60.114062628,sequenceLearningTask,001,059,
min1.png,min2.png,min3.png,min4.png,allBlank.png,,,,['num_4'],,,,,,0,1,1,1,,,,,,,,,['num_4'],2,0.0493756100004,1,['num_4'],0,[4.92940140693463],,2018_Apr_03_1715,60.114062628,sequenceLearningTask,001,059,
min1.png,min2.png,min3.png,min4.png,allBlank.png,,,,['num_0'],,,,,,0,1,1,1,,,,,,,,,['num_0'],2,0.0543352017812,1,['num_0'],0,[1.4566077770687116],,2018_Apr_03_1715,60.114062628,sequenceLearningTask,001,059,
min1.png,min2.png,min3.png,min4.png,allBlank.png,,,,['num_0'],,,,,,0,1,1,1,,,,,,,,,['num_0'],2,0.0595844347008,1,['num_0'],0,[2.3848264142870903],,2018_Apr_03_1715,60.114062628,sequenceLearningTask,001,059,
min1.png,min2.png,min3.png,min4.png,allBlank.png,,,,['num_4'],,,,,,0,1,1,1,,,,,,,,,['num_4'],2,0.0483339685488,1,['num_4'],0,[1.2297326070693089],,2018_Apr_03_1715,60.114062628,sequenceLearningTask,001,059,
min1.png,min2.png,min3.png,min4.png,allBlank.png,,,,['num_1'],,,,,,0,1,1,1,,,,,,,,,['num_1'],2,0.0532193038853,1,['num_1'],0,[1.0259224721703504],,2018_Apr_03_1715,60.114062628,sequenceLearningTask,001,059,
min1.png,min2.png,min3.png,min4.png,allBlank.png,,,,['num_0'],,,,,,0,1,1,1,,,,,,,,,['num_0'],2,0.0597333578407,1,['num_0'],0,[2.5838948036507645],,2018_Apr_03_1715,60.114062628,sequenceLearningTask,001,059,
min1.png,min2.png,min3.png,min4.png,allBlank.png,,,,['num_7'],,,,,,0,2,2,2,,,,,,,,,['num_7'],3,0.0436242230244,1,['num_7'],0,[2.3507139900393668],,2018_Apr_03_1715,60.114062628,sequenceLearningTask,001,059,
min1.png,min2.png,min3.png,min4.png,allBlank.png,,,,['num_1'],,,,,,0,2,2,2,,,,,,,,,['num_1'],3,0.0527573549771,1,['num_1'],0,[1.0429202227387577],,2018_Apr_03_1715,60.114062628,sequenceLearningTask,001,059,
min1.png,min2.png,min3.png,min4.png,allBlank.png,,,,['num_4'],,,,,,0,2,2,2,,,,,,,,,['num_4'],3,0.0325050389765,1,['num_4'],0,[0.8304261868433969],,2018_Apr_03_1715,60.114062628,sequenceLearningTask,001,059,
min1.png,min2.png,min3.png,min4.png,allBlank.png,,,,['num_0'],,,,,,0,2,2,2,,,,,,,,,['num_0'],3,0.0568340745995,1,['num_0'],0,[0.8532253756820865],,2018_Apr_03_1715,60.114062628,sequenceLearningTask,001,059,
min1.png,min2.png,min3.png,min4.png,allBlank.png,,,,['num_0'],,,,,,0,2,2,2,,,,,,,,,['num_0'],3,0.0479663786537,1,['num_0'],0,[4.146939547463262],,2018_Apr_03_1715,60.114062628,sequenceLearningTask,001,059,
min1.png,min2.png,min3.png,min4.png,allBlank.png,,,,['num_4'],,,,,,0,2,2,2,,,,,,,,,['num_4'],3,0.051122892768,1,['num_4'],0,[6.1666138119435345],,2018_Apr_03_1715,60.114062628,sequenceLearningTask,001,059,
min1.png,min2.png,min3.png,min4.png,allBlank.png,,,,['num_1'],,,,,,0,2,2,2,,,,,,,,,['num_1'],3,0.0493776612821,1,['num_1'],0,[1.0289148836563982],,2018_Apr_03_1715,60.114062628,sequenceLearningTask,001,059,
min1.png,min2.png,min3.png,min4.png,allBlank.png,,,,['num_0'],,,,,,0,2,2,2,,,,,,,,,['num_0'],3,0.0545866890643,1,['num_0'],0,[0.8396356265147915],,2018_Apr_03_1715,60.114062628,sequenceLearningTask,001,059,
min1.png,min2.png,min3.png,min4.png,allBlank.png,,,,['num_7'],,,,,,0,3,3,3,,,,,,,,,['num_7'],4,0.0475885323431,1,['num_7'],0,[1.3945679567441402],,2018_Apr_03_1715,60.114062628,sequenceLearningTask,001,059,
min1.png,min2.png,min3.png,min4.png,allBlank.png,,,,['num_1'],,,,,,0,3,3,3,,,,,,,,,['num_1'],4,0.0494092510417,1,['num_1'],0,[0.911037912221218],,2018_Apr_03_1715,60.114062628,sequenceLearningTask,001,059,
min1.png,min2.png,min3.png,min4.png,allBlank.png,,,,['num_4'],,,,,,0,3,3,3,,,,,,,,,['num_4'],4,0.0632053592635,1,['num_4'],0,[1.1809588434698526],,2018_Apr_03_1715,60.114062628,sequenceLearningTask,001,059,
min1.png,min2.png,min3.png,min4.png,allBlank.png,,,,['num_0'],,,,,,0,3,3,3,,,,,,,,,['num_0'],4,0.0550830995235,1,['num_0'],0,[1.138924774943007],,2018_Apr_03_1715,60.114062628,sequenceLearningTask,001,059,
min1.png,min2.png,min3.png,min4.png,allBlank.png,,,,['num_0'],,,,,,0,3,3,3,,,,,,,,,['num_0'],4,0.0580894597297,1,['num_0'],0,[1.3363558303026366],,2018_Apr_03_1715,60.114062628,sequenceLearningTask,001,059,
min1.png,min2.png,min3.png,min4.png,allBlank.png,,,,['num_4'],,,,,,0,3,3,3,,,,,,,,,['num_4'],4,0.0482375582505,1,['num_4'],0,[4.395745393125253],,2018_Apr_03_1715,60.114062628,sequenceLearningTask,001,059,
min1.png,min2.png,min3.png,min4.png,allBlank.png,,,,['num_1'],,,,,,0,3,3,3,,,,,,,,,['num_1'],4,0.0473690450744,1,['num_1'],0,[0.881032566576323],,2018_Apr_03_1715,60.114062628,sequenceLearningTask,001,059,
min1.png,min2.png,min3.png,min4.png,allBlank.png,,,,['num_0'],,,,,,0,3,3,3,,,,,,,,,['num_0'],4,0.0603261785982,1,['num_0'],0,[0.6000613743854046],,2018_Apr_03_1715,60.114062628,sequenceLearningTask,001,059,
min1.png,min2.png,min3.png,min4.png,allBlank.png,,,,['num_7'],,,,,,0,4,4,4,,,,,,,,,['num_7'],5,0.0483298659819,1,['num_7'],0,[1.080505058667768],,2018_Apr_03_1715,60.114062628,sequenceLearningTask,001,059,
min1.png,min2.png,min3.png,min4.png,allBlank.png,,,,['num_1'],,,,,,0,4,4,4,,,,,,,,,['num_1'],5,0.0527528421553,1,['num_1'],0,[4.208894034418336],,2018_Apr_03_1715,60.114062628,sequenceLearningTask,001,059,
min1.png,min2.png,min3.png,min4.png,allBlank.png,,,,['num_4'],,,,,,0,4,4,4,,,,,,,,,['num_4'],5,0.0528898678531,1,['num_4'],0,[1.2087307522997435],,2018_Apr_03_1715,60.114062628,sequenceLearningTask,001,059,
min1.png,min2.png,min3.png,min4.png,allBlank.png,,,,['num_0'],,,,,,0,4,4,4,,,,,,,,,['num_0'],5,0.0527659703657,1,['num_0'],0,[0.8754013847792521],,2018_Apr_03_1715,60.114062628,sequenceLearningTask,001,059,
min1.png,min2.png,min3.png,min4.png,allBlank.png,,,,['num_0'],,,,,,0,4,4,4,,,,,,,,,['num_0'],5,0.0569563310564,1,['num_0'],0,[1.1210679471078038],,2018_Apr_03_1715,60.114062628,sequenceLearningTask,001,059,
min1.png,min2.png,min3.png,min4.png,allBlank.png,,,,['num_4'],,,,,,0,4,4,4,,,,,,,,,['num_4'],5,0.0546244326652,1,['num_4'],0,[1.5902459857425129],,2018_Apr_03_1715,60.114062628,sequenceLearningTask,001,059,
min1.png,min2.png,min3.png,min4.png,allBlank.png,,,,['num_1'],,,,,,0,4,4,4,,,,,,,,,['num_1'],5,0.0462494548738,1,['num_1'],0,[1.0815430078146164],,2018_Apr_03_1715,60.114062628,sequenceLearningTask,001,059,
min1.png,min2.png,min3.png,min4.png,allBlank.png,,,,['num_0'],,,,,,0,4,4,4,,,,,,,,,['num_0'],5,0.0529325345378,1,['num_0'],0,[0.6416158529718814],,2018_Apr_03_1715,60.114062628,sequenceLearningTask,001,059,
min1.png,min2.png,min3.png,min4.png,allBlank.png,,,,['num_7'],,,,,,0,5,5,5,,,,,,,,,['num_7'],6,0.0555544843301,1,['num_7'],0,[1.1539016015995003],,2018_Apr_03_1715,60.114062628,sequenceLearningTask,001,059,
min1.png,min2.png,min3.png,min4.png,allBlank.png,,,,['num_1'],,,,,,0,5,5,5,,,,,,,,,['num_1'],6,0.051536021143,1,['num_1'],0,[5.325277671909134],,2018_Apr_03_1715,60.114062628,sequenceLearningTask,001,059,
min1.png,min2.png,min3.png,min4.png,allBlank.png,,,,['num_4'],,,,,,0,5,5,5,,,,,,,,,['num_4'],6,0.0493005330463,1,['num_4'],0,[1.3450491672010685],,2018_Apr_03_1715,60.114062628,sequenceLearningTask,001,059,
min1.png,min2.png,min3.png,min4.png,allBlank.png,,,,['num_0'],,,,,,0,5,5,5,,,,,,,,,['num_0'],6,0.0479479171081,1,['num_0'],0,[1.663023861754482],,2018_Apr_03_1715,60.114062628,sequenceLearningTask,001,059,
min1.png,min2.png,min3.png,min4.png,allBlank.png,,,,['num_0'],,,,,,0,5,5,5,,,,,,,,,['num_0'],6,0.0477304811211,1,['num_0'],0,[0.8489804508644738],,2018_Apr_03_1715,60.114062628,sequenceLearningTask,001,059,
min1.png,min2.png,min3.png,min4.png,allBlank.png,,,,['num_4'],,,,,,0,5,5,5,,,,,,,,,['num_4'],6,0.0528057652518,1,['num_4'],0,[2.0087540548738616],,2018_Apr_03_1715,60.114062628,sequenceLearningTask,001,059,
min1.png,min2.png,min3.png,min4.png,allBlank.png,,,,['num_1'],,,,,,0,5,5,5,,,,,,,,,['num_1'],6,0.0559220742252,1,['num_1'],0,[1.9066543206790811],,2018_Apr_03_1715,60.114062628,sequenceLearningTask,001,059,
min1.png,min2.png,min3.png,min4.png,allBlank.png,,,,['num_0'],,,,,,0,5,5,5,,,,,,,,,['num_0'],6,0.0541731504272,1,['num_0'],0,[1.2084690086048795],,2018_Apr_03_1715,60.114062628,sequenceLearningTask,001,059,
min1.png,min2.png,min3.png,min4.png,allBlank.png,,,,['num_7'],,,,,,0,6,6,6,,,,,,,,,['num_7'],7,0.0500525333555,1,['num_7'],0,[1.8765525647395407],,2018_Apr_03_1715,60.114062628,sequenceLearningTask,001,059,
min1.png,min2.png,min3.png,min4.png,allBlank.png,,,,['num_1'],,,,,,0,6,6,6,,,,,,,,,['num_1'],7,0.059738280921,1,['num_1'],0,[1.2172238839921192],,2018_Apr_03_1715,60.114062628,sequenceLearningTask,001,059,
min1.png,min2.png,min3.png,min4.png,allBlank.png,,,,['num_4'],,,,,,0,6,6,6,,,,,,,,,['num_4'],7,0.0533481244493,1,['num_4'],0,[4.191829822288128],,2018_Apr_03_1715,60.114062628,sequenceLearningTask,001,059,
min1.png,min2.png,min3.png,min4.png,allBlank.png,,,,['num_0'],,,,,,0,6,6,6,,,,,,,,,['num_0'],7,0.0606982813115,0,"['num_1', 'num_0']",0,"[1.316843617165432, 2.233356403427024]",,2018_Apr_03_1715,60.114062628,sequenceLearningTask,001,059,
min1.png,min2.png,min3.png,min4.png,allBlank.png,,,,['num_0'],,,,,,0,6,6,6,,,,,,,,,['num_0'],7,0.0558753049736,1,['num_0'],0,[1.0886457799570053],,2018_Apr_03_1715,60.114062628,sequenceLearningTask,001,059,
min1.png,min2.png,min3.png,min4.png,allBlank.png,,,,['num_4'],,,,,,0,6,6,6,,,,,,,,,['num_4'],7,0.0541317145144,1,['num_4'],0,[0.9902555857443076],,2018_Apr_03_1715,60.114062628,sequenceLearningTask,001,059,
min1.png,min2.png,min3.png,min4.png,allBlank.png,,,,['num_1'],,,,,,0,6,6,6,,,,,,,,,['num_1'],7,0.0487790969346,1,['num_1'],0,[0.8957538033864694],,2018_Apr_03_1715,60.114062628,sequenceLearningTask,001,059,
min1.png,min2.png,min3.png,min4.png,allBlank.png,,,,['num_0'],,,,,,0,6,6,6,,,,,,,,,['num_0'],7,0.058559613768,1,['num_0'],0,[1.2025699292607896],,2018_Apr_03_1715,60.114062628,sequenceLearningTask,001,059,
min1.png,min2.png,min3.png,min4.png,allBlank.png,,,,['num_7'],,,,,,0,7,7,7,,,,,,,,,['num_7'],8,0.0521661752464,1,['num_7'],0,[0.9576561877584027],,2018_Apr_03_1715,60.114062628,sequenceLearningTask,001,059,
min1.png,min2.png,min3.png,min4.png,allBlank.png,,,,['num_1'],,,,,,0,7,7,7,,,,,,,,,['num_1'],8,0.0629399232566,1,['num_1'],0,[0.9151712472485087],,2018_Apr_03_1715,60.114062628,sequenceLearningTask,001,059,
min1.png,min2.png,min3.png,min4.png,allBlank.png,,,,['num_4'],,,,,,0,7,7,7,,,,,,,,,['num_4'],8,0.0509690465515,1,['num_4'],0,[1.0771101854807057],,2018_Apr_03_1715,60.114062628,sequenceLearningTask,001,059,
min1.png,min2.png,min3.png,min4.png,allBlank.png,,,,['num_0'],,,,,,0,7,7,7,,,,,,,,,['num_0'],8,0.050310584742,1,['num_0'],0,[0.7110825481358916],,2018_Apr_03_1715,60.114062628,sequenceLearningTask,001,059,
min1.png,min2.png,min3.png,min4.png,allBlank.png,,,,['num_0'],,,,,,0,7,7,7,,,,,,,,,['num_0'],8,0.0561509973959,0,"['num_1', 'num_0']",0,"[1.0545436121210514, 1.7388483031172655]",,2018_Apr_03_1715,60.114062628,sequenceLearningTask,001,059,
min1.png,min2.png,min3.png,min4.png,allBlank.png,,,,['num_4'],,,,,,0,7,7,7,,,,,,,,,['num_4'],8,0.0517214571155,1,['num_4'],0,[1.176116174818162],,2018_Apr_03_1715,60.114062628,sequenceLearningTask,001,059,
min1.png,min2.png,min3.png,min4.png,allBlank.png,,,,['num_1'],,,,,,0,7,7,7,,,,,,,,,['num_1'],8,0.0537957143788,1,['num_1'],0,[0.9899967138444481],,2018_Apr_03_1715,60.114062628,sequenceLearningTask,001,059,
min1.png,min2.png,min3.png,min4.png,allBlank.png,,,,['num_0'],,,,,,0,7,7,7,,,,,,,,,['num_0'],8,0.0550880226001,0,"['num_1', 'num_0']",0,"[0.8727297939403797, 1.838958703163371]",,2018_Apr_03_1715,60.114062628,sequenceLearningTask,001,059,
min1.png,min2.png,min3.png,min4.png,allBlank.png,,,,['num_7'],,,,,,0,8,8,8,,,,,,,,,['num_7'],9,0.057971305836,1,['num_7'],0,[1.3345088551832305],,2018_Apr_03_1715,60.114062628,sequenceLearningTask,001,059,
min1.png,min2.png,min3.png,min4.png,allBlank.png,,,,['num_1'],,,,,,0,8,8,8,,,,,,,,,['num_1'],9,0.0479688401938,1,['num_1'],0,[1.5469331474596402],,2018_Apr_03_1715,60.114062628,sequenceLearningTask,001,059,
min1.png,min2.png,min3.png,min4.png,allBlank.png,,,,['num_4'],,,,,,0,8,8,8,,,,,,,,,['num_4'],9,0.0521169444582,1,['num_4'],0,[3.0089337472527404],,2018_Apr_03_1715,60.114062628,sequenceLearningTask,001,059,
min1.png,min2.png,min3.png,min4.png,allBlank.png,,,,['num_0'],,,,,,0,8,8,8,,,,,,,,,['num_0'],9,0.0546195095885,1,['num_0'],0,[0.605963325520861],,2018_Apr_03_1715,60.114062628,sequenceLearningTask,001,059,
min1.png,min2.png,min3.png,min4.png,allBlank.png,,,,['num_0'],,,,,,0,8,8,8,,,,,,,,,['num_0'],9,0.0512714056495,1,['num_0'],0,[0.775580625879229],,2018_Apr_03_1715,60.114062628,sequenceLearningTask,001,059,
min1.png,min2.png,min3.png,min4.png,allBlank.png,,,,['num_4'],,,,,,0,8,8,8,,,,,,,,,['num_4'],9,0.0484082249895,1,['num_4'],0,[1.0633308977776323],,2018_Apr_03_1715,60.114062628,sequenceLearningTask,001,059,
min1.png,min2.png,min3.png,min4.png,allBlank.png,,,,['num_1'],,,,,,0,8,8,8,,,,,,,,,['num_1'],9,0.0464898652281,1,['num_1'],0,[1.482218454242684],,2018_Apr_03_1715,60.114062628,sequenceLearningTask,001,059,
min1.png,min2.png,min3.png,min4.png,allBlank.png,,,,['num_0'],,,,,,0,8,8,8,,,,,,,,,['num_0'],9,0.0480160197003,1,['num_0'],0,[0.580579520235915],,2018_Apr_03_1715,60.114062628,sequenceLearningTask,001,059,
min1.png,min2.png,min3.png,min4.png,allBlank.png,,,,['num_7'],,,,,,0,9,9,9,,,,,,,,,['num_7'],10,0.0513054569492,1,['num_7'],0,[1.0754666976245062],,2018_Apr_03_1715,60.114062628,sequenceLearningTask,001,059,
min1.png,min2.png,min3.png,min4.png,allBlank.png,,,,['num_1'],,,,,,0,9,9,9,,,,,,,,,['num_1'],10,0.050131302618,0,"['num_4', 'num_1']",0,"[1.2448091260739602, 2.2763997031397594]",,2018_Apr_03_1715,60.114062628,sequenceLearningTask,001,059,
min1.png,min2.png,min3.png,min4.png,allBlank.png,,,,['num_4'],,,,,,0,9,9,9,,,,,,,,,['num_4'],10,0.0521136624084,1,['num_4'],0,[1.1755623284334433],,2018_Apr_03_1715,60.114062628,sequenceLearningTask,001,059,
min1.png,min2.png,min3.png,min4.png,allBlank.png,,,,['num_0'],,,,,,0,9,9,9,,,,,,,,,['num_0'],10,0.0525932523451,1,['num_0'],0,[0.7416150734825351],,2018_Apr_03_1715,60.114062628,sequenceLearningTask,001,059,
min1.png,min2.png,min3.png,min4.png,allBlank.png,,,,['num_0'],,,,,,0,9,9,9,,,,,,,,,['num_0'],10,0.0492525330264,1,['num_0'],0,[1.145031033858686],,2018_Apr_03_1715,60.114062628,sequenceLearningTask,001,059,
min1.png,min2.png,min3.png,min4.png,allBlank.png,,,,['num_4'],,,,,,0,9,9,9,,,,,,,,,['num_4'],10,0.0525243292432,1,['num_4'],0,[1.2084004957541765],,2018_Apr_03_1715,60.114062628,sequenceLearningTask,001,059,
min1.png,min2.png,min3.png,min4.png,allBlank.png,,,,['num_1'],,,,,,0,9,9,9,,,,,,,,,['num_1'],10,0.0458695572779,1,['num_1'],0,[1.8325804441337823],,2018_Apr_03_1715,60.114062628,sequenceLearningTask,001,059,
min1.png,min2.png,min3.png,min4.png,allBlank.png,,,,['num_0'],,,,,,0,9,9,9,,,,,,,,,['num_0'],10,0.0693362335733,1,['num_0'],0,[0.5570841259832378],,2018_Apr_03_1715,60.114062628,sequenceLearningTask,001,059,
min1.png,min2.png,min3.png,min4.png,allBlank.png,,,,,,,,,,0,9,9,9,,,,,0,-1,-1,0,,,,,,,,,2018_Apr_03_1715,60.114062628,sequenceLearningTask,001,059,
