pawPatrol1,pawPatrol2,pawPatrol3,pawPatrol4,blank,trials.thisRepN,trials.thisTrialN,trials.thisN,trials.thisIndex,trials_3.thisRepN,trials_3.thisTrialN,trials_3.thisN,trials_3.thisIndex,correctKey,repetitionNumber,stimulusPresent.t,trialCorrect,key_resp_9.keys,key_resp_9.corr,key_resp_9.rt,date,frameRate,expName,session,participant,
min1.png,min2.png,min3.png,min4.png,allBlank.png,,,,,0,0,0,0,['num_7'],1,0.0684718229604,1,['num_7'],0,[0.6604187324774102],2018_Apr_03_1637,59.9959879595,sequenceLearningTask,001,058,
min1.png,min2.png,min3.png,min4.png,allBlank.png,,,,,0,0,0,0,['num_1'],1,0.0619618715755,0,"['num_4', 'num_1']",0,"[0.5659206424279546, 4.633195336697099]",2018_Apr_03_1637,59.9959879595,sequenceLearningTask,001,058,
min1.png,min2.png,min3.png,min4.png,allBlank.png,,,,,0,0,0,0,['num_4'],1,0.0572242286034,1,['num_4'],0,[2.6039772734293365],2018_Apr_03_1637,59.9959879595,sequenceLearningTask,001,058,
min1.png,min2.png,min3.png,min4.png,allBlank.png,,,,,0,0,0,0,['num_0'],1,0.0521288419004,1,['num_0'],0,[1.243155381805991],2018_Apr_03_1637,59.9959879595,sequenceLearningTask,001,058,
min1.png,min2.png,min3.png,min4.png,allBlank.png,,,,,0,0,0,0,['num_0'],1,0.0566556129852,1,['num_0'],0,[4.454342750497744],2018_Apr_03_1637,59.9959879595,sequenceLearningTask,001,058,
min1.png,min2.png,min3.png,min4.png,allBlank.png,,,,,0,0,0,0,['num_4'],1,0.0598773579004,1,['num_4'],0,[2.251150872267317],2018_Apr_03_1637,59.9959879595,sequenceLearningTask,001,058,
min1.png,min2.png,min3.png,min4.png,allBlank.png,,,,,0,0,0,0,['num_1'],1,0.0585747932637,1,['num_1'],0,[1.404433806947054],2018_Apr_03_1637,59.9959879595,sequenceLearningTask,001,058,
min1.png,min2.png,min3.png,min4.png,allBlank.png,,,,,0,0,0,0,['num_0'],1,0.0608197172587,1,['num_0'],0,[1.6495768818749639],2018_Apr_03_1637,59.9959879595,sequenceLearningTask,001,058,
min1.png,min2.png,min3.png,min4.png,allBlank.png,,,,,0,1,1,1,['num_7'],2,0.0603713068194,1,['num_7'],0,[0.9489669534195855],2018_Apr_03_1637,59.9959879595,sequenceLearningTask,001,058,
min1.png,min2.png,min3.png,min4.png,allBlank.png,,,,,0,1,1,1,['num_1'],2,0.0619733587591,1,['num_1'],0,[1.9158986321635894],2018_Apr_03_1637,59.9959879595,sequenceLearningTask,001,058,
min1.png,min2.png,min3.png,min4.png,allBlank.png,,,,,0,1,1,1,['num_4'],2,0.0551413559551,0,"['num_4', 'num_4', 'num_1', 'num_7', 'num_4', 'num_1', 'num_4', 'num_1', 'num_4', 'num_1', 'num_4', 'num_1', 'num_4']",0,"[0.000419282223447226, 2.4898381496750517, 2.523351599320449, 3.6896400777986855, 4.690077821567684, 5.323408542935795, 6.156942833615176, 6.5900178830816]",2018_Apr_03_1637,59.9959879595,sequenceLearningTask,001,058,
min1.png,min2.png,min3.png,min4.png,allBlank.png,,,,,0,1,1,1,['num_0'],2,0.0503101744871,0,"['num_4', 'num_0']",0,"[0.0004910771240247414, 1.1609018096023647]",2018_Apr_03_1637,59.9959879595,sequenceLearningTask,001,058,
min1.png,min2.png,min3.png,min4.png,allBlank.png,,,,,0,1,1,1,['num_0'],2,0.0582724341621,1,['num_0'],0,[0.8200639261813194],2018_Apr_03_1637,59.9959879595,sequenceLearningTask,001,058,
min1.png,min2.png,min3.png,min4.png,allBlank.png,,,,,0,1,1,1,['num_4'],2,0.0561464845741,1,['num_4'],0,[2.2210035778480233],2018_Apr_03_1637,59.9959879595,sequenceLearningTask,001,058,
min1.png,min2.png,min3.png,min4.png,allBlank.png,,,,,0,1,1,1,['num_1'],2,0.0488262764411,0,"['num_7', 'num_1', 'num_0', 'num_7', 'num_0', 'num_4', 'num_0', 'num_1']",0,"[0.0003265642371843569, 1.4130442720197607, 2.36088671215839, 3.246224921527755, 4.246972409015143]",2018_Apr_03_1637,59.9959879595,sequenceLearningTask,001,058,
min1.png,min2.png,min3.png,min4.png,allBlank.png,,,,,0,1,1,1,['num_0'],2,0.052729047271,1,['num_0'],0,[2.8419240377152164],2018_Apr_03_1637,59.9959879595,sequenceLearningTask,001,058,
min1.png,min2.png,min3.png,min4.png,allBlank.png,,,,,0,2,2,2,['num_7'],3,0.0529764319872,0,"['num_0', 'num_7']",0,"[0.2732247274798283, 0.3399143958631612]",2018_Apr_03_1637,59.9959879595,sequenceLearningTask,001,058,
min1.png,min2.png,min3.png,min4.png,allBlank.png,,,,,0,2,2,2,['num_1'],3,0.0529694576289,0,"['num_4', 'num_7', 'num_1']",0,"[0.9412217194767436, 0.974672399868723, 0.991405534936348]",2018_Apr_03_1637,59.9959879595,sequenceLearningTask,001,058,
min1.png,min2.png,min3.png,min4.png,allBlank.png,,,,,0,2,2,2,['num_4'],3,0.0568837156461,0,"['num_7', 'num_0', 'num_7', 'num_1', 'num_7', 'num_4', 'num_1', 'num_0', 'num_7', 'num_4', 'num_0', 'num_1', 'num_4']",0,"[0.1198137927458447, 0.586816651000845, 0.6374135948353796, 0.6875650000292808, 1.4574758799899428, 2.520425649407116, 2.6204613827540015, 2.636954517725826, 3.5706989007994707]",2018_Apr_03_1637,59.9959879595,sequenceLearningTask,001,058,
min1.png,min2.png,min3.png,min4.png,allBlank.png,,,,,0,2,2,2,['num_0'],3,0.0576472031389,0,"['num_7', 'num_1', 'num_0', 'num_7', 'num_4', 'num_1', 'num_0']",0,"[0.0004000001645181328, 0.7707818546805356, 0.8207982854546572, 1.1205461007375561, 1.4539612118824152]",2018_Apr_03_1637,59.9959879595,sequenceLearningTask,001,058,
min1.png,min2.png,min3.png,min4.png,allBlank.png,,,,,0,2,2,2,['num_0'],3,0.0607667941622,1,['num_0'],0,[0.5820072131318739],2018_Apr_03_1637,59.9959879595,sequenceLearningTask,001,058,
min1.png,min2.png,min3.png,min4.png,allBlank.png,,,,,0,2,2,2,['num_4'],3,0.0483208403384,0,"['num_7', 'num_4', 'num_0', 'num_7', 'num_0', 'num_7', 'num_7', 'num_4']",0,"[0.0003175385900249239, 0.4970020500550163, 0.6634386311561684, 1.5476851477687887, 1.5800010584644042, 2.2296066583003267, 2.946580490905035]",2018_Apr_03_1637,59.9959879595,sequenceLearningTask,001,058,
min1.png,min2.png,min3.png,min4.png,allBlank.png,,,,,0,2,2,2,['num_1'],3,0.0454465827461,0,"['num_7', 'num_1']",0,"[0.00041558991142665036, 0.6650427343738556]",2018_Apr_03_1637,59.9959879595,sequenceLearningTask,001,058,
min1.png,min2.png,min3.png,min4.png,allBlank.png,,,,,0,2,2,2,['num_0'],3,0.0534256629435,1,['num_0'],0,[1.307537767195754],2018_Apr_03_1637,59.9959879595,sequenceLearningTask,001,058,
min1.png,min2.png,min3.png,min4.png,allBlank.png,,,,,0,3,3,3,['num_7'],4,0.0551959200784,1,['num_7'],0,[3.0702675160064246],2018_Apr_03_1637,59.9959879595,sequenceLearningTask,001,058,
min1.png,min2.png,min3.png,min4.png,allBlank.png,,,,,0,3,3,3,['num_1'],4,0.0521649444781,1,['num_1'],0,[2.375843436246214],2018_Apr_03_1637,59.9959879595,sequenceLearningTask,001,058,
min1.png,min2.png,min3.png,min4.png,allBlank.png,,,,,0,3,3,3,['num_4'],4,0.0593583833252,0,"['num_4', 'num_4']",0,"[0.0003085129465034697, 2.3364423944367445]",2018_Apr_03_1637,59.9959879595,sequenceLearningTask,001,058,
min1.png,min2.png,min3.png,min4.png,allBlank.png,,,,,0,3,3,3,['num_0'],4,0.0582662803135,1,['num_0'],0,[0.9030842679312627],2018_Apr_03_1637,59.9959879595,sequenceLearningTask,001,058,
min1.png,min2.png,min3.png,min4.png,allBlank.png,,,,,0,3,3,3,['num_0'],4,0.0577366390717,1,['num_0'],0,[0.8869661074713804],2018_Apr_03_1637,59.9959879595,sequenceLearningTask,001,058,
min1.png,min2.png,min3.png,min4.png,allBlank.png,,,,,0,3,3,3,['num_4'],4,0.0524533548523,1,['num_4'],0,[2.0247433947661193],2018_Apr_03_1637,59.9959879595,sequenceLearningTask,001,058,
min1.png,min2.png,min3.png,min4.png,allBlank.png,,,,,0,3,3,3,['num_1'],4,0.0510149952861,0,"['num_7', 'num_4', 'num_7', 'num_4', 'num_0', 'num_1']",0,"[0.0003265642371843569, 0.5933069100756256, 0.6598554501979379, 1.5775579805376765, 1.976805734073423, 2.97684922127155]",2018_Apr_03_1637,59.9959879595,sequenceLearningTask,001,058,
min1.png,min2.png,min3.png,min4.png,allBlank.png,,,,,0,3,3,3,['num_0'],4,0.0586297676455,0,"['num_1', 'num_0', 'num_4', 'num_0']",0,"[0.568343207527505, 1.168388171648985, 1.9346182295885228]",2018_Apr_03_1637,59.9959879595,sequenceLearningTask,001,058,
min1.png,min2.png,min3.png,min4.png,allBlank.png,,,,,0,4,4,4,['num_7'],5,0.057460126136,0,"['num_4', 'num_1', 'num_0', 'num_0', 'num_7']",0,"[0.0003015385846083518, 0.1350540041239583, 0.2684583665468381]",2018_Apr_03_1637,59.9959879595,sequenceLearningTask,001,058,
min1.png,min2.png,min3.png,min4.png,allBlank.png,,,,,0,4,4,4,['num_1'],5,0.0536106886611,0,"['num_7', 'num_4', 'num_1']",0,"[0.5413922221086978, 0.557434895355982, 0.5743973638564057]",2018_Apr_03_1637,59.9959879595,sequenceLearningTask,001,058,
min1.png,min2.png,min3.png,min4.png,allBlank.png,,,,,0,4,4,4,['num_4'],5,0.0548139712046,0,"['num_0', 'num_7', 'num_4', 'num_1', 'num_0', 'num_7', 'num_4', 'num_1', 'num_0', 'num_7', 'num_0', 'num_1', 'num_4']",0,"[0.0005558976627071388, 0.4752067590598017, 1.0739044405781897, 1.9565743411585572, 1.9725690143859538, 2.005881438311917]",2018_Apr_03_1637,59.9959879595,sequenceLearningTask,001,058,
min1.png,min2.png,min3.png,min4.png,allBlank.png,,,,,0,4,4,4,['num_0'],5,0.0693936694952,1,['num_0'],0,[0.523344624962192],2018_Apr_03_1637,59.9959879595,sequenceLearningTask,001,058,
min1.png,min2.png,min3.png,min4.png,allBlank.png,,,,,0,4,4,4,['num_0'],5,0.057277972217,0,"['num_7', 'num_4', 'num_1', 'num_7', 'num_4', 'num_1', 'num_0']",0,"[0.00036512835504254326, 0.8209254649955255, 0.8370641382825852]",2018_Apr_03_1637,59.9959879595,sequenceLearningTask,001,058,
min1.png,min2.png,min3.png,min4.png,allBlank.png,,,,,0,4,4,4,['num_4'],5,0.0559077152429,0,"['num_7', 'num_4', 'num_0', 'num_1', 'num_0', 'num_7', 'num_4', 'num_1', 'num_7', 'num_4', 'num_1', 'num_0', 'num_7', 'num_4', 'num_1', 'num_0', 'num_7', 'num_4', 'num_1', 'num_0', 'num_7', 'num_7', 'num_7', 'num_4', 'num_1', 'num_0', 'num_4']",0,"[0.537919810427411, 0.604360863326292, 0.6206607674503175, 1.6720626346941572, 1.721587578089384, 1.7541914889006875, 2.7870870921397, 2.855549889456597, 3.770178367252811, 3.823292235196277, 4.1884550516733725, 4.220763988007093, 4.520830572648265, 4.770092623628443, 5.4053281662891095, 5.55463079164474, 6.504101540143893]",2018_Apr_03_1637,59.9959879595,sequenceLearningTask,001,058,
min1.png,min2.png,min3.png,min4.png,allBlank.png,,,,,0,4,4,4,['num_1'],5,0.0519786879922,0,"['num_1', 'num_0', 'num_1']",0,"[0.0003212308984075207, 0.12566405155303073, 0.4422615147741453]",2018_Apr_03_1637,59.9959879595,sequenceLearningTask,001,058,
min1.png,min2.png,min3.png,min4.png,allBlank.png,,,,,0,4,4,4,['num_0'],5,0.0551224841511,0,"['num_0', 'num_7', 'num_0', 'num_7', 'num_7', 'num_0']",0,"[0.0006051284544810187, 0.08895962623864762, 0.3392079340337659, 0.35559768434541184]",2018_Apr_03_1637,59.9959879595,sequenceLearningTask,001,058,
min1.png,min2.png,min3.png,min4.png,allBlank.png,,,,,0,5,5,5,['num_7'],6,0.054845971219,0,"['num_4', 'num_1', 'num_7', 'num_4', 'num_0', 'num_1', 'num_0', 'num_7']",0,"[0.00027651293567032553, 0.32053264432033757]",2018_Apr_03_1637,59.9959879595,sequenceLearningTask,001,058,
min1.png,min2.png,min3.png,min4.png,allBlank.png,,,,,0,5,5,5,['num_1'],6,0.0495983793226,0,"['num_1', 'num_4', 'num_1']",0,"[0.0002633847216202412, 8.162995759175828, 9.228947786232311]",2018_Apr_03_1637,59.9959879595,sequenceLearningTask,001,058,
min1.png,min2.png,min3.png,min4.png,allBlank.png,,,,,0,5,5,5,['num_4'],6,0.0601411528769,0,"['num_4', 'num_7', 'num_4']",0,"[0.0003015385846083518, 4.651162523554376, 5.517290058374783]",2018_Apr_03_1637,59.9959879595,sequenceLearningTask,001,058,
min1.png,min2.png,min3.png,min4.png,allBlank.png,,,,,0,5,5,5,['num_0'],6,0.0549440225404,0,"['num_4', 'num_4', 'num_0']",0,"[0.0005915899855608586, 0.08943552387063392, 3.522364521995769]",2018_Apr_03_1637,59.9959879595,sequenceLearningTask,001,058,
min1.png,min2.png,min3.png,min4.png,allBlank.png,,,,,0,5,5,5,['num_0'],6,0.052653560062,0,"['num_0', 'num_1', 'num_0']",0,"[0.00029989755785209127, 0.03963899062364362, 0.8581037366602686]",2018_Apr_03_1637,59.9959879595,sequenceLearningTask,001,058,
min1.png,min2.png,min3.png,min4.png,allBlank.png,,,,,0,5,5,5,['num_4'],6,0.0591606396556,1,['num_4'],0,[20.616616868355777],2018_Apr_03_1637,59.9959879595,sequenceLearningTask,001,058,
min1.png,min2.png,min3.png,min4.png,allBlank.png,,,,,0,5,5,5,['num_1'],6,0.0541276119475,0,"['num_4', 'num_1']",0,"[0.00026748728851089254, 1.7736442148270726]",2018_Apr_03_1637,59.9959879595,sequenceLearningTask,001,058,
min1.png,min2.png,min3.png,min4.png,allBlank.png,,,,,0,5,5,5,['num_0'],6,0.0512849441184,1,['num_0'],0,[0.7597709783658502],2018_Apr_03_1637,59.9959879595,sequenceLearningTask,001,058,
min1.png,min2.png,min3.png,min4.png,allBlank.png,,,,,0,6,6,6,['num_7'],7,0.0635101799016,1,['num_7'],0,[0.9959380496147787],2018_Apr_03_1637,59.9959879595,sequenceLearningTask,001,058,
min1.png,min2.png,min3.png,min4.png,allBlank.png,,,,,0,6,6,6,['num_1'],7,0.0614264867399,1,['num_1'],0,[2.6156765602790983],2018_Apr_03_1637,59.9959879595,sequenceLearningTask,001,058,
min1.png,min2.png,min3.png,min4.png,allBlank.png,,,,,0,6,6,6,['num_4'],7,0.0549998174356,1,['num_4'],0,[5.437970641218271],2018_Apr_03_1637,59.9959879595,sequenceLearningTask,001,058,
min1.png,min2.png,min3.png,min4.png,allBlank.png,,,,,0,6,6,6,['num_0'],7,0.0536738681731,1,['num_0'],0,[1.6741992509560077],2018_Apr_03_1637,59.9959879595,sequenceLearningTask,001,058,
min1.png,min2.png,min3.png,min4.png,allBlank.png,,,,,0,6,6,6,['num_0'],7,0.0570802285474,1,['num_0'],0,[1.137821184747736],2018_Apr_03_1637,59.9959879595,sequenceLearningTask,001,058,
min1.png,min2.png,min3.png,min4.png,allBlank.png,,,,,0,6,6,6,['num_4'],7,0.0495671998215,1,['num_4'],0,[3.029874473795644],2018_Apr_03_1637,59.9959879595,sequenceLearningTask,001,058,
min1.png,min2.png,min3.png,min4.png,allBlank.png,,,,,0,6,6,6,['num_1'],7,0.0480673017701,1,['num_1'],0,[23.27829180648041],2018_Apr_03_1637,59.9959879595,sequenceLearningTask,001,058,
min1.png,min2.png,min3.png,min4.png,allBlank.png,,,,,0,6,6,6,['num_0'],7,0.0532422782526,1,['num_0'],0,[1.8412458835882717],2018_Apr_03_1637,59.9959879595,sequenceLearningTask,001,058,
min1.png,min2.png,min3.png,min4.png,allBlank.png,,,,,0,7,7,7,['num_7'],8,0.0586252548201,1,['num_7'],0,[1.9343109474066296],2018_Apr_03_1637,59.9959879595,sequenceLearningTask,001,058,
min1.png,min2.png,min3.png,min4.png,allBlank.png,,,,,0,7,7,7,['num_1'],8,0.0553903816981,1,['num_1'],0,[1.921652480679768],2018_Apr_03_1637,59.9959879595,sequenceLearningTask,001,058,
min1.png,min2.png,min3.png,min4.png,allBlank.png,,,,,0,7,7,7,['num_4'],8,0.0511786876632,1,['num_4'],0,[1.5771522367795114],2018_Apr_03_1637,59.9959879595,sequenceLearningTask,001,058,
min1.png,min2.png,min3.png,min4.png,allBlank.png,,,,,0,7,7,7,['num_0'],8,0.0563516128605,1,['num_0'],0,[0.804862278917426],2018_Apr_03_1637,59.9959879595,sequenceLearningTask,001,058,
min1.png,min2.png,min3.png,min4.png,allBlank.png,,,,,0,7,7,7,['num_0'],8,0.0566954078749,0,"['num_1', 'num_0']",0,"[0.0004123078615521081, 0.887681184689427]",2018_Apr_03_1637,59.9959879595,sequenceLearningTask,001,058,
min1.png,min2.png,min3.png,min4.png,allBlank.png,,,,,0,7,7,7,['num_4'],8,0.0495528408428,1,['num_4'],0,[2.378393180879357],2018_Apr_03_1637,59.9959879595,sequenceLearningTask,001,058,
min1.png,min2.png,min3.png,min4.png,allBlank.png,,,,,0,7,7,7,['num_1'],8,0.0504119181169,1,['num_1'],0,[1.6442111360884155],2018_Apr_03_1637,59.9959879595,sequenceLearningTask,001,058,
min1.png,min2.png,min3.png,min4.png,allBlank.png,,,,,0,7,7,7,['num_0'],8,0.0589386908468,1,['num_0'],0,[1.4526467498035345],2018_Apr_03_1637,59.9959879595,sequenceLearningTask,001,058,
min1.png,min2.png,min3.png,min4.png,allBlank.png,,,,,0,8,8,8,['num_7'],9,0.0420016582575,1,['num_7'],0,[1.5530422781703237],2018_Apr_03_1637,59.9959879595,sequenceLearningTask,001,058,
min1.png,min2.png,min3.png,min4.png,allBlank.png,,,,,0,8,8,8,['num_1'],9,0.0541768427393,0,"['num_0', 'num_1']",0,"[2.4062816025762004, 3.3569429156668775]",2018_Apr_03_1637,59.9959879595,sequenceLearningTask,001,058,
min1.png,min2.png,min3.png,min4.png,allBlank.png,,,,,0,8,8,8,['num_4'],9,0.0586613574014,1,['num_4'],0,[0.8030669961299282],2018_Apr_03_1637,59.9959879595,sequenceLearningTask,001,058,
min1.png,min2.png,min3.png,min4.png,allBlank.png,,,,,0,8,8,8,['num_0'],9,0.0443052489463,0,"['num_7', 'num_1', 'num_0', 'num_4', 'num_0', 'num_7', 'num_1', 'num_1', 'num_4', 'num_0', 'num_7', 'num_7', 'num_4', 'num_4', 'num_1', 'num_1', 'num_0']",0,"[0.0002806154989229981, 0.6537418066654936, 0.6678595560442773, 0.701025108111935, 1.3672826122201513, 1.384064157566172, 1.4507316720955714, 2.036729861221829, 2.5668806428220705, 2.983853942096175, 3.7005307489380357, 4.016698673516657]",2018_Apr_03_1637,59.9959879595,sequenceLearningTask,001,058,
min1.png,min2.png,min3.png,min4.png,allBlank.png,,,,,0,8,8,8,['num_0'],9,0.0584828957908,0,"['num_0', 'num_0']",0,"[0.03399468061252264, 0.5694673105499533]",2018_Apr_03_1637,59.9959879595,sequenceLearningTask,001,058,
min1.png,min2.png,min3.png,min4.png,allBlank.png,,,,,0,8,8,8,['num_4'],9,0.0556590997585,1,['num_4'],0,[1.2370072767189413],2018_Apr_03_1637,59.9959879595,sequenceLearningTask,001,058,
min1.png,min2.png,min3.png,min4.png,allBlank.png,,,,,0,8,8,8,['num_1'],9,0.062399205086,0,"['num_7', 'num_4', 'num_7', 'num_1']",0,"[0.0003470770643616561, 2.6981110556371277, 2.714851575325156, 3.365359329378407]",2018_Apr_03_1637,59.9959879595,sequenceLearningTask,001,058,
min1.png,min2.png,min3.png,min4.png,allBlank.png,,,,,0,8,8,8,['num_0'],9,0.0553070996102,0,"['num_1', 'num_0']",0,"[0.9394407956679061, 1.7894169392493495]",2018_Apr_03_1637,59.9959879595,sequenceLearningTask,001,058,
min1.png,min2.png,min3.png,min4.png,allBlank.png,,,,,0,9,9,9,['num_7'],10,0.0540820734714,0,"['num_0', 'num_0', 'num_0', 'num_0', 'num_4', 'num_7']",0,"[0.03656452782161068, 0.4384399747432326, 0.8051531508317566, 1.1723040706892789, 1.5887054722879839, 1.6383908260067983]",2018_Apr_03_1637,59.9959879595,sequenceLearningTask,001,058,
min1.png,min2.png,min3.png,min4.png,allBlank.png,,,,,0,9,9,9,['num_1'],10,0.0583507931697,0,"['num_7', 'num_7', 'num_4', 'num_7', 'num_4', 'num_7', 'num_4', 'num_7', 'num_4', 'num_4', 'num_7', 'num_0', 'num_7', 'num_4', 'num_1']",0,"[0.00028143601593910716, 0.0856558300110919, 0.3191344899023534, 0.48526337857038015, 0.5861483430344379, 0.7864433995673608, 0.9359002813944244, 1.0705288494464185, 1.4701848082804645, 2.2196087054799136, 2.2371898409001005, 3.069074079619895, 4.236101430196868, 4.6857479736390815, 5.135920055763563]",2018_Apr_03_1637,59.9959879595,sequenceLearningTask,001,058,
min1.png,min2.png,min3.png,min4.png,allBlank.png,,,,,0,9,9,9,['num_4'],10,0.0498720204596,1,['num_4'],0,[1.5441790950462746],2018_Apr_03_1637,59.9959879595,sequenceLearningTask,001,058,
min1.png,min2.png,min3.png,min4.png,allBlank.png,,,,,0,9,9,9,['num_0'],10,0.0579118186324,0,"['num_4', 'num_4', 'num_0']",0,"[0.00029292319595697336, 0.268539187094575, 0.9024151394514774]",2018_Apr_03_1637,59.9959879595,sequenceLearningTask,001,058,
min1.png,min2.png,min3.png,min4.png,allBlank.png,,,,,0,9,9,9,['num_0'],10,0.0528172524355,0,"['num_0', 'num_4', 'num_4', 'num_1', 'num_1', 'num_1', 'num_0']",0,"[0.0005677951012330595, 0.6073803517465421, 0.8739076405763626, 0.9410900271141145, 2.590370293484739, 3.1411553399593686, 3.890911955244519]",2018_Apr_03_1637,59.9959879595,sequenceLearningTask,001,058,
min1.png,min2.png,min3.png,min4.png,allBlank.png,,,,,0,9,9,9,['num_4'],10,0.0567237155774,0,"['num_0', 'num_7', 'num_0', 'num_4']",0,"[0.0004676924982049968, 2.0548299712099833, 2.0874638307541318]",2018_Apr_03_1637,59.9959879595,sequenceLearningTask,001,058,
min1.png,min2.png,min3.png,min4.png,allBlank.png,,,,,0,9,9,9,['num_1'],10,0.05602094606,0,"['num_1', 'num_1']",0,"[0.0004988719992979895, 2.988423379869346]",2018_Apr_03_1637,59.9959879595,sequenceLearningTask,001,058,
min1.png,min2.png,min3.png,min4.png,allBlank.png,,,,,0,9,9,9,['num_0'],10,0.0528381755212,1,['num_0'],0,[1.5423907866206719],2018_Apr_03_1637,59.9959879595,sequenceLearningTask,001,058,
min1.png,min2.png,min3.png,min4.png,allBlank.png,,,,,0,0,0,0,['num_7'],1,0.0521001239395,1,['num_7'],0,[30.893789084631862],2018_Apr_03_1637,59.9959879595,sequenceLearningTask,001,058,
min1.png,min2.png,min3.png,min4.png,allBlank.png,,,,,0,0,0,0,['num_1'],1,0.0533349962425,1,['num_1'],0,[1.5578000237146625],2018_Apr_03_1637,59.9959879595,sequenceLearningTask,001,058,
min1.png,min2.png,min3.png,min4.png,allBlank.png,,,,,0,0,0,0,['num_4'],1,0.0583725367651,1,['num_4'],0,[2.8699601517801057],2018_Apr_03_1637,59.9959879595,sequenceLearningTask,001,058,
min1.png,min2.png,min3.png,min4.png,allBlank.png,,,,,0,0,0,0,['num_0'],1,0.0558958178008,0,"['num_1', 'num_0']",0,"[0.0003035898698726669, 1.555127612358774]",2018_Apr_03_1637,59.9959879595,sequenceLearningTask,001,058,
min1.png,min2.png,min3.png,min4.png,allBlank.png,,,,,0,0,0,0,['num_0'],1,0.0518986879579,0,"['num_1', 'num_0']",0,"[0.0002888206327043008, 1.291371606719622]",2018_Apr_03_1637,59.9959879595,sequenceLearningTask,001,058,
min1.png,min2.png,min3.png,min4.png,allBlank.png,,,,,0,0,0,0,['num_4'],1,0.0508012516111,1,['num_4'],0,[2.1106954300266807],2018_Apr_03_1637,59.9959879595,sequenceLearningTask,001,058,
min1.png,min2.png,min3.png,min4.png,allBlank.png,,,,,0,0,0,0,['num_1'],1,0.0444270951521,1,['num_1'],0,[4.984576814185857],2018_Apr_03_1637,59.9959879595,sequenceLearningTask,001,058,
min1.png,min2.png,min3.png,min4.png,allBlank.png,,,,,0,0,0,0,['num_0'],1,0.0572824850387,1,['num_0'],0,[0.8538497861954966],2018_Apr_03_1637,59.9959879595,sequenceLearningTask,001,058,
min1.png,min2.png,min3.png,min4.png,allBlank.png,,,,,0,1,1,1,['num_7'],2,0.0508172516165,1,['num_7'],0,[1.2587746702665754],2018_Apr_03_1637,59.9959879595,sequenceLearningTask,001,058,
min1.png,min2.png,min3.png,min4.png,allBlank.png,,,,,0,1,1,1,['num_1'],2,0.0538728426145,1,['num_1'],0,[1.6887682825690717],2018_Apr_03_1637,59.9959879595,sequenceLearningTask,001,058,
min1.png,min2.png,min3.png,min4.png,allBlank.png,,,,,0,1,1,1,['num_4'],2,0.0554174586323,1,['num_4'],0,[1.3064075103211508],2018_Apr_03_1637,59.9959879595,sequenceLearningTask,001,058,
min1.png,min2.png,min3.png,min4.png,allBlank.png,,,,,0,1,1,1,['num_0'],2,0.0505977643479,1,['num_0'],0,[0.644426110535278],2018_Apr_03_1637,59.9959879595,sequenceLearningTask,001,058,
min1.png,min2.png,min3.png,min4.png,allBlank.png,,,,,0,1,1,1,['num_0'],2,0.0585099727214,1,['num_0'],0,[2.31952587467822],2018_Apr_03_1637,59.9959879595,sequenceLearningTask,001,058,
min1.png,min2.png,min3.png,min4.png,allBlank.png,,,,,0,1,1,1,['num_4'],2,0.0587844343718,1,['num_4'],0,[1.9030190371340723],2018_Apr_03_1637,59.9959879595,sequenceLearningTask,001,058,
min1.png,min2.png,min3.png,min4.png,allBlank.png,,,,,0,1,1,1,['num_1'],2,0.0512915082218,1,['num_1'],0,[1.3580661981795856],2018_Apr_03_1637,59.9959879595,sequenceLearningTask,001,058,
min1.png,min2.png,min3.png,min4.png,allBlank.png,,,,,0,1,1,1,['num_0'],2,0.0553021765336,1,['num_0'],0,[0.4053548329648038],2018_Apr_03_1637,59.9959879595,sequenceLearningTask,001,058,
min1.png,min2.png,min3.png,min4.png,allBlank.png,,,,,0,2,2,2,['num_7'],3,0.0512636107742,1,['num_7'],0,[1.2428017406346044],2018_Apr_03_1637,59.9959879595,sequenceLearningTask,001,058,
min1.png,min2.png,min3.png,min4.png,allBlank.png,,,,,0,2,2,2,['num_1'],3,0.0519438161828,0,"['num_4', 'num_1']",0,"[1.4429002842662157, 1.5589036139099335]",2018_Apr_03_1637,59.9959879595,sequenceLearningTask,001,058,
min1.png,min2.png,min3.png,min4.png,allBlank.png,,,,,0,2,2,2,['num_4'],3,0.0589202293013,0,"['num_7', 'num_1', 'num_4']",0,"[1.2025461343764619, 1.219430654124153, 1.2522745650348952]",2018_Apr_03_1637,59.9959879595,sequenceLearningTask,001,058,
min1.png,min2.png,min3.png,min4.png,allBlank.png,,,,,0,2,2,2,['num_0'],3,0.0534104834514,0,"['num_0', 'num_1', 'num_7', 'num_7', 'num_1', 'num_0', 'num_4', 'num_1', 'num_7', 'num_4', 'num_0', 'num_7', 'num_4', 'num_4', 'num_0']",0,"[0.000705641316017136, 0.07456987674595439, 0.1236730763775995, 0.427116482918791, 0.4403973088810744, 0.8233656711236108, 0.8435560383804841, 1.140790211604326, 1.1737087892106501, 1.4235333019605605, 1.6578259109010105]",2018_Apr_03_1637,59.9959879595,sequenceLearningTask,001,058,
min1.png,min2.png,min3.png,min4.png,allBlank.png,,,,,0,2,2,2,['num_0'],3,0.0522732522149,0,"['num_1', 'num_4', 'num_7', 'num_7', 'num_4', 'num_7', 'num_7', 'num_4', 'num_7', 'num_4', 'num_4', 'num_7', 'num_7', 'num_4', 'num_7', 'num_1', 'num_0']",0,"[0.0006650259128946345, 0.47523506676225225, 0.7420975352179084, 1.3088649472265388, 1.3253178770537488, 1.7935601204335399, 2.008967798552476, 2.492464612292679, 2.692530335396441, 3.008954670338426, 3.1091959422337823, 3.292240119892085, 3.458262341850059, 3.4751817334072257]",2018_Apr_03_1637,59.9959879595,sequenceLearningTask,001,058,
min1.png,min2.png,min3.png,min4.png,allBlank.png,,,,,0,2,2,2,['num_4'],3,0.0536012527591,0,"['num_7', 'num_4']",0,"[0.6749918666646408, 0.8756852823353256]",2018_Apr_03_1637,59.9959879595,sequenceLearningTask,001,058,
min1.png,min2.png,min3.png,min4.png,allBlank.png,,,,,0,2,2,2,['num_1'],3,0.0648804368757,0,"['num_7', 'num_4', 'num_7', 'num_4', 'num_7', 'num_4', 'num_1']",0,"[0.0015515903796767816, 0.09360085891239578, 0.3281773654052813, 0.5271846265386557, 0.6595904244459234]",2018_Apr_03_1637,59.9959879595,sequenceLearningTask,001,058,
min1.png,min2.png,min3.png,min4.png,allBlank.png,,,,,0,2,2,2,['num_0'],3,0.0447507875906,0,"['num_0', 'num_4', 'num_1', 'num_0', 'num_4', 'num_7', 'num_0']",0,"[0.000296615507977549, 0.41776345344260335, 0.7666686222219141, 1.0003593847613956, 1.2334807111728878]",2018_Apr_03_1637,59.9959879595,sequenceLearningTask,001,058,
min1.png,min2.png,min3.png,min4.png,allBlank.png,,,,,0,3,3,3,['num_7'],4,0.0535343809352,0,"['num_4', 'num_1', 'num_7', 'num_4', 'num_7']",0,"[0.0002810257574310526, 0.2729933427654032]",2018_Apr_03_1637,59.9959879595,sequenceLearningTask,001,058,
min1.png,min2.png,min3.png,min4.png,allBlank.png,,,,,0,3,3,3,['num_1'],4,0.0521452521643,0,"['num_4', 'num_1', 'num_7', 'num_0', 'num_1']",0,"[0.0005288207285047974, 0.007312002999242395, 0.3251447487746191, 0.37596035936803673]",2018_Apr_03_1637,59.9959879595,sequenceLearningTask,001,058,
min1.png,min2.png,min3.png,min4.png,allBlank.png,,,,,0,3,3,3,['num_4'],4,0.061069563515,0,"['num_4', 'num_1', 'num_0', 'num_7', 'num_4']",0,"[0.0002838975524355192, 0.18281853654116276, 0.5326603210924077]",2018_Apr_03_1637,59.9959879595,sequenceLearningTask,001,058,
min1.png,min2.png,min3.png,min4.png,allBlank.png,,,,,0,3,3,3,['num_0'],4,0.0579996135384,0,"['num_1', 'num_7', 'num_1', 'num_0']",0,"[0.7694661618334067, 1.1530540115090844, 1.4034212937112898, 1.4538176220776222]",2018_Apr_03_1637,59.9959879595,sequenceLearningTask,001,058,
min1.png,min2.png,min3.png,min4.png,allBlank.png,,,,,0,3,3,3,['num_0'],4,0.0485604301794,0,"['num_1', 'num_0', 'num_4', 'num_7', 'num_7', 'num_0', 'num_4', 'num_1', 'num_7', 'num_1', 'num_0', 'num_4', 'num_4', 'num_0']",0,"[0.41299586174136493, 0.4810225563196582, 0.5628818719524133, 0.8625812769569166, 0.8965841627032205, 0.9297890994021145, 1.2639873903535772, 1.2963816600567952, 2.179351458195015, 6.613281072117388]",2018_Apr_03_1637,59.9959879595,sequenceLearningTask,001,058,
min1.png,min2.png,min3.png,min4.png,allBlank.png,,,,,0,3,3,3,['num_4'],4,0.0507774567268,1,['num_4'],0,[1.610304660636757],2018_Apr_03_1637,59.9959879595,sequenceLearningTask,001,058,
min1.png,min2.png,min3.png,min4.png,allBlank.png,,,,,0,3,3,3,['num_1'],4,0.0597259732203,0,"['num_4', 'num_4', 'num_4', 'num_1']",0,"[0.0004594873680616729, 0.21842306396865752, 0.46854501273628557, 1.2685609306900005]",2018_Apr_03_1637,59.9959879595,sequenceLearningTask,001,058,
min1.png,min2.png,min3.png,min4.png,allBlank.png,,,,,0,3,3,3,['num_0'],4,0.0451844287927,0,"['num_1', 'num_0']",0,"[0.0003803078470809851, 0.1490892919318867]",2018_Apr_03_1637,59.9959879595,sequenceLearningTask,001,058,
min1.png,min2.png,min3.png,min4.png,allBlank.png,,,,,0,4,4,4,['num_7'],5,0.0487544815405,0,"['num_1', 'num_0', 'num_4', 'num_1', 'num_7', 'num_4', 'num_1', 'num_4', 'num_1', 'num_7']",0,"[0.00030194883947842754, 0.42719402141301543, 0.7273287086500204, 1.2783652424077445, 1.5623013588956383, 2.0611425891875115, 2.344791526069457, 2.5955497827926592]",2018_Apr_03_1637,59.9959879595,sequenceLearningTask,001,058,
min1.png,min2.png,min3.png,min4.png,allBlank.png,,,,,0,4,4,4,['num_1'],5,0.0598125373581,0,"['num_4', 'num_7', 'num_7', 'num_4', 'num_4', 'num_4', 'num_1']",0,"[0.0003068719197472092, 0.06729684811944026, 0.6838255113107152, 1.0680964381899685, 1.401308472330129, 1.683537511191389, 1.9514449031557888]",2018_Apr_03_1637,59.9959879595,sequenceLearningTask,001,058,
min1.png,min2.png,min3.png,min4.png,allBlank.png,,,,,0,4,4,4,['num_4'],5,0.0564947924104,0,"['num_1', 'num_1', 'num_0', 'num_4']",0,"[0.0002818462708091829, 0.27120749587993487, 0.5204605212129536, 1.1038548118376639]",2018_Apr_03_1637,59.9959879595,sequenceLearningTask,001,058,
min1.png,min2.png,min3.png,min4.png,allBlank.png,,,,,0,4,4,4,['num_0'],5,0.0601292554384,0,"['num_4', 'num_7', 'num_4', 'num_1', 'num_4', 'num_7', 'num_1', 'num_1', 'num_7', 'num_4', 'num_1', 'num_0', 'num_4', 'num_4', 'num_1', 'num_7', 'num_4', 'num_1', 'num_0']",0,"[0.0008320003398694098, 0.25020112828497076, 0.8334313162777107, 1.0500767384910432, 1.5844014705216978, 1.8181041305033432, 2.36678661201222, 2.6174041507292714, 2.8840746191053768, 3.416750940203201, 3.61698281722056, 4.350103938500979, 5.601240862044506, 5.9672660378528235, 6.350476451476425, 6.832939418640308]",2018_Apr_03_1637,59.9959879595,sequenceLearningTask,001,058,
min1.png,min2.png,min3.png,min4.png,allBlank.png,,,,,0,4,4,4,['num_0'],5,0.0566133565626,1,['num_0'],0,[1.7370066613366362],2018_Apr_03_1637,59.9959879595,sequenceLearningTask,001,058,
min1.png,min2.png,min3.png,min4.png,allBlank.png,,,,,0,4,4,4,['num_4'],5,0.0606753069442,0,"['num_7', 'num_4']",0,"[1.7999125332971744, 2.2339479934162227]",2018_Apr_03_1637,59.9959879595,sequenceLearningTask,001,058,
min1.png,min2.png,min3.png,min4.png,allBlank.png,,,,,0,4,4,4,['num_1'],5,0.0540570478188,0,"['num_1', 'num_0', 'num_7', 'num_4', 'num_1']",0,"[0.0002818462708091829, 0.6236498968828528, 1.3908727757407178, 1.8419617813160585, 2.291778581242397]",2018_Apr_03_1637,59.9959879595,sequenceLearningTask,001,058,
min1.png,min2.png,min3.png,min4.png,allBlank.png,,,,,0,4,4,4,['num_0'],5,0.0545304839106,0,"['num_0', 'num_7', 'num_4', 'num_1', 'num_0']",0,"[0.0005214361117396038, 1.1055655817690422, 1.6213081523310393, 2.1050576841262227, 2.971178244584735]",2018_Apr_03_1637,59.9959879595,sequenceLearningTask,001,058,
min1.png,min2.png,min3.png,min4.png,allBlank.png,,,,,0,5,5,5,['num_7'],6,0.0486338661067,1,['num_7'],0,[21.642699750853353],2018_Apr_03_1637,59.9959879595,sequenceLearningTask,001,058,
min1.png,min2.png,min3.png,min4.png,allBlank.png,,,,,0,5,5,5,['num_1'],6,0.0532045346481,1,['num_1'],0,[3.506379694925272],2018_Apr_03_1637,59.9959879595,sequenceLearningTask,001,058,
min1.png,min2.png,min3.png,min4.png,allBlank.png,,,,,0,5,5,5,['num_4'],6,0.0589165369893,0,"['num_7', 'num_4', 'num_4']",0,"[4.454878955846652, 4.968766756417608]",2018_Apr_03_1637,59.9959879595,sequenceLearningTask,001,058,
min1.png,min2.png,min3.png,min4.png,allBlank.png,,,,,0,5,5,5,['num_0'],6,0.0512570466708,0,"['num_4', 'num_4', 'num_4', 'num_4', 'num_7', 'num_1', 'num_4', 'num_7', 'num_4', 'num_1', 'num_1', 'num_4', 'num_4', 'num_0']",0,"[0.0005226668836257886, 0.14243410971903359, 0.3434159357602766, 0.37754600104744895, 1.0444800182485778, 1.5265298570375307, 1.9588643933821004, 2.743983894968551, 3.3428038329475385, 3.8424618840872427, 4.192936694540549]",2018_Apr_03_1637,59.9959879595,sequenceLearningTask,001,058,
min1.png,min2.png,min3.png,min4.png,allBlank.png,,,,,0,5,5,5,['num_0'],6,0.0566995104418,0,"['num_7', 'num_0', 'num_7', 'num_4', 'num_1', 'num_0']",0,"[0.0005247181652521249, 0.33751111282253987, 0.48741558457913925, 0.8545665044366615, 1.0043897453906538]",2018_Apr_03_1637,59.9959879595,sequenceLearningTask,001,058,
min1.png,min2.png,min3.png,min4.png,allBlank.png,,,,,0,5,5,5,['num_4'],6,0.0577850493501,0,"['num_0', 'num_4', 'num_4']",0,"[0.00033230782719329, 0.05339694498616154, 0.3861293891823152]",2018_Apr_03_1637,59.9959879595,sequenceLearningTask,001,058,
min1.png,min2.png,min3.png,min4.png,allBlank.png,,,,,0,5,5,5,['num_1'],6,0.0575987928605,0,"['num_0', 'num_4', 'num_1']",0,"[0.00032943603218882345, 0.16977853119169595]",2018_Apr_03_1637,59.9959879595,sequenceLearningTask,001,058,
min1.png,min2.png,min3.png,min4.png,allBlank.png,,,,,0,5,5,5,['num_0'],6,0.0534531501362,0,"['num_4', 'num_7', 'num_4', 'num_0', 'num_7', 'num_0']",0,"[0.0006867695119581185, 0.12364230713501456, 0.2409978424620931]",2018_Apr_03_1637,59.9959879595,sequenceLearningTask,001,058,
min1.png,min2.png,min3.png,min4.png,allBlank.png,,,,,0,6,6,6,['num_7'],7,0.0499364307434,0,"['num_4', 'num_1', 'num_1', 'num_4', 'num_7', 'num_4', 'num_1', 'num_0', 'num_7']",0,"[0.00032164115691557527, 0.07592085166106699, 0.10929727560869651, 0.2259053234483872, 0.25976379887652]",2018_Apr_03_1637,59.9959879595,sequenceLearningTask,001,058,
min1.png,min2.png,min3.png,min4.png,allBlank.png,,,,,0,6,6,6,['num_1'],7,0.0594691526021,0,"['num_4', 'num_0', 'num_7', 'num_4', 'num_1']",0,"[0.0003257437238062266, 0.0007175387581810355, 0.06816413053093129]",2018_Apr_03_1637,59.9959879595,sequenceLearningTask,001,058,
min1.png,min2.png,min3.png,min4.png,allBlank.png,,,,,0,6,6,6,['num_4'],7,0.0501280205644,0,"['num_0', 'num_7', 'num_4', 'num_1', 'num_0', 'num_7', 'num_4']",0,"[0.0005628720282402355, 0.043524120417714585, 0.21027167600914254]",2018_Apr_03_1637,59.9959879595,sequenceLearningTask,001,058,
min1.png,min2.png,min3.png,min4.png,allBlank.png,,,,,0,6,6,6,['num_0'],7,0.0509087388346,0,"['num_1', 'num_7', 'num_4', 'num_0', 'num_7', 'num_7', 'num_4', 'num_0']",0,"[0.0007954875072755385, 0.3424136789399199, 0.40954437314576353, 0.4756494259054307]",2018_Apr_03_1637,59.9959879595,sequenceLearningTask,001,058,
min1.png,min2.png,min3.png,min4.png,allBlank.png,,,,,0,6,6,6,['num_0'],7,0.0577579724159,0,"['num_4', 'num_0', 'num_1', 'num_7', 'num_7', 'num_1', 'num_4', 'num_0']",0,"[0.0006880002838443033, 0.4363214097720629, 0.7044162889906147, 0.7202743467787514, 0.9874133281700779]",2018_Apr_03_1637,59.9959879595,sequenceLearningTask,001,058,
min1.png,min2.png,min3.png,min4.png,allBlank.png,,,,,0,6,6,6,['num_4'],7,0.0641587955506,0,"['num_4', 'num_1', 'num_7', 'num_4']",0,"[0.0003183591034030542, 0.13185728486496373, 0.23225568502675742]",2018_Apr_03_1637,59.9959879595,sequenceLearningTask,001,058,
min1.png,min2.png,min3.png,min4.png,allBlank.png,,,,,0,6,6,6,['num_1'],7,0.0474933528167,0,"['num_4', 'num_7', 'num_4', 'num_0', 'num_4', 'num_1', 'num_7', 'num_4', 'num_7', 'num_4', 'num_0', 'num_7', 'num_4', 'num_7', 'num_4', 'num_4', 'num_7', 'num_4', 'num_7', 'num_4', 'num_7', 'num_4', 'num_7', 'num_4', 'num_1', 'num_7', 'num_4', 'num_7', 'num_4', 'num_4', 'num_7', 'num_0', 'num_1']",0,"[0.00033148731745313853, 0.046370890820981, 0.06363284662074875, 0.14660518835080438, 0.24732481941464357, 0.4805478894559201, 0.6303337970603025, 0.9813677872298285, 0.9967437935374619, 1.2636887235639733, 1.4965741524429177, 1.696529106269736, 1.8806502074476157, 2.080198186748021, 2.213431472177035, 2.246211793317343, 2.4466360806727607, 2.596160654837149, 2.629683130126068, 2.8134612568064767, 2.996901742320915, 3.030336012445332, 3.047051916739292, 3.0637682312917605]",2018_Apr_03_1637,59.9959879595,sequenceLearningTask,001,058,
min1.png,min2.png,min3.png,min4.png,allBlank.png,,,,,0,6,6,6,['num_0'],7,0.0332525264639,0,"['num_7', 'num_4', 'num_1', 'num_0', 'num_7', 'num_4', 'num_1', 'num_0', 'num_4', 'num_1', 'num_0', 'num_4', 'num_7', 'num_7', 'num_4', 'num_4', 'num_1', 'num_1', 'num_4', 'num_4', 'num_1', 'num_7', 'num_4', 'num_7', 'num_1', 'num_0']",0,"[0.00028143601593910716, 0.5830767520310474, 0.8129172565822955, 0.9627138308569556, 1.1633444772705843, 1.3965363678107678, 1.7290944529631815, 1.7464142549397366, 1.9969333320768783, 2.1624964769216604, 2.3300132635959017, 2.529724935273407, 2.8293074171524495, 2.879604873684002, 8.112517789752019]",2018_Apr_03_1637,59.9959879595,sequenceLearningTask,001,058,
min1.png,min2.png,min3.png,min4.png,allBlank.png,,,,,0,7,7,7,['num_7'],8,0.0614080251944,0,"['num_1', 'num_7', 'num_4', 'num_7']",0,"[0.00034092321584466845, 0.4811415307231073]",2018_Apr_03_1637,59.9959879595,sequenceLearningTask,001,058,
min1.png,min2.png,min3.png,min4.png,allBlank.png,,,,,0,7,7,7,['num_1'],8,0.0509550978277,0,"['num_0', 'num_4', 'num_4', 'num_4', 'num_4', 'num_4', 'num_1']",0,"[0.00047261557847377844, 0.21062983000228996, 0.5103009273043426, 0.5438266846467741]",2018_Apr_03_1637,59.9959879595,sequenceLearningTask,001,058,
min1.png,min2.png,min3.png,min4.png,allBlank.png,,,,,0,7,7,7,['num_4'],8,0.047462993829,0,"['num_4', 'num_1', 'num_0', 'num_7', 'num_4', 'num_1', 'num_0', 'num_7', 'num_7', 'num_4', 'num_0', 'num_1', 'num_7', 'num_4', 'num_1', 'num_0', 'num_7', 'num_4', 'num_7', 'num_4', 'num_4']",0,"[0.00022769239876652136, 0.03151632062144927, 0.09687921923250542, 0.5467230960894085, 0.7980462761224771, 0.8638735851782258, 0.93057145869534, 1.1978749529735069, 1.5310381665804016, 1.782191910642723, 2.0304381663336244]",2018_Apr_03_1637,59.9959879595,sequenceLearningTask,001,058,
min1.png,min2.png,min3.png,min4.png,allBlank.png,,,,,0,7,7,7,['num_0'],8,0.0500853538797,0,"['num_7', 'num_4', 'num_7', 'num_4', 'num_7', 'num_4', 'num_1', 'num_7', 'num_4', 'num_1', 'num_7', 'num_4', 'num_4', 'num_1', 'num_4', 'num_7', 'num_7', 'num_4', 'num_1', 'num_4', 'num_1', 'num_0', 'num_7', 'num_4', 'num_1', 'num_4', 'num_1', 'num_0', 'num_4', 'num_1', 'num_4', 'num_1', 'num_7', 'num_4', 'num_1', 'num_4', 'num_1', 'num_0', 'num_7', 'num_4', 'num_1', 'num_7', 'num_4', 'num_7', 'num_4', 'num_1', 'num_4', 'num_1', 'num_0', 'num_7', 'num_4', 'num_1', 'num_0']",0,"[0.000333538595441496, 0.19404520781245083, 0.46140244570415234, 0.6779896114821895, 0.9282428423539386, 1.1776103292759217, 1.2097346501468564, 1.7121529075484432, 1.9615236765203008, 2.2609441070526373, 2.5608560249638685, 2.8443002438143594, 3.144077597567957, 3.4302935098639864, 3.7440126129258715, 4.01090174806086, 4.228060811510659, 4.430021509750077, 4.8125431025800935, 5.229855684043287, 5.243955382135027]",2018_Apr_03_1637,59.9959879595,sequenceLearningTask,001,058,
min1.png,min2.png,min3.png,min4.png,allBlank.png,,,,,0,7,7,7,['num_0'],8,0.0574359210004,0,"['num_4', 'num_1', 'num_4', 'num_1', 'num_0', 'num_4', 'num_1', 'num_0', 'num_4', 'num_1', 'num_0', 'num_7', 'num_4', 'num_1', 'num_1', 'num_0', 'num_4', 'num_1', 'num_1', 'num_0', 'num_0']",0,"[0.0005197950886213221, 0.1538330887524353, 0.4880535335614695, 0.8203416698852379, 1.1372816973489535, 1.453685929718631, 1.7542329248135502, 2.021449034440593, 2.237186148591718]",2018_Apr_03_1637,59.9959879595,sequenceLearningTask,001,058,
min1.png,min2.png,min3.png,min4.png,allBlank.png,,,,,0,7,7,7,['num_4'],8,0.0551610482726,0,"['num_0', 'num_0', 'num_0', 'num_0', 'num_0', 'num_0', 'num_4']",0,"[0.00047138480658759363, 0.038920631352084456, 0.28990617021918297, 0.5067702591877605, 0.7396146624050743, 1.1064968642021995]",2018_Apr_03_1637,59.9959879595,sequenceLearningTask,001,058,
min1.png,min2.png,min3.png,min4.png,allBlank.png,,,,,0,7,7,7,['num_1'],8,0.0485940712206,0,"['num_4', 'num_4', 'num_7', 'num_4', 'num_7', 'num_7', 'num_4', 'num_1', 'num_0', 'num_4', 'num_7', 'num_4', 'num_1']",0,"[0.0003277950054325629, 0.01070482490467839, 0.12892230930083315, 0.27917508889368037, 0.46252818975699483, 0.86212876395075, 1.0798137763340492, 1.2132583439015434, 1.3955152391863521, 1.5627772565239866, 1.7460253317040042, 1.8132019746481092]",2018_Apr_03_1637,59.9959879595,sequenceLearningTask,001,058,
min1.png,min2.png,min3.png,min4.png,allBlank.png,,,,,0,7,7,7,['num_0'],8,0.0544545864432,0,"['num_0', 'num_7', 'num_4', 'num_1', 'num_7', 'num_1', 'num_0']",0,"[0.00033271808570134453, 0.14031718577098218, 0.3233658762546838, 0.3403779857981135]",2018_Apr_03_1637,59.9959879595,sequenceLearningTask,001,058,
min1.png,min2.png,min3.png,min4.png,allBlank.png,,,,,0,8,8,8,['num_7'],9,0.0511643286845,0,"['num_7', 'num_4', 'num_0', 'num_7']",0,"[0.000686359253450064, 0.05743099792016437, 0.27461139471415663, 0.32516156929705176]",2018_Apr_03_1637,59.9959879595,sequenceLearningTask,001,058,
min1.png,min2.png,min3.png,min4.png,allBlank.png,,,,,0,8,8,8,['num_1'],9,0.0574113056064,0,"['num_0', 'num_7', 'num_4', 'num_1', 'num_0', 'num_7', 'num_4', 'num_1', 'num_7', 'num_4', 'num_1']",0,"[1.4191493001635536, 1.5210976496782678, 2.218358243426337, 2.2702401108654158, 2.7028979293936573, 2.735277019597561]",2018_Apr_03_1637,59.9959879595,sequenceLearningTask,001,058,
min1.png,min2.png,min3.png,min4.png,allBlank.png,,,,,0,8,8,8,['num_4'],9,0.0582309982492,0,"['num_7', 'num_4', 'num_1', 'num_0', 'num_7', 'num_7', 'num_4', 'num_7', 'num_4', 'num_1', 'num_7', 'num_4', 'num_1', 'num_7', 'num_4', 'num_1', 'num_7', 'num_4', 'num_7', 'num_4', 'num_1', 'num_1', 'num_1', 'num_0', 'num_4']",0,"[0.000288820629066322, 0.07022690060694003, 0.2714154959685402, 0.45451957108525676, 0.6718238653666049, 0.8715790242385992, 1.0880250617556158, 1.6043633248700644, 1.8216967473636032, 1.9547470583602262]",2018_Apr_03_1637,59.9959879595,sequenceLearningTask,001,058,
min1.png,min2.png,min3.png,min4.png,allBlank.png,,,,,0,8,8,8,['num_0'],9,0.052209252186,0,"['num_0', 'num_4', 'num_0', 'num_4', 'num_1', 'num_0', 'num_4', 'num_0']",0,"[0.0008504618854203727, 0.14230077632964822, 0.24187620179509395, 0.3581084546094644]",2018_Apr_03_1637,59.9959879595,sequenceLearningTask,001,058,
min1.png,min2.png,min3.png,min4.png,allBlank.png,,,,,0,8,8,8,['num_0'],9,0.0586067932745,0,"['num_7', 'num_0', 'num_7', 'num_1', 'num_4', 'num_0']",0,"[0.0006957951591175515, 0.10281973448945791, 0.23587578907972784]",2018_Apr_03_1637,59.9959879595,sequenceLearningTask,001,058,
min1.png,min2.png,min3.png,min4.png,allBlank.png,,,,,0,8,8,8,['num_4'],9,0.0506342771841,0,"['num_4', 'num_0', 'num_4', 'num_1', 'num_0', 'num_7', 'num_4', 'num_1', 'num_7', 'num_4', 'num_7', 'num_7', 'num_0', 'num_7', 'num_0', 'num_0', 'num_7', 'num_4', 'num_4']",0,"[0.0004996925126761198, 0.07752864719077479, 0.14435287973174127, 0.3435742947986, 0.42748653435046435, 0.7102251118849381, 0.9436570025245601, 1.0610170506733994, 1.1774052009859588, 1.2770466777619731, 1.4769507597738993, 1.5276904728962108, 1.7603194914117921]",2018_Apr_03_1637,59.9959879595,sequenceLearningTask,001,058,
min1.png,min2.png,min3.png,min4.png,allBlank.png,,,,,0,8,8,8,['num_1'],9,0.0528689447674,0,"['num_0', 'num_4', 'num_0', 'num_4', 'num_0', 'num_4', 'num_0', 'num_4', 'num_0', 'num_4', 'num_7', 'num_7', 'num_4', 'num_1', 'num_0', 'num_7', 'num_4', 'num_1', 'num_0', 'num_7', 'num_4', 'num_1', 'num_0', 'num_7', 'num_4', 'num_1', 'num_0', 'num_7', 'num_4', 'num_1']",0,"[0.0005407181670307182, 0.09119880664366065, 0.19059453973022755, 0.3080895622915705, 0.4250377128337277, 0.591569063206407, 2.0082428751775296, 2.7914321195603407, 2.8081964341326966, 2.9419618223437283, 3.0250305743720673, 3.1912287964005372, 3.259051593457116, 3.4084231419146818, 3.442004694155912, 3.6411920579230355, 3.6910181296480005, 3.8746994357716176]",2018_Apr_03_1637,59.9959879595,sequenceLearningTask,001,058,
min1.png,min2.png,min3.png,min4.png,allBlank.png,,,,,0,8,8,8,['num_0'],9,0.0501009436339,0,"['num_0', 'num_7', 'num_4', 'num_1', 'num_0', 'num_7', 'num_4', 'num_7', 'num_1', 'num_0', 'num_4', 'num_4', 'num_0', 'num_4', 'num_0', 'num_7', 'num_4', 'num_0']",0,"[0.0013300518294272479, 0.043908941090194276, 9.211063471204398, 9.428482227067434, 9.52590093370236, 10.859876455331687, 11.391851647938893]",2018_Apr_03_1637,59.9959879595,sequenceLearningTask,001,058,
min1.png,min2.png,min3.png,min4.png,allBlank.png,,,,,0,9,9,9,['num_7'],10,0.0544517146482,0,"['num_4', 'num_7', 'num_1', 'num_7', 'num_4', 'num_1', 'num_0', 'num_7', 'num_4', 'num_1', 'num_0', 'num_1', 'num_0', 'num_0', 'num_0', 'num_0', 'num_4', 'num_4', 'num_4', 'num_7']",0,"[0.00031466679502045736, 0.19010469337445102, 0.8051904841813666, 1.2570060541547718, 1.5221479065221502, 1.7222152706526686, 1.922520583597361, 2.1388538005558075, 2.339022087802732, 2.5718271063888096, 2.772318265564536]",2018_Apr_03_1637,59.9959879595,sequenceLearningTask,001,058,
min1.png,min2.png,min3.png,min4.png,allBlank.png,,,,,0,9,9,9,['num_1'],10,0.0512213543479,0,"['num_7', 'num_7', 'num_7', 'num_7', 'num_4', 'num_4', 'num_4', 'num_1']",0,"[0.0005505643312062602, 0.12555615407472942, 0.3943513412741595, 0.659843552759412, 1.0096381578005094, 1.52656226731051]",2018_Apr_03_1637,59.9959879595,sequenceLearningTask,001,058,
min1.png,min2.png,min3.png,min4.png,allBlank.png,,,,,0,9,9,9,['num_4'],10,0.0549239199681,0,"['num_1', 'num_0', 'num_0', 'num_1', 'num_0', 'num_4']",0,"[0.00035241040313849226, 0.18953361621970544, 0.45675423866850906, 0.9877616360063257, 1.4889934313832782]",2018_Apr_03_1637,59.9959879595,sequenceLearningTask,001,058,
min1.png,min2.png,min3.png,min4.png,allBlank.png,,,,,0,9,9,9,['num_0'],10,0.0518088417666,0,"['num_4', 'num_7', 'num_4', 'num_4', 'num_4', 'num_4', 'num_4', 'num_0']",0,"[0.0008311798264912795, 0.19167843761169934, 0.4588239831064129, 0.759177337098663, 1.0257378567112028, 1.3088883318523585]",2018_Apr_03_1637,59.9959879595,sequenceLearningTask,001,058,
min1.png,min2.png,min3.png,min4.png,allBlank.png,,,,,0,9,9,9,['num_0'],10,0.0526383805663,0,"['num_0', 'num_0']",0,"[0.00045661556941922754, 0.05849520348419901]",2018_Apr_03_1637,59.9959879595,sequenceLearningTask,001,058,
min1.png,min2.png,min3.png,min4.png,allBlank.png,,,,,0,9,9,9,['num_4'],10,0.0513637133809,0,"['num_1', 'num_0', 'num_0', 'num_0', 'num_0', 'num_4']",0,"[0.00036964117680327035, 2.3437318333271833, 4.292876427847659, 4.609685583462124, 4.876031128627801, 5.592610704661638]",2018_Apr_03_1637,59.9959879595,sequenceLearningTask,001,058,
min1.png,min2.png,min3.png,min4.png,allBlank.png,,,,,0,9,9,9,['num_1'],10,0.0493189945919,0,"['num_4', 'num_4', 'num_4', 'num_4', 'num_1']",0,"[0.00034912834598799236, 0.07832905777831911, 0.29490965944933123, 0.4612531123093504, 0.7116023432208749]",2018_Apr_03_1637,59.9959879595,sequenceLearningTask,001,058,
min1.png,min2.png,min3.png,min4.png,allBlank.png,,,,,0,9,9,9,['num_0'],10,0.0578121262806,0,"['num_1', 'num_1', 'num_1', 'num_1', 'num_0']",0,"[0.0007085131110216025, 0.23566737873261445, 0.6854045888831024]",2018_Apr_03_1637,59.9959879595,sequenceLearningTask,001,058,
