pawPatrol1,pawPatrol2,pawPatrol3,pawPatrol4,blank,randomPaw,correctKeyPress,allowableKey,correctKey,correctKeyPressNum,trials.thisRepN,trials.thisTrialN,trials.thisN,trials.thisIndex,trials_3.thisRepN,trials_3.thisTrialN,trials_3.thisN,trials_3.thisIndex,trials_2.thisRepN,trials_2.thisTrialN,trials_2.thisN,trials_2.thisIndex,trials_questions.thisRepN,trials_questions.thisTrialN,trials_questions.thisN,trials_questions.thisIndex,correctKey,repetitionNumber,stimulusPresent.t,trialCorrect,key_resp_9.keys,key_resp_9.corr,key_resp_9.rt,keyRespCorrect,date,frameRate,expName,session,participant,
min1.png,min2.png,min3.png,min4.png,allBlank.png,,,,['num_7'],,,,,,0,0,0,0,,,,,,,,,['num_7'],1,0.0629116155533,1,['num_7'],0,[0.6234353326917699],,2018_Apr_03_1138,59.9843240902,sequenceLearningTask,001,052,
min1.png,min2.png,min3.png,min4.png,allBlank.png,,,,['num_1'],,,,,,0,0,0,0,,,,,,,,,['num_1'],1,0.0791192119459,1,['num_1'],0,[1.031611910405445],,2018_Apr_03_1138,59.9843240902,sequenceLearningTask,001,052,
min1.png,min2.png,min3.png,min4.png,allBlank.png,,,,['num_4'],,,,,,0,0,0,0,,,,,,,,,['num_4'],1,0.0783155193094,1,['num_4'],0,[1.2164702426543954],,2018_Apr_03_1138,59.9843240902,sequenceLearningTask,001,052,
min1.png,min2.png,min3.png,min4.png,allBlank.png,,,,['num_0'],,,,,,0,0,0,0,,,,,,,,,['num_0'],1,0.0775085446194,0,"['num_1', 'num_0', 'num_0']",0,"[0.932860690403686, 2.4832092238802943]",,2018_Apr_03_1138,59.9843240902,sequenceLearningTask,001,052,
min1.png,min2.png,min3.png,min4.png,allBlank.png,,,,['num_0'],,,,,,0,0,0,0,,,,,,,,,['num_0'],1,0.0502166359865,1,['num_0'],0,[0.6113824046697118],,2018_Apr_03_1138,59.9843240902,sequenceLearningTask,001,052,
min1.png,min2.png,min3.png,min4.png,allBlank.png,,,,['num_4'],,,,,,0,0,0,0,,,,,,,,,['num_4'],1,0.0523360214711,1,['num_4'],0,[1.226137528671643],,2018_Apr_03_1138,59.9843240902,sequenceLearningTask,001,052,
min1.png,min2.png,min3.png,min4.png,allBlank.png,,,,['num_1'],,,,,,0,0,0,0,,,,,,,,,['num_1'],1,0.0478954042646,1,['num_1'],0,[2.5959510137236066],,2018_Apr_03_1138,59.9843240902,sequenceLearningTask,001,052,
min1.png,min2.png,min3.png,min4.png,allBlank.png,,,,['num_0'],,,,,,0,0,0,0,,,,,,,,,['num_0'],1,0.0548373558304,1,['num_0'],0,[0.8063576641461623],,2018_Apr_03_1138,59.9843240902,sequenceLearningTask,001,052,
min1.png,min2.png,min3.png,min4.png,allBlank.png,,,,['num_7'],,,,,,0,1,1,1,,,,,,,,,['num_7'],2,0.0528857652862,1,['num_7'],0,[0.8900971856810429],,2018_Apr_03_1138,59.9843240902,sequenceLearningTask,001,052,
min1.png,min2.png,min3.png,min4.png,allBlank.png,,,,['num_1'],,,,,,0,1,1,1,,,,,,,,,['num_1'],2,0.0584074085773,1,['num_1'],0,[1.3848924655967494],,2018_Apr_03_1138,59.9843240902,sequenceLearningTask,001,052,
min1.png,min2.png,min3.png,min4.png,allBlank.png,,,,['num_4'],,,,,,0,1,1,1,,,,,,,,,['num_4'],2,0.0590954088593,1,['num_4'],0,[1.0351273990272603],,2018_Apr_03_1138,59.9843240902,sequenceLearningTask,001,052,
min1.png,min2.png,min3.png,min4.png,allBlank.png,,,,['num_0'],,,,,,0,1,1,1,,,,,,,,,['num_0'],2,0.0586831009987,1,['num_0'],0,[0.8187072076752884],,2018_Apr_03_1138,59.9843240902,sequenceLearningTask,001,052,
min1.png,min2.png,min3.png,min4.png,allBlank.png,,,,['num_0'],,,,,,0,1,1,1,,,,,,,,,['num_0'],2,0.0575713056705,1,['num_0'],0,[0.7866501688813514],,2018_Apr_03_1138,59.9843240902,sequenceLearningTask,001,052,
min1.png,min2.png,min3.png,min4.png,allBlank.png,,,,['num_4'],,,,,,0,1,1,1,,,,,,,,,['num_4'],2,0.0558519203496,1,['num_4'],0,[1.2388965082654977],,2018_Apr_03_1138,59.9843240902,sequenceLearningTask,001,052,
min1.png,min2.png,min3.png,min4.png,allBlank.png,,,,['num_1'],,,,,,0,1,1,1,,,,,,,,,['num_1'],2,0.0561793050992,1,['num_1'],0,[1.4218943269306692],,2018_Apr_03_1138,59.9843240902,sequenceLearningTask,001,052,
min1.png,min2.png,min3.png,min4.png,allBlank.png,,,,['num_0'],,,,,,0,1,1,1,,,,,,,,,['num_0'],2,0.0566880232573,1,['num_0'],0,[0.7371600972965098],,2018_Apr_03_1138,59.9843240902,sequenceLearningTask,001,052,
min1.png,min2.png,min3.png,min4.png,allBlank.png,,,,['num_7'],,,,,,0,2,2,2,,,,,,,,,['num_7'],3,0.0497985845332,1,['num_7'],0,[0.960131265695054],,2018_Apr_03_1138,59.9843240902,sequenceLearningTask,001,052,
min1.png,min2.png,min3.png,min4.png,allBlank.png,,,,['num_1'],,,,,,0,2,2,2,,,,,,,,,['num_1'],3,0.0586728445833,1,['num_1'],0,[0.9858629685595588],,2018_Apr_03_1138,59.9843240902,sequenceLearningTask,001,052,
min1.png,min2.png,min3.png,min4.png,allBlank.png,,,,['num_4'],,,,,,0,2,2,2,,,,,,,,,['num_4'],3,0.0482785839095,1,['num_4'],0,[0.8965587267939554],,2018_Apr_03_1138,59.9843240902,sequenceLearningTask,001,052,
min1.png,min2.png,min3.png,min4.png,allBlank.png,,,,['num_0'],,,,,,0,2,2,2,,,,,,,,,['num_0'],3,0.0739311072539,1,['num_0'],0,[0.4516703391464034],,2018_Apr_03_1138,59.9843240902,sequenceLearningTask,001,052,
min1.png,min2.png,min3.png,min4.png,allBlank.png,,,,['num_0'],,,,,,0,2,2,2,,,,,,,,,['num_0'],3,0.0479249427381,1,['num_0'],0,[1.098221168501368],,2018_Apr_03_1138,59.9843240902,sequenceLearningTask,001,052,
min1.png,min2.png,min3.png,min4.png,allBlank.png,,,,['num_4'],,,,,,0,2,2,2,,,,,,,,,['num_4'],3,0.0517272007091,1,['num_4'],0,[1.2096525988317808],,2018_Apr_03_1138,59.9843240902,sequenceLearningTask,001,052,
min1.png,min2.png,min3.png,min4.png,allBlank.png,,,,['num_1'],,,,,,0,2,2,2,,,,,,,,,['num_1'],3,0.0507323285055,0,"['num_1', 'num_0', 'num_1']",0,"[1.112564969257619, 2.12713400087614]",,2018_Apr_03_1138,59.9843240902,sequenceLearningTask,001,052,
min1.png,min2.png,min3.png,min4.png,allBlank.png,,,,['num_0'],,,,,,0,2,2,2,,,,,,,,,['num_0'],3,0.0622531537447,1,['num_0'],0,[0.7646202111263847],,2018_Apr_03_1138,59.9843240902,sequenceLearningTask,001,052,
min1.png,min2.png,min3.png,min4.png,allBlank.png,,,,['num_7'],,,,,,0,3,3,3,,,,,,,,,['num_7'],4,0.0536279194366,1,['num_7'],0,[0.9081328853872037],,2018_Apr_03_1138,59.9843240902,sequenceLearningTask,001,052,
min1.png,min2.png,min3.png,min4.png,allBlank.png,,,,['num_1'],,,,,,0,3,3,3,,,,,,,,,['num_1'],4,0.0564225872504,1,['num_1'],0,[1.1050601456654476],,2018_Apr_03_1138,59.9843240902,sequenceLearningTask,001,052,
min1.png,min2.png,min3.png,min4.png,allBlank.png,,,,['num_4'],,,,,,0,3,3,3,,,,,,,,,['num_4'],4,0.0552328431722,1,['num_4'],0,[0.4226713528914843],,2018_Apr_03_1138,59.9843240902,sequenceLearningTask,001,052,
min1.png,min2.png,min3.png,min4.png,allBlank.png,,,,['num_0'],,,,,,0,3,3,3,,,,,,,,,['num_0'],4,0.0524389958728,1,['num_0'],0,[0.4754356822304544],,2018_Apr_03_1138,59.9843240902,sequenceLearningTask,001,052,
min1.png,min2.png,min3.png,min4.png,allBlank.png,,,,['num_0'],,,,,,0,3,3,3,,,,,,,,,['num_0'],4,0.0580492545841,1,['num_0'],0,[0.38592631217488815],,2018_Apr_03_1138,59.9843240902,sequenceLearningTask,001,052,
min1.png,min2.png,min3.png,min4.png,allBlank.png,,,,['num_4'],,,,,,0,3,3,3,,,,,,,,,['num_4'],4,0.0500558154072,1,['num_4'],0,[2.0284233962756844],,2018_Apr_03_1138,59.9843240902,sequenceLearningTask,001,052,
min1.png,min2.png,min3.png,min4.png,allBlank.png,,,,['num_1'],,,,,,0,3,3,3,,,,,,,,,['num_1'],4,0.0524566369049,1,['num_1'],0,[1.158948167773815],,2018_Apr_03_1138,59.9843240902,sequenceLearningTask,001,052,
min1.png,min2.png,min3.png,min4.png,allBlank.png,,,,['num_0'],,,,,,0,3,3,3,,,,,,,,,['num_0'],4,0.0609157172985,1,['num_0'],0,[1.0339487318760803],,2018_Apr_03_1138,59.9843240902,sequenceLearningTask,001,052,
min1.png,min2.png,min3.png,min4.png,allBlank.png,,,,['num_7'],,,,,,0,4,4,4,,,,,,,,,['num_7'],5,0.0544607402908,1,['num_7'],0,[0.8055613561282371],,2018_Apr_03_1138,59.9843240902,sequenceLearningTask,001,052,
min1.png,min2.png,min3.png,min4.png,allBlank.png,,,,['num_1'],,,,,,0,4,4,4,,,,,,,,,['num_1'],5,0.053277150063,1,['num_1'],0,[0.9911105604560362],,2018_Apr_03_1138,59.9843240902,sequenceLearningTask,001,052,
min1.png,min2.png,min3.png,min4.png,allBlank.png,,,,['num_4'],,,,,,0,4,4,4,,,,,,,,,['num_4'],5,0.0510769440316,1,['num_4'],0,[1.1102552247202766],,2018_Apr_03_1138,59.9843240902,sequenceLearningTask,001,052,
min1.png,min2.png,min3.png,min4.png,allBlank.png,,,,['num_0'],,,,,,0,4,4,4,,,,,,,,,['num_0'],5,0.057621356973,1,['num_0'],0,[0.9716270652834282],,2018_Apr_03_1138,59.9843240902,sequenceLearningTask,001,052,
min1.png,min2.png,min3.png,min4.png,allBlank.png,,,,['num_0'],,,,,,0,4,4,4,,,,,,,,,['num_0'],5,0.0542789966275,0,"['num_1', 'num_0', 'num_0']",0,"[0.8428741919487948, 1.4416075657882175]",,2018_Apr_03_1138,59.9843240902,sequenceLearningTask,001,052,
min1.png,min2.png,min3.png,min4.png,allBlank.png,,,,['num_4'],,,,,,0,4,4,4,,,,,,,,,['num_4'],5,0.0650822831112,0,"['num_0', 'num_0', 'num_0', 'num_0', 'num_0', 'num_0', 'num_4']",0,"[0.001230769735229842, 0.1771582265264442, 0.4606479838557789, 0.6610849891631005, 1.5615711021828247]",,2018_Apr_03_1138,59.9843240902,sequenceLearningTask,001,052,
min1.png,min2.png,min3.png,min4.png,allBlank.png,,,,['num_1'],,,,,,0,4,4,4,,,,,,,,,['num_1'],5,0.0536447399563,1,['num_1'],0,[2.025041651299034],,2018_Apr_03_1138,59.9843240902,sequenceLearningTask,001,052,
min1.png,min2.png,min3.png,min4.png,allBlank.png,,,,['num_0'],,,,,,0,4,4,4,,,,,,,,,['num_0'],5,0.0534051501145,1,['num_0'],0,[0.6741327893878406],,2018_Apr_03_1138,59.9843240902,sequenceLearningTask,001,052,
min1.png,min2.png,min3.png,min4.png,allBlank.png,,,,['num_7'],,,,,,0,5,5,5,,,,,,,,,['num_7'],6,0.0500878154198,1,['num_7'],0,[0.9601025477340954],,2018_Apr_03_1138,59.9843240902,sequenceLearningTask,001,052,
min1.png,min2.png,min3.png,min4.png,allBlank.png,,,,['num_1'],,,,,,0,5,5,5,,,,,,,,,['num_1'],6,0.055413766323,1,['num_1'],0,[1.0732102864458284],,2018_Apr_03_1138,59.9843240902,sequenceLearningTask,001,052,
min1.png,min2.png,min3.png,min4.png,allBlank.png,,,,['num_4'],,,,,,0,5,5,5,,,,,,,,,['num_4'],6,0.05802340842,1,['num_4'],0,[0.9527585447222009],,2018_Apr_03_1138,59.9843240902,sequenceLearningTask,001,052,
min1.png,min2.png,min3.png,min4.png,allBlank.png,,,,['num_0'],,,,,,0,5,5,5,,,,,,,,,['num_0'],6,0.0559220742243,1,['num_0'],0,[0.953629109180838],,2018_Apr_03_1138,59.9843240902,sequenceLearningTask,001,052,
min1.png,min2.png,min3.png,min4.png,allBlank.png,,,,['num_0'],,,,,,0,5,5,5,,,,,,,,,['num_0'],6,0.0532041243914,1,['num_0'],0,[1.0911672168895166],,2018_Apr_03_1138,59.9843240902,sequenceLearningTask,001,052,
min1.png,min2.png,min3.png,min4.png,allBlank.png,,,,['num_4'],,,,,,0,5,5,5,,,,,,,,,['num_4'],6,0.0521838162804,1,['num_4'],0,[0.8586465061107447],,2018_Apr_03_1138,59.9843240902,sequenceLearningTask,001,052,
min1.png,min2.png,min3.png,min4.png,allBlank.png,,,,['num_1'],,,,,,0,5,5,5,,,,,,,,,['num_1'],6,0.0669144889907,1,['num_1'],0,[0.7439477923880986],,2018_Apr_03_1138,59.9843240902,sequenceLearningTask,001,052,
min1.png,min2.png,min3.png,min4.png,allBlank.png,,,,['num_0'],,,,,,0,5,5,5,,,,,,,,,['num_0'],6,0.0617522304628,1,['num_0'],0,[1.216180191253443],,2018_Apr_03_1138,59.9843240902,sequenceLearningTask,001,052,
min1.png,min2.png,min3.png,min4.png,allBlank.png,,,,['num_7'],,,,,,0,6,6,6,,,,,,,,,['num_7'],7,0.0569210489939,1,['num_7'],0,[0.9188610949177018],,2018_Apr_03_1138,59.9843240902,sequenceLearningTask,001,052,
min1.png,min2.png,min3.png,min4.png,allBlank.png,,,,['num_1'],,,,,,0,6,6,6,,,,,,,,,['num_1'],7,0.0524590984451,1,['num_1'],0,[0.941732488915477],,2018_Apr_03_1138,59.9843240902,sequenceLearningTask,001,052,
min1.png,min2.png,min3.png,min4.png,allBlank.png,,,,['num_4'],,,,,,0,6,6,6,,,,,,,,,['num_4'],7,0.0510207388807,1,['num_4'],0,[0.8094333577155339],,2018_Apr_03_1138,59.9843240902,sequenceLearningTask,001,052,
min1.png,min2.png,min3.png,min4.png,allBlank.png,,,,['num_0'],,,,,,0,6,6,6,,,,,,,,,['num_0'],7,0.056540741145,1,['num_0'],0,[1.0385116055440449],,2018_Apr_03_1138,59.9843240902,sequenceLearningTask,001,052,
min1.png,min2.png,min3.png,min4.png,allBlank.png,,,,['num_0'],,,,,,0,6,6,6,,,,,,,,,['num_0'],7,0.0526884318724,0,"['num_1', 'num_0']",0,"[0.6423153404366531, 1.6080404545800775]",,2018_Apr_03_1138,59.9843240902,sequenceLearningTask,001,052,
min1.png,min2.png,min3.png,min4.png,allBlank.png,,,,['num_4'],,,,,,0,6,6,6,,,,,,,,,['num_4'],7,0.0501222769726,1,['num_4'],0,[1.1274671292176208],,2018_Apr_03_1138,59.9843240902,sequenceLearningTask,001,052,
min1.png,min2.png,min3.png,min4.png,allBlank.png,,,,['num_1'],,,,,,0,6,6,6,,,,,,,,,['num_1'],7,0.0597029988521,1,['num_1'],0,[0.7839810395826134],,2018_Apr_03_1138,59.9843240902,sequenceLearningTask,001,052,
min1.png,min2.png,min3.png,min4.png,allBlank.png,,,,['num_0'],,,,,,0,6,6,6,,,,,,,,,['num_0'],7,0.0669448479775,1,['num_0'],0,[1.1920653095648959],,2018_Apr_03_1138,59.9843240902,sequenceLearningTask,001,052,
min1.png,min2.png,min3.png,min4.png,allBlank.png,,,,['num_7'],,,,,,0,7,7,7,,,,,,,,,['num_7'],8,0.0486695584286,0,"['num_4', 'num_4', 'num_7']",0,"[1.494449843876282, 2.3921269301035863, 3.1929194637614273]",,2018_Apr_03_1138,59.9843240902,sequenceLearningTask,001,052,
min1.png,min2.png,min3.png,min4.png,allBlank.png,,,,['num_1'],,,,,,0,7,7,7,,,,,,,,,['num_1'],8,0.0207774444216,0,"['num_7', 'num_7', 'num_1']",0,"[0.00020430777567526093, 2.0905276268831585]",,2018_Apr_03_1138,59.9843240902,sequenceLearningTask,001,052,
min1.png,min2.png,min3.png,min4.png,allBlank.png,,,,['num_4'],,,,,,0,7,7,7,,,,,,,,,['num_4'],8,0.0214162139146,1,['num_4'],0,[1.254808719922039],,2018_Apr_03_1138,59.9843240902,sequenceLearningTask,001,052,
min1.png,min2.png,min3.png,min4.png,allBlank.png,,,,['num_0'],,,,,,0,7,7,7,,,,,,,,,['num_0'],8,0.0265854468043,1,['num_0'],0,[1.434064178078188],,2018_Apr_03_1138,59.9843240902,sequenceLearningTask,001,052,
min1.png,min2.png,min3.png,min4.png,allBlank.png,,,,['num_0'],,,,,,0,7,7,7,,,,,,,,,['num_0'],8,0.0226194964589,1,['num_0'],0,[1.0219081115519657],,2018_Apr_03_1138,59.9843240902,sequenceLearningTask,001,052,
min1.png,min2.png,min3.png,min4.png,allBlank.png,,,,['num_4'],,,,,,0,7,7,7,,,,,,,,,['num_4'],8,0.038825041569,1,['num_4'],0,[2.02182154741422],,2018_Apr_03_1138,59.9843240902,sequenceLearningTask,001,052,
min1.png,min2.png,min3.png,min4.png,allBlank.png,,,,['num_1'],,,,,,0,7,7,7,,,,,,,,,['num_1'],8,0.0345362192966,1,['num_1'],0,[2.8111835122799675],,2018_Apr_03_1138,59.9843240902,sequenceLearningTask,001,052,
min1.png,min2.png,min3.png,min4.png,allBlank.png,,,,['num_0'],,,,,,0,7,7,7,,,,,,,,,['num_0'],8,0.0273903702118,1,['num_0'],0,[1.068786489759077],,2018_Apr_03_1138,59.9843240902,sequenceLearningTask,001,052,
min1.png,min2.png,min3.png,min4.png,allBlank.png,,,,['num_7'],,,,,,0,8,8,8,,,,,,,,,['num_7'],9,0.032736833944,1,['num_7'],0,[2.7266911699252887],,2018_Apr_03_1138,59.9843240902,sequenceLearningTask,001,052,
min1.png,min2.png,min3.png,min4.png,allBlank.png,,,,['num_1'],,,,,,0,8,8,8,,,,,,,,,['num_1'],9,0.0565251513954,1,['num_1'],0,[0.9546371095948416],,2018_Apr_03_1138,59.9843240902,sequenceLearningTask,001,052,
min1.png,min2.png,min3.png,min4.png,allBlank.png,,,,['num_4'],,,,,,0,8,8,8,,,,,,,,,['num_4'],9,0.0221928296178,1,['num_4'],0,[0.906254320514563],,2018_Apr_03_1138,59.9843240902,sequenceLearningTask,001,052,
min1.png,min2.png,min3.png,min4.png,allBlank.png,,,,['num_0'],,,,,,0,8,8,8,,,,,,,,,['num_0'],9,0.0228065734591,1,['num_0'],0,[0.904950525107779],,2018_Apr_03_1138,59.9843240902,sequenceLearningTask,001,052,
min1.png,min2.png,min3.png,min4.png,allBlank.png,,,,['num_0'],,,,,,0,8,8,8,,,,,,,,,['num_0'],9,0.0536016630158,1,['num_0'],0,[1.2905954012694565],,2018_Apr_03_1138,59.9843240902,sequenceLearningTask,001,052,
min1.png,min2.png,min3.png,min4.png,allBlank.png,,,,['num_4'],,,,,,0,8,8,8,,,,,,,,,['num_4'],9,0.0278043190992,1,['num_4'],0,[1.8499839384548977],,2018_Apr_03_1138,59.9843240902,sequenceLearningTask,001,052,
min1.png,min2.png,min3.png,min4.png,allBlank.png,,,,['num_1'],,,,,,0,8,8,8,,,,,,,,,['num_1'],9,0.0376779641756,1,['num_1'],0,[1.1553797560527528],,2018_Apr_03_1138,59.9843240902,sequenceLearningTask,001,052,
min1.png,min2.png,min3.png,min4.png,allBlank.png,,,,['num_0'],,,,,,0,8,8,8,,,,,,,,,['num_0'],9,0.0337944754028,1,['num_0'],0,[0.5928310124427298],,2018_Apr_03_1138,59.9843240902,sequenceLearningTask,001,052,
min1.png,min2.png,min3.png,min4.png,allBlank.png,,,,['num_7'],,,,,,0,9,9,9,,,,,,,,,['num_7'],10,0.0459692496288,1,['num_7'],0,[0.8624664051149011],,2018_Apr_03_1138,59.9843240902,sequenceLearningTask,001,052,
min1.png,min2.png,min3.png,min4.png,allBlank.png,,,,['num_1'],,,,,,0,9,9,9,,,,,,,,,['num_1'],10,0.0579717160917,1,['num_1'],0,[1.1031651705297918],,2018_Apr_03_1138,59.9843240902,sequenceLearningTask,001,052,
min1.png,min2.png,min3.png,min4.png,allBlank.png,,,,['num_4'],,,,,,0,9,9,9,,,,,,,,,['num_4'],10,0.0550080225667,1,['num_4'],0,[0.9040241657539809],,2018_Apr_03_1138,59.9843240902,sequenceLearningTask,001,052,
min1.png,min2.png,min3.png,min4.png,allBlank.png,,,,['num_0'],,,,,,0,9,9,9,,,,,,,,,['num_0'],10,0.0263060620746,1,['num_0'],0,[0.8860779019805705],,2018_Apr_03_1138,59.9843240902,sequenceLearningTask,001,052,
min1.png,min2.png,min3.png,min4.png,allBlank.png,,,,['num_0'],,,,,,0,9,9,9,,,,,,,,,['num_0'],10,0.0292927299661,1,['num_0'],0,[0.9981251274357419],,2018_Apr_03_1138,59.9843240902,sequenceLearningTask,001,052,
min1.png,min2.png,min3.png,min4.png,allBlank.png,,,,['num_4'],,,,,,0,9,9,9,,,,,,,,,['num_4'],10,0.0210387778616,1,['num_4'],0,[1.0400135548770777],,2018_Apr_03_1138,59.9843240902,sequenceLearningTask,001,052,
min1.png,min2.png,min3.png,min4.png,allBlank.png,,,,['num_1'],,,,,,0,9,9,9,,,,,,,,,['num_1'],10,0.0258687285614,1,['num_1'],0,[0.9686083973774657],,2018_Apr_03_1138,59.9843240902,sequenceLearningTask,001,052,
min1.png,min2.png,min3.png,min4.png,allBlank.png,,,,['num_0'],,,,,,0,9,9,9,,,,,,,,,['num_0'],10,0.0235286250372,1,['num_0'],0,[0.6703838647727025],,2018_Apr_03_1138,59.9843240902,sequenceLearningTask,001,052,
min1.png,min2.png,min3.png,min4.png,allBlank.png,,,,['num_7'],,,,,,0,0,0,0,,,,,,,,,['num_7'],1,0.0442379668666,1,['num_7'],0,[0.7836647317599272],,2018_Apr_03_1138,59.9843240902,sequenceLearningTask,001,052,
min1.png,min2.png,min3.png,min4.png,allBlank.png,,,,['num_1'],,,,,,0,0,0,0,,,,,,,,,['num_1'],1,0.0658584885568,1,['num_1'],0,[0.7952475057427364],,2018_Apr_03_1138,59.9843240902,sequenceLearningTask,001,052,
min1.png,min2.png,min3.png,min4.png,allBlank.png,,,,['num_4'],,,,,,0,0,0,0,,,,,,,,,['num_4'],1,0.0399003240618,1,['num_4'],0,[1.1210576906905771],,2018_Apr_03_1138,59.9843240902,sequenceLearningTask,001,052,
min1.png,min2.png,min3.png,min4.png,allBlank.png,,,,['num_0'],,,,,,0,0,0,0,,,,,,,,,['num_0'],1,0.0432394023546,1,['num_0'],0,[0.8337537779507329],,2018_Apr_03_1138,59.9843240902,sequenceLearningTask,001,052,
min1.png,min2.png,min3.png,min4.png,allBlank.png,,,,['num_0'],,,,,,0,0,0,0,,,,,,,,,['num_0'],1,0.0527462780501,1,['num_0'],0,[0.9908369193171893],,2018_Apr_03_1138,59.9843240902,sequenceLearningTask,001,052,
min1.png,min2.png,min3.png,min4.png,allBlank.png,,,,['num_4'],,,,,,0,0,0,0,,,,,,,,,['num_4'],1,0.0559721255277,1,['num_4'],0,[1.1555852945994047],,2018_Apr_03_1138,59.9843240902,sequenceLearningTask,001,052,
min1.png,min2.png,min3.png,min4.png,allBlank.png,,,,['num_1'],,,,,,0,0,0,0,,,,,,,,,['num_1'],1,0.0566182796383,1,['num_1'],0,[3.804345765885955],,2018_Apr_03_1138,59.9843240902,sequenceLearningTask,001,052,
min1.png,min2.png,min3.png,min4.png,allBlank.png,,,,['num_0'],,,,,,0,0,0,0,,,,,,,,,['num_0'],1,0.0503425847564,1,['num_0'],0,[0.9923031763291874],,2018_Apr_03_1138,59.9843240902,sequenceLearningTask,001,052,
min1.png,min2.png,min3.png,min4.png,allBlank.png,,,,['num_7'],,,,,,0,1,1,1,,,,,,,,,['num_7'],2,0.0527749960102,1,['num_7'],0,[1.041065863001677],,2018_Apr_03_1138,59.9843240902,sequenceLearningTask,001,052,
min1.png,min2.png,min3.png,min4.png,allBlank.png,,,,['num_1'],,,,,,0,1,1,1,,,,,,,,,['num_1'],2,0.038662169708,1,['num_1'],0,[37.11787779194947],,2018_Apr_03_1138,59.9843240902,sequenceLearningTask,001,052,
min1.png,min2.png,min3.png,min4.png,allBlank.png,,,,['num_4'],,,,,,0,1,1,1,,,,,,,,,['num_4'],2,0.0540209452392,1,['num_4'],0,[1.2564234898145514],,2018_Apr_03_1138,59.9843240902,sequenceLearningTask,001,052,
min1.png,min2.png,min3.png,min4.png,allBlank.png,,,,['num_0'],,,,,,0,1,1,1,,,,,,,,,['num_0'],2,0.0517772520107,1,['num_0'],0,[1.0936923461304104],,2018_Apr_03_1138,59.9843240902,sequenceLearningTask,001,052,
min1.png,min2.png,min3.png,min4.png,allBlank.png,,,,['num_0'],,,,,,0,1,1,1,,,,,,,,,['num_0'],2,0.0491889432569,1,['num_0'],0,[0.8294157248883494],,2018_Apr_03_1138,59.9843240902,sequenceLearningTask,001,052,
min1.png,min2.png,min3.png,min4.png,allBlank.png,,,,['num_4'],,,,,,0,1,1,1,,,,,,,,,['num_4'],2,0.0546400224166,1,['num_4'],0,[1.1397444675876613],,2018_Apr_03_1138,59.9843240902,sequenceLearningTask,001,052,
min1.png,min2.png,min3.png,min4.png,allBlank.png,,,,['num_1'],,,,,,0,1,1,1,,,,,,,,,['num_1'],2,0.0532808423723,1,['num_1'],0,[0.8912344169166317],,2018_Apr_03_1138,59.9843240902,sequenceLearningTask,001,052,
min1.png,min2.png,min3.png,min4.png,allBlank.png,,,,['num_0'],,,,,,0,1,1,1,,,,,,,,,['num_0'],2,0.0497583793885,1,['num_0'],0,[0.9278354575735648],,2018_Apr_03_1138,59.9843240902,sequenceLearningTask,001,052,
min1.png,min2.png,min3.png,min4.png,allBlank.png,,,,['num_7'],,,,,,0,2,2,2,,,,,,,,,['num_7'],3,0.0527101754706,1,['num_7'],0,[1.8412270117860317],,2018_Apr_03_1138,59.9843240902,sequenceLearningTask,001,052,
min1.png,min2.png,min3.png,min4.png,allBlank.png,,,,['num_1'],,,,,,0,2,2,2,,,,,,,,,['num_1'],3,0.055328843212,1,['num_1'],0,[1.0562026897241594],,2018_Apr_03_1138,59.9843240902,sequenceLearningTask,001,052,
min1.png,min2.png,min3.png,min4.png,allBlank.png,,,,['num_4'],,,,,,0,2,2,2,,,,,,,,,['num_4'],3,0.0553665868174,1,['num_4'],0,[0.9222461219469551],,2018_Apr_03_1138,59.9843240902,sequenceLearningTask,001,052,
min1.png,min2.png,min3.png,min4.png,allBlank.png,,,,['num_0'],,,,,,0,2,2,2,,,,,,,,,['num_0'],3,0.0507663798016,1,['num_0'],0,[0.8772971804291956],,2018_Apr_03_1138,59.9843240902,sequenceLearningTask,001,052,
min1.png,min2.png,min3.png,min4.png,allBlank.png,,,,['num_0'],,,,,,0,2,2,2,,,,,,,,,['num_0'],3,0.0549616635744,1,['num_0'],0,[0.8401020882465673],,2018_Apr_03_1138,59.9843240902,sequenceLearningTask,001,052,
min1.png,min2.png,min3.png,min4.png,allBlank.png,,,,['num_4'],,,,,,0,2,2,2,,,,,,,,,['num_4'],3,0.059365357688,1,['num_4'],0,[1.202066954694601],,2018_Apr_03_1138,59.9843240902,sequenceLearningTask,001,052,
min1.png,min2.png,min3.png,min4.png,allBlank.png,,,,['num_1'],,,,,,0,2,2,2,,,,,,,,,['num_1'],3,0.0587380753796,0,"['num_0', 'num_0', 'num_1']",0,"[0.7356318915408337, 1.3522881445278472, 2.0019991803073935]",,2018_Apr_03_1138,59.9843240902,sequenceLearningTask,001,052,
min1.png,min2.png,min3.png,min4.png,allBlank.png,,,,['num_0'],,,,,,0,2,2,2,,,,,,,,,['num_0'],3,0.0591388960574,0,"['num_1', 'num_1', 'num_0']",0,"[0.0003704616901814006, 0.8679679458336977]",,2018_Apr_03_1138,59.9843240902,sequenceLearningTask,001,052,
min1.png,min2.png,min3.png,min4.png,allBlank.png,,,,['num_7'],,,,,,0,3,3,3,,,,,,,,,['num_7'],4,0.0629563335206,1,['num_7'],0,[1.4446549516533196],,2018_Apr_03_1138,59.9843240902,sequenceLearningTask,001,052,
min1.png,min2.png,min3.png,min4.png,allBlank.png,,,,['num_1'],,,,,,0,3,3,3,,,,,,,,,['num_1'],4,0.0527175600891,1,['num_1'],0,[1.6918653094835463],,2018_Apr_03_1138,59.9843240902,sequenceLearningTask,001,052,
min1.png,min2.png,min3.png,min4.png,allBlank.png,,,,['num_4'],,,,,,0,3,3,3,,,,,,,,,['num_4'],4,0.0535183809307,0,"['num_0', 'num_4']",0,"[0.0003208206444469397, 2.890528775601524]",,2018_Apr_03_1138,59.9843240902,sequenceLearningTask,001,052,
min1.png,min2.png,min3.png,min4.png,allBlank.png,,,,['num_0'],,,,,,0,3,3,3,,,,,,,,,['num_0'],4,0.0557395100468,1,['num_0'],0,[1.3882569797970064],,2018_Apr_03_1138,59.9843240902,sequenceLearningTask,001,052,
min1.png,min2.png,min3.png,min4.png,allBlank.png,,,,['num_0'],,,,,,0,3,3,3,,,,,,,,,['num_0'],4,0.0549370481785,1,['num_0'],0,[0.7555096432861319],,2018_Apr_03_1138,59.9843240902,sequenceLearningTask,001,052,
min1.png,min2.png,min3.png,min4.png,allBlank.png,,,,['num_4'],,,,,,0,3,3,3,,,,,,,,,['num_4'],4,0.0538318169565,1,['num_4'],0,[1.6916158734829878],,2018_Apr_03_1138,59.9843240902,sequenceLearningTask,001,052,
min1.png,min2.png,min3.png,min4.png,allBlank.png,,,,['num_1'],,,,,,0,3,3,3,,,,,,,,,['num_1'],4,0.0552648431849,1,['num_1'],0,[0.8385747030051789],,2018_Apr_03_1138,59.9843240902,sequenceLearningTask,001,052,
min1.png,min2.png,min3.png,min4.png,allBlank.png,,,,['num_0'],,,,,,0,3,3,3,,,,,,,,,['num_0'],4,0.0546297660021,1,['num_0'],0,[0.8895843649570452],,2018_Apr_03_1138,59.9843240902,sequenceLearningTask,001,052,
min1.png,min2.png,min3.png,min4.png,allBlank.png,,,,['num_7'],,,,,,0,4,4,4,,,,,,,,,['num_7'],5,0.0584160239659,1,['num_7'],0,[1.1672451968179303],,2018_Apr_03_1138,59.9843240902,sequenceLearningTask,001,052,
min1.png,min2.png,min3.png,min4.png,allBlank.png,,,,['num_1'],,,,,,0,4,4,4,,,,,,,,,['num_1'],5,0.0493509946054,1,['num_1'],0,[0.8788672323562423],,2018_Apr_03_1138,59.9843240902,sequenceLearningTask,001,052,
min1.png,min2.png,min3.png,min4.png,allBlank.png,,,,['num_4'],,,,,,0,4,4,4,,,,,,,,,['num_4'],5,0.0516595083727,1,['num_4'],0,[0.5762874159127023],,2018_Apr_03_1138,59.9843240902,sequenceLearningTask,001,052,
min1.png,min2.png,min3.png,min4.png,allBlank.png,,,,['num_0'],,,,,,0,4,4,4,,,,,,,,,['num_0'],5,0.0496147895856,0,"['num_1', 'num_0']",0,"[0.5450275056518876, 1.2954011468309545]",,2018_Apr_03_1138,59.9843240902,sequenceLearningTask,001,052,
min1.png,min2.png,min3.png,min4.png,allBlank.png,,,,['num_0'],,,,,,0,4,4,4,,,,,,,,,['num_0'],5,0.0560164332373,0,"['num_4', 'num_0']",0,"[0.5712363369175364, 0.7376175333820356]",,2018_Apr_03_1138,59.9843240902,sequenceLearningTask,001,052,
min1.png,min2.png,min3.png,min4.png,allBlank.png,,,,['num_4'],,,,,,0,4,4,4,,,,,,,,,['num_4'],5,0.0510072004136,0,"['num_4', 'num_1', 'num_0', 'num_1', 'num_0', 'num_7', 'num_4', 'num_1', 'num_0', 'num_1', 'num_1', 'num_1', 'num_4']",0,"[0.00033764116415113676, 0.09424250020219915, 0.2597133373183169, 0.42692653412359505, 0.577317570181549, 0.7436470743168684, 0.7599002091892544, 0.8941304181043961, 1.058295408531194, 1.2105289068831553, 1.54333068444339]",,2018_Apr_03_1138,59.9843240902,sequenceLearningTask,001,052,
min1.png,min2.png,min3.png,min4.png,allBlank.png,,,,['num_1'],,,,,,0,4,4,4,,,,,,,,,['num_1'],5,0.0564558180331,0,"['num_1', 'num_0', 'num_4', 'num_1']",0,"[0.0005735386966989608, 0.08660762527506449, 0.26981098248597846]",,2018_Apr_03_1138,59.9843240902,sequenceLearningTask,001,052,
min1.png,min2.png,min3.png,min4.png,allBlank.png,,,,['num_0'],,,,,,0,4,4,4,,,,,,,,,['num_0'],5,0.0541419709298,0,"['num_4', 'num_1', 'num_0', 'num_4', 'num_0']",0,"[0.000516923289069382, 0.10692024899344688]",,2018_Apr_03_1138,59.9843240902,sequenceLearningTask,001,052,
min1.png,min2.png,min3.png,min4.png,allBlank.png,,,,['num_7'],,,,,,0,5,5,5,,,,,,,,,['num_7'],6,0.0524147907336,0,"['num_4', 'num_0', 'num_4', 'num_1', 'num_4', 'num_0', 'num_1', 'num_0', 'num_4', 'num_4', 'num_1', 'num_0', 'num_1', 'num_7', 'num_4', 'num_4', 'num_4', 'num_7', 'num_4', 'num_4', 'num_1', 'num_7']",0,"[0.000714256702849525, 0.1397559547713172, 0.3057392023547436, 0.472835476034561, 0.6229893837908094, 0.8065188949822186, 0.9902502524100782, 1.7397520983595314, 1.9406087961469893, 2.072729875991172, 2.272923188891582, 2.4570303413456713, 2.7732626762099244, 2.9253624309176303, 3.108268352109917, 3.273400317292726]",,2018_Apr_03_1138,59.9843240902,sequenceLearningTask,001,052,
min1.png,min2.png,min3.png,min4.png,allBlank.png,,,,['num_1'],,,,,,0,5,5,5,,,,,,,,,['num_1'],6,0.0544176633503,0,"['num_4', 'num_7', 'num_4', 'num_1', 'num_0', 'num_0', 'num_0', 'num_4', 'num_1', 'num_0', 'num_4', 'num_1']",0,"[0.0005037950777477818, 0.1058351203419079, 0.27198944491829025, 0.45582746905711247, 0.6387723646239465, 0.8063080231004278, 0.972530040012316, 1.155938935769882]",,2018_Apr_03_1138,59.9843240902,sequenceLearningTask,001,052,
min1.png,min2.png,min3.png,min4.png,allBlank.png,,,,['num_4'],,,,,,0,5,5,5,,,,,,,,,['num_4'],6,0.0529567396743,0,"['num_1', 'num_1', 'num_1', 'num_1', 'num_0', 'num_4', 'num_1', 'num_1', 'num_4']",0,"[0.000772102881455794, 0.12382240977331094, 0.3083911008789073, 0.5400978626039432, 0.7072843927317081, 0.8911228271272194, 1.0908074218696129]",,2018_Apr_03_1138,59.9843240902,sequenceLearningTask,001,052,
min1.png,min2.png,min3.png,min4.png,allBlank.png,,,,['num_0'],,,,,,0,5,5,5,,,,,,,,,['num_0'],6,0.0537538682065,0,"['num_1', 'num_0', 'num_1', 'num_0']",0,"[0.0008209234138121246, 0.12357789685302123]",,2018_Apr_03_1138,59.9843240902,sequenceLearningTask,001,052,
min1.png,min2.png,min3.png,min4.png,allBlank.png,,,,['num_0'],,,,,,0,5,5,5,,,,,,,,,['num_0'],6,0.0534457655167,0,"['num_0', 'num_0', 'num_1', 'num_0']",0,"[0.0006613336045120377, 0.17441730232530972]",,2018_Apr_03_1138,59.9843240902,sequenceLearningTask,001,052,
min1.png,min2.png,min3.png,min4.png,allBlank.png,,,,['num_4'],,,,,,0,5,5,5,,,,,,,,,['num_4'],6,0.0479397119752,0,"['num_1', 'num_1', 'num_0', 'num_1', 'num_1', 'num_1', 'num_1', 'num_1', 'num_1', 'num_4', 'num_1', 'num_0', 'num_0', 'num_1', 'num_0', 'num_4', 'num_1', 'num_4']",0,"[0.1465785216732911, 0.34495275690369454, 0.8797993353018683, 1.0628402309084777, 1.2129001899074865, 1.429673612174156, 1.629638412159693, 1.8132774618570693, 2.013640620980368, 2.1810187409309947, 2.379717899371826, 2.563051307918613, 2.7640462621729966, 2.947482234864765, 3.130333181675269]",,2018_Apr_03_1138,59.9843240902,sequenceLearningTask,001,052,
min1.png,min2.png,min3.png,min4.png,allBlank.png,,,,['num_1'],,,,,,0,5,5,5,,,,,,,,,['num_1'],6,0.0510092516961,0,"['num_4', 'num_4', 'num_1', 'num_1']",0,"[0.0008627695842733374, 0.17596561065238348]",,2018_Apr_03_1138,59.9843240902,sequenceLearningTask,001,052,
min1.png,min2.png,min3.png,min4.png,allBlank.png,,,,['num_0'],,,,,,0,5,5,5,,,,,,,,,['num_0'],6,0.0641522314472,0,"['num_0', 'num_0', 'num_0', 'num_1', 'num_0']",0,"[0.0010998978877978516, 0.16134119439630012, 0.511450876492745]",,2018_Apr_03_1138,59.9843240902,sequenceLearningTask,001,052,
min1.png,min2.png,min3.png,min4.png,allBlank.png,,,,['num_7'],,,,,,0,6,6,6,,,,,,,,,['num_7'],7,0.057892126315,0,"['num_0', 'num_0', 'num_1', 'num_4', 'num_4', 'num_4', 'num_4', 'num_1', 'num_7']",0,"[0.0007183592688306817, 0.16734324814115098, 0.3335677265922641, 0.5006057438386051, 0.7003695181001603, 0.8841283627198209, 1.0839889575345296, 1.2676403149298494, 1.8008495593230691]",,2018_Apr_03_1138,59.9843240902,sequenceLearningTask,001,052,
min1.png,min2.png,min3.png,min4.png,allBlank.png,,,,['num_1'],,,,,,0,6,6,6,,,,,,,,,['num_1'],7,0.0612980764299,0,"['num_7', 'num_4', 'num_4', 'num_1']",0,"[0.0003532309146976331, 0.03081601264238998, 0.2333264546978171]",,2018_Apr_03_1138,59.9843240902,sequenceLearningTask,001,052,
min1.png,min2.png,min3.png,min4.png,allBlank.png,,,,['num_4'],,,,,,0,6,6,6,,,,,,,,,['num_4'],7,0.0528812524644,0,"['num_1', 'num_0', 'num_0', 'num_0', 'num_0', 'num_1', 'num_4']",0,"[0.0007076925976434723, 0.2078515724515455, 0.37441492283687694, 0.5414258631490156, 0.7418936376998317]",,2018_Apr_03_1138,59.9843240902,sequenceLearningTask,001,052,
min1.png,min2.png,min3.png,min4.png,allBlank.png,,,,['num_0'],,,,,,0,6,6,6,,,,,,,,,['num_0'],7,0.0493444305012,0,"['num_4', 'num_4', 'num_1', 'num_1', 'num_1', 'num_0']",0,"[0.00036964117771276506, 0.009972927167837042, 0.21229177940131194, 0.4113019123287813]",,2018_Apr_03_1138,59.9843240902,sequenceLearningTask,001,052,
min1.png,min2.png,min3.png,min4.png,allBlank.png,,,,['num_0'],,,,,,0,6,6,6,,,,,,,,,['num_0'],7,0.056528433448,0,"['num_0', 'num_1', 'num_1', 'num_4', 'num_4', 'num_4', 'num_1', 'num_0']",0,"[0.00032164115691557527, 0.0003630770725067123, 0.18750284615543933, 0.3866832355624865, 0.5537823810391274, 0.7372901486323826, 0.9210440701726839, 1.104151837601421]",,2018_Apr_03_1138,59.9843240902,sequenceLearningTask,001,052,
min1.png,min2.png,min3.png,min4.png,allBlank.png,,,,['num_4'],,,,,,0,6,6,6,,,,,,,,,['num_4'],7,0.0508422772682,0,"['num_0', 'num_0', 'num_1', 'num_4']",0,"[0.0007089233677106677, 0.12757789849365508, 0.49245558664824785]",,2018_Apr_03_1138,59.9843240902,sequenceLearningTask,001,052,
min1.png,min2.png,min3.png,min4.png,allBlank.png,,,,['num_1'],,,,,,0,6,6,6,,,,,,,,,['num_1'],7,0.0474330451007,0,"['num_4', 'num_1', 'num_1', 'num_4', 'num_7', 'num_1']",0,"[0.0005981540916764061, 0.1976251067180783, 0.3801855918709407]",,2018_Apr_03_1138,59.9843240902,sequenceLearningTask,001,052,
min1.png,min2.png,min3.png,min4.png,allBlank.png,,,,['num_0'],,,,,,0,6,6,6,,,,,,,,,['num_0'],7,0.0550154071861,0,"['num_1', 'num_0', 'num_1', 'num_1', 'num_0']",0,"[0.000719179782208812, 0.4236087891731586, 0.6236080507114821]",,2018_Apr_03_1138,59.9843240902,sequenceLearningTask,001,052,
min1.png,min2.png,min3.png,min4.png,allBlank.png,,,,['num_7'],,,,,,0,7,7,7,,,,,,,,,['num_7'],8,0.0541083298913,0,"['num_0', 'num_1', 'num_4', 'num_1', 'num_4', 'num_4', 'num_1', 'num_7', 'num_4', 'num_4', 'num_4', 'num_4', 'num_7']",0,"[0.0003458462961134501, 0.01960246958060452, 0.23860071327180776, 0.4384974106651498, 0.6473139065901705, 0.8566834283828939, 1.0555672022837825, 1.2550318994999543, 1.4217261217336272, 1.6215912293710062]",,2018_Apr_03_1138,59.9843240902,sequenceLearningTask,001,052,
min1.png,min2.png,min3.png,min4.png,allBlank.png,,,,['num_1'],,,,,,0,7,7,7,,,,,,,,,['num_1'],8,0.0497276101441,0,"['num_4', 'num_7', 'num_4', 'num_7', 'num_7', 'num_4', 'num_1']",0,"[0.00024451292028970784, 0.04281150474344031, 0.26190821001364384, 0.4616412150326141]",,2018_Apr_03_1138,59.9843240902,sequenceLearningTask,001,052,
min1.png,min2.png,min3.png,min4.png,allBlank.png,,,,['num_4'],,,,,,0,7,7,7,,,,,,,,,['num_4'],8,0.0527429959975,0,"['num_0', 'num_0', 'num_0', 'num_1', 'num_1', 'num_4']",0,"[0.0005415386831373326, 0.15590078190780332, 0.3250389025797631, 0.5077794903709218]",,2018_Apr_03_1138,59.9843240902,sequenceLearningTask,001,052,
min1.png,min2.png,min3.png,min4.png,allBlank.png,,,,['num_0'],,,,,,0,7,7,7,,,,,,,,,['num_0'],8,0.0510277132425,0,"['num_4', 'num_1', 'num_0', 'num_0']",0,"[0.0008910772885428742, 0.17630776463920483]",,2018_Apr_03_1138,59.9843240902,sequenceLearningTask,001,052,
min1.png,min2.png,min3.png,min4.png,allBlank.png,,,,['num_0'],,,,,,0,7,7,7,,,,,,,,,['num_0'],8,0.0468763269237,0,"['num_4', 'num_0', 'num_0']",0,"[0.00040492324296792503, 0.09731327069312101]",,2018_Apr_03_1138,59.9843240902,sequenceLearningTask,001,052,
min1.png,min2.png,min3.png,min4.png,allBlank.png,,,,['num_4'],,,,,,0,7,7,7,,,,,,,,,['num_4'],8,0.0525842267016,0,"['num_1', 'num_7', 'num_7', 'num_4', 'num_1', 'num_0', 'num_7', 'num_4', 'num_1', 'num_0', 'num_4']",0,"[0.0003450257827353198, 0.17620232869830943, 0.35999973743582814, 1.8571154285600642]",,2018_Apr_03_1138,59.9843240902,sequenceLearningTask,001,052,
min1.png,min2.png,min3.png,min4.png,allBlank.png,,,,['num_1'],,,,,,0,7,7,7,,,,,,,,,['num_1'],8,0.0558309972639,0,"['num_4', 'num_1', 'num_0', 'num_0', 'num_1']",0,"[0.0003208206444469397, 0.1380702104906959, 0.1719861218407459]",,2018_Apr_03_1138,59.9843240902,sequenceLearningTask,001,052,
min1.png,min2.png,min3.png,min4.png,allBlank.png,,,,['num_0'],,,,,,0,7,7,7,,,,,,,,,['num_0'],8,0.0259786773249,0,"['num_7', 'num_4', 'num_1', 'num_0', 'num_1', 'num_0', 'num_4', 'num_1', 'num_0', 'num_7', 'num_1', 'num_0', 'num_4', 'num_1', 'num_0', 'num_1', 'num_0', 'num_1', 'num_0']",0,"[0.0002518975397833856, 0.1687553512838349, 0.18518776828204864, 0.4521023393235737, 0.46865660252569796, 0.7520725136701003, 0.9854859427632618, 1.2353481991167428, 1.2517826673974923]",,2018_Apr_03_1138,59.9843240902,sequenceLearningTask,001,052,
min1.png,min2.png,min3.png,min4.png,allBlank.png,,,,['num_7'],,,,,,0,8,8,8,,,,,,,,,['num_7'],9,0.0255310873981,0,"['num_1', 'num_0', 'num_1', 'num_0', 'num_1', 'num_0', 'num_4', 'num_4', 'num_1', 'num_0', 'num_0', 'num_4', 'num_7']",0,"[0.0005070771312603028, 0.01809354588476708, 0.2850971426041724, 0.3022700727260599, 0.5851021887601746, 4.987031789551111, 5.019620110613687, 5.0361395020063355]",,2018_Apr_03_1138,59.9843240902,sequenceLearningTask,001,052,
min1.png,min2.png,min3.png,min4.png,allBlank.png,,,,['num_1'],,,,,,0,8,8,8,,,,,,,,,['num_1'],9,0.0575146902629,1,['num_1'],0,[2.250274153958344],,2018_Apr_03_1138,59.9843240902,sequenceLearningTask,001,052,
min1.png,min2.png,min3.png,min4.png,allBlank.png,,,,['num_4'],,,,,,0,8,8,8,,,,,,,,,['num_4'],9,0.0230888299848,0,"['num_4', 'num_4']",0,"[0.0003355898807058111, 4.372087127010673]",,2018_Apr_03_1138,59.9843240902,sequenceLearningTask,001,052,
min1.png,min2.png,min3.png,min4.png,allBlank.png,,,,['num_0'],,,,,,0,8,8,8,,,,,,,,,['num_0'],9,0.05932433203,1,['num_0'],0,[0.967874038102309],,2018_Apr_03_1138,59.9843240902,sequenceLearningTask,001,052,
min1.png,min2.png,min3.png,min4.png,allBlank.png,,,,['num_0'],,,,,,0,8,8,8,,,,,,,,,['num_0'],9,0.0510621747953,1,['num_0'],0,[1.0096750808925208],,2018_Apr_03_1138,59.9843240902,sequenceLearningTask,001,052,
min1.png,min2.png,min3.png,min4.png,allBlank.png,,,,['num_4'],,,,,,0,8,8,8,,,,,,,,,['num_4'],9,0.0490724303891,1,['num_4'],0,[1.711073112235681],,2018_Apr_03_1138,59.9843240902,sequenceLearningTask,001,052,
min1.png,min2.png,min3.png,min4.png,allBlank.png,,,,['num_1'],,,,,,0,8,8,8,,,,,,,,,['num_1'],9,0.0535848424961,1,['num_1'],0,[1.3236854661272446],,2018_Apr_03_1138,59.9843240902,sequenceLearningTask,001,052,
min1.png,min2.png,min3.png,min4.png,allBlank.png,,,,['num_0'],,,,,,0,8,8,8,,,,,,,,,['num_0'],9,0.0641665904268,1,['num_0'],0,[1.445509105849851],,2018_Apr_03_1138,59.9843240902,sequenceLearningTask,001,052,
min1.png,min2.png,min3.png,min4.png,allBlank.png,,,,['num_7'],,,,,,0,9,9,9,,,,,,,,,['num_7'],10,0.0492833022699,1,['num_7'],0,[1.160751245436586],,2018_Apr_03_1138,59.9843240902,sequenceLearningTask,001,052,
min1.png,min2.png,min3.png,min4.png,allBlank.png,,,,['num_1'],,,,,,0,9,9,9,,,,,,,,,['num_1'],10,0.0546740737118,1,['num_1'],0,[1.173380583951257],,2018_Apr_03_1138,59.9843240902,sequenceLearningTask,001,052,
min1.png,min2.png,min3.png,min4.png,allBlank.png,,,,['num_4'],,,,,,0,9,9,9,,,,,,,,,['num_4'],10,0.0501912000782,1,['num_4'],0,[0.7120601895639993],,2018_Apr_03_1138,59.9843240902,sequenceLearningTask,001,052,
min1.png,min2.png,min3.png,min4.png,allBlank.png,,,,['num_0'],,,,,,0,9,9,9,,,,,,,,,['num_0'],10,0.0554252535076,1,['num_0'],0,[0.5556133561494789],,2018_Apr_03_1138,59.9843240902,sequenceLearningTask,001,052,
min1.png,min2.png,min3.png,min4.png,allBlank.png,,,,['num_0'],,,,,,0,9,9,9,,,,,,,,,['num_0'],10,0.0598277168519,0,"['num_1', 'num_0', 'num_0']",0,"[0.5676154123557353, 1.2669974428708883]",,2018_Apr_03_1138,59.9843240902,sequenceLearningTask,001,052,
min1.png,min2.png,min3.png,min4.png,allBlank.png,,,,['num_4'],,,,,,0,9,9,9,,,,,,,,,['num_4'],10,0.0570806388023,0,"['num_0', 'num_4']",0,"[1.3037638169289494, 2.019535597758477]",,2018_Apr_03_1138,59.9843240902,sequenceLearningTask,001,052,
min1.png,min2.png,min3.png,min4.png,allBlank.png,,,,['num_1'],,,,,,0,9,9,9,,,,,,,,,['num_1'],10,0.055423202225,0,"['num_4', 'num_1']",0,"[0.00033887193421833217, 0.35616424868294416]",,2018_Apr_03_1138,59.9843240902,sequenceLearningTask,001,052,
min1.png,min2.png,min3.png,min4.png,allBlank.png,,,,['num_0'],,,,,,0,9,9,9,,,,,,,,,['num_0'],10,0.0485181737504,0,"['num_1', 'num_0', 'num_4', 'num_0']",0,"[0.00032615398049529176, 0.02739816508619697, 0.19576049056831835, 0.3790241554970635]",,2018_Apr_03_1138,59.9843240902,sequenceLearningTask,001,052,
min1.png,min2.png,min3.png,min4.png,images/allBlank.png,images/min3.png,'num_1',"['num_7', 'num_4', 'num_1', 'num_0']",['num_1'],num_1,,,,,0,9,9,9,0,0,0,2,,,,,['num_1'],,0.0565928437309,0,"['num_1', 'num_4', 'num_1', 'num_1', 'num_0', 'num_0', 'num_1']",0,"[0.00017107699386542663, 2.1611479635475916, 2.378050616636756]",0,2018_Apr_03_1138,59.9843240902,sequenceLearningTask,001,052,
min1.png,min2.png,min3.png,min4.png,images/allBlank.png,images/min1.png,'num_7',"['num_7', 'num_4', 'num_1', 'num_0']",['num_7'],num_7,,,,,0,9,9,9,0,1,1,0,,,,,['num_7'],,0.0595598193058,0,"['num_1', 'num_1', 'num_4', 'num_4', 'num_1', 'num_1', 'num_0', 'num_0', 'num_1', 'num_4', 'num_1', 'num_7']",0,"[0.0007762054474369506, 0.09978998965743813, 0.26597959629907564, 0.43230458761172486, 0.615340970395664, 0.7320733259784902, 1.0333797060020515, 1.182376690205274]",0,2018_Apr_03_1138,59.9843240902,sequenceLearningTask,001,052,
min1.png,min2.png,min3.png,min4.png,images/allBlank.png,images/min2.png,'num_4',"['num_7', 'num_4', 'num_1', 'num_0']",['num_4'],num_4,,,,,0,9,9,9,0,2,2,1,,,,,['num_4'],,0.0562474076914,0,"['num_1', 'num_4', 'num_1', 'num_4']",0,"[0.0004422565916684107, 0.08516598365804384]",0,2018_Apr_03_1138,59.9843240902,sequenceLearningTask,001,052,
min1.png,min2.png,min3.png,min4.png,images/allBlank.png,images/min4.png,'num_0',"['num_7', 'num_4', 'num_1', 'num_0']",['num_0'],num_0,,,,,0,9,9,9,0,3,3,3,,,,,['num_0'],,0.0561366384145,0,"['num_1', 'num_0', 'num_0', 'num_0']",0,"[0.000516923289069382, 0.40257985746848135]",0,2018_Apr_03_1138,59.9843240902,sequenceLearningTask,001,052,
min1.png,min2.png,min3.png,min4.png,images/allBlank.png,images/min4.png,'num_0',"['num_7', 'num_4', 'num_1', 'num_0']",['num_0'],num_0,,,,,0,9,9,9,1,0,4,3,,,,,['num_0'],,0.0584033060113,0,"['num_1', 'num_1', 'num_7', 'num_0']",0,"[0.0006153848680696683, 0.1667676581610067, 0.49954441006957495]",0,2018_Apr_03_1138,59.9843240902,sequenceLearningTask,001,052,
min1.png,min2.png,min3.png,min4.png,images/allBlank.png,images/min2.png,'num_4',"['num_7', 'num_4', 'num_1', 'num_0']",['num_4'],num_4,,,,,0,9,9,9,1,1,5,1,,,,,['num_4'],,0.0516603288861,0,"['num_4', 'num_1', 'num_0', 'num_1', 'num_0', 'num_4']",0,"[0.0006190771773617598, 0.15711021830156824, 0.2906274012830181]",0,2018_Apr_03_1138,59.9843240902,sequenceLearningTask,001,052,
min1.png,min2.png,min3.png,min4.png,images/allBlank.png,images/min3.png,'num_1',"['num_7', 'num_4', 'num_1', 'num_0']",['num_1'],num_1,,,,,0,9,9,9,1,2,6,2,,,,,['num_1'],,0.0455971469119,0,"['num_4', 'num_7', 'num_1']",0,"[0.00024041035521804588, 0.096178090740068]",0,2018_Apr_03_1138,59.9843240902,sequenceLearningTask,001,052,
min1.png,min2.png,min3.png,min4.png,images/allBlank.png,images/min1.png,'num_7',"['num_7', 'num_4', 'num_1', 'num_0']",['num_7'],num_7,,,,,0,9,9,9,1,3,7,0,,,,,['num_7'],,0.0485321224742,0,"['num_7', 'num_0', 'num_4', 'num_1', 'num_0', 'num_4', 'num_1', 'num_0', 'num_4', 'num_0', 'num_1', 'num_4', 'num_7']",0,"[0.0003987693944509374, 0.1107060966996869, 0.27704134442683426, 0.41160591245352407, 0.5782607500559607, 0.7442874848356951, 3.4117232458347644, 3.6275157446216326, 4.610480250453293]",0,2018_Apr_03_1138,59.9843240902,sequenceLearningTask,001,052,
min1.png,min2.png,min3.png,min4.png,images/allBlank.png,images/min3.png,'num_1',"['num_7', 'num_4', 'num_1', 'num_0']",['num_1'],num_1,,,,,0,9,9,9,2,0,8,2,,,,,['num_1'],,0.0511823799725,0,"['num_4', 'num_1', 'num_0', 'num_1']",0,"[0.0006674874530290253, 0.2236768097136519, 0.8910838527517626]",0,2018_Apr_03_1138,59.9843240902,sequenceLearningTask,001,052,
min1.png,min2.png,min3.png,min4.png,images/allBlank.png,images/min4.png,'num_0',"['num_7', 'num_4', 'num_1', 'num_0']",['num_0'],num_0,,,,,0,9,9,9,2,1,9,3,,,,,['num_0'],,0.0566609463231,0,"['num_4', 'num_7', 'num_7', 'num_4', 'num_1', 'num_0']",0,"[0.0002518975388738909, 0.11834589470618084, 2.969103166811692, 3.2688669821000076, 3.3863135943856832, 3.685227768299228]",0,2018_Apr_03_1138,59.9843240902,sequenceLearningTask,001,052,
min1.png,min2.png,min3.png,min4.png,images/allBlank.png,images/min1.png,'num_7',"['num_7', 'num_4', 'num_1', 'num_0']",['num_7'],num_7,,,,,0,9,9,9,2,2,10,0,,,,,['num_7'],,0.050304841151,0,"['num_0', 'num_1', 'num_4', 'num_7']",0,"[0.4906828679722821, 0.8738411790118334, 1.342009165951822, 1.742977125323705]",0,2018_Apr_03_1138,59.9843240902,sequenceLearningTask,001,052,
min1.png,min2.png,min3.png,min4.png,images/allBlank.png,images/min2.png,'num_4',"['num_7', 'num_4', 'num_1', 'num_0']",['num_4'],num_4,,,,,0,9,9,9,2,3,11,1,,,,,['num_4'],,0.0523868932869,1,['num_4'],0,[44.68694182028412],1,2018_Apr_03_1138,59.9843240902,sequenceLearningTask,001,052,
min1.png,min2.png,min3.png,min4.png,images/allBlank.png,images/min3.png,'num_1',"['num_7', 'num_4', 'num_1', 'num_0']",['num_1'],num_1,,,,,0,9,9,9,3,0,12,2,,,,,['num_1'],,0.0573321260854,1,['num_1'],0,[0.9012319594803557],1,2018_Apr_03_1138,59.9843240902,sequenceLearningTask,001,052,
min1.png,min2.png,min3.png,min4.png,images/allBlank.png,images/min1.png,'num_7',"['num_7', 'num_4', 'num_1', 'num_0']",['num_7'],num_7,,,,,0,9,9,9,3,1,13,0,,,,,['num_7'],,0.0583015623806,1,['num_7'],0,[2.2347713783683503],1,2018_Apr_03_1138,59.9843240902,sequenceLearningTask,001,052,
min1.png,min2.png,min3.png,min4.png,images/allBlank.png,images/min4.png,'num_0',"['num_7', 'num_4', 'num_1', 'num_0']",['num_0'],num_0,,,,,0,9,9,9,3,2,14,3,,,,,['num_0'],,0.0556787920732,1,['num_0'],0,[1.0028488216812548],1,2018_Apr_03_1138,59.9843240902,sequenceLearningTask,001,052,
min1.png,min2.png,min3.png,min4.png,images/allBlank.png,images/min2.png,'num_4',"['num_7', 'num_4', 'num_1', 'num_0']",['num_4'],num_4,,,,,0,9,9,9,3,3,15,1,,,,,['num_4'],,0.0540738683385,1,['num_4'],0,[1.6211149214832403],1,2018_Apr_03_1138,59.9843240902,sequenceLearningTask,001,052,
min1.png,min2.png,min3.png,min4.png,images/allBlank.png,images/min4.png,'num_0',"['num_7', 'num_4', 'num_1', 'num_0']",['num_0'],num_0,,,,,0,9,9,9,4,0,16,3,,,,,['num_0'],,0.0537665861602,1,['num_0'],0,[0.7716109832254006],1,2018_Apr_03_1138,59.9843240902,sequenceLearningTask,001,052,
min1.png,min2.png,min3.png,min4.png,images/allBlank.png,images/min1.png,'num_7',"['num_7', 'num_4', 'num_1', 'num_0']",['num_7'],num_7,,,,,0,9,9,9,4,1,17,0,,,,,['num_7'],,0.0496673024272,1,['num_7'],0,[0.9425624379746296],1,2018_Apr_03_1138,59.9843240902,sequenceLearningTask,001,052,
min1.png,min2.png,min3.png,min4.png,images/allBlank.png,images/min2.png,'num_4',"['num_7', 'num_4', 'num_1', 'num_0']",['num_4'],num_4,,,,,0,9,9,9,4,2,18,1,,,,,['num_4'],,0.0508590977888,1,['num_4'],0,[0.6730665325403606],1,2018_Apr_03_1138,59.9843240902,sequenceLearningTask,001,052,
min1.png,min2.png,min3.png,min4.png,images/allBlank.png,images/min3.png,'num_1',"['num_7', 'num_4', 'num_1', 'num_0']",['num_1'],num_1,,,,,0,9,9,9,4,3,19,2,,,,,['num_1'],,0.0496086357371,1,['num_1'],0,[0.3921671352482008],1,2018_Apr_03_1138,59.9843240902,sequenceLearningTask,001,052,
min1.png,min2.png,min3.png,min4.png,images/allBlank.png,images/min1.png,'num_7',"['num_7', 'num_4', 'num_1', 'num_0']",['num_7'],num_7,,,,,0,9,9,9,5,0,20,0,,,,,['num_7'],,0.0501050461971,1,['num_7'],0,[0.9433989511380787],1,2018_Apr_03_1138,59.9843240902,sequenceLearningTask,001,052,
min1.png,min2.png,min3.png,min4.png,images/allBlank.png,images/min2.png,'num_4',"['num_7', 'num_4', 'num_1', 'num_0']",['num_4'],num_4,,,,,0,9,9,9,5,1,21,1,,,,,['num_4'],,0.0508262772619,1,['num_4'],0,[0.5912580887206786],1,2018_Apr_03_1138,59.9843240902,sequenceLearningTask,001,052,
min1.png,min2.png,min3.png,min4.png,images/allBlank.png,images/min3.png,'num_1',"['num_7', 'num_4', 'num_1', 'num_0']",['num_1'],num_1,,,,,0,9,9,9,5,2,22,2,,,,,['num_1'],,0.0471532501142,1,['num_1'],0,[0.5293540633247176],1,2018_Apr_03_1138,59.9843240902,sequenceLearningTask,001,052,
min1.png,min2.png,min3.png,min4.png,images/allBlank.png,images/min4.png,'num_0',"['num_7', 'num_4', 'num_1', 'num_0']",['num_0'],num_0,,,,,0,9,9,9,5,3,23,3,,,,,['num_0'],,0.0527905857607,1,['num_0'],0,[0.4065511411490661],1,2018_Apr_03_1138,59.9843240902,sequenceLearningTask,001,052,
min1.png,min2.png,min3.png,min4.png,images/allBlank.png,images/min4.png,'num_0',"['num_7', 'num_4', 'num_1', 'num_0']",['num_0'],num_0,,,,,0,9,9,9,6,0,24,3,,,,,['num_0'],,0.0551294585148,1,['num_0'],0,[0.9887261492203834],1,2018_Apr_03_1138,59.9843240902,sequenceLearningTask,001,052,
min1.png,min2.png,min3.png,min4.png,images/allBlank.png,images/min1.png,'num_7',"['num_7', 'num_4', 'num_1', 'num_0']",['num_7'],num_7,,,,,0,9,9,9,6,1,25,0,,,,,['num_7'],,0.0491003278357,1,['num_7'],0,[1.077177057303743],1,2018_Apr_03_1138,59.9843240902,sequenceLearningTask,001,052,
min1.png,min2.png,min3.png,min4.png,images/allBlank.png,images/min3.png,'num_1',"['num_7', 'num_4', 'num_1', 'num_0']",['num_1'],num_1,,,,,0,9,9,9,6,2,26,2,,,,,['num_1'],,0.054647817291,1,['num_1'],0,[0.9885599953067867],1,2018_Apr_03_1138,59.9843240902,sequenceLearningTask,001,052,
min1.png,min2.png,min3.png,min4.png,images/allBlank.png,images/min2.png,'num_4',"['num_7', 'num_4', 'num_1', 'num_0']",['num_4'],num_4,,,,,0,9,9,9,6,3,27,1,,,,,['num_4'],,0.0356595018084,1,['num_4'],0,[7.726719887885338],1,2018_Apr_03_1138,59.9843240902,sequenceLearningTask,001,052,
min1.png,min2.png,min3.png,min4.png,images/allBlank.png,images/min4.png,'num_0',"['num_7', 'num_4', 'num_1', 'num_0']",['num_0'],num_0,,,,,0,9,9,9,7,0,28,3,,,,,['num_0'],,0.0532915090425,1,['num_0'],0,[2.056121048665773],1,2018_Apr_03_1138,59.9843240902,sequenceLearningTask,001,052,
min1.png,min2.png,min3.png,min4.png,images/allBlank.png,images/min1.png,'num_7',"['num_7', 'num_4', 'num_1', 'num_0']",['num_7'],num_7,,,,,0,9,9,9,7,1,29,0,,,,,['num_7'],,0.0498428922429,1,['num_7'],0,[2.859063737051656],1,2018_Apr_03_1138,59.9843240902,sequenceLearningTask,001,052,
min1.png,min2.png,min3.png,min4.png,images/allBlank.png,images/min3.png,'num_1',"['num_7', 'num_4', 'num_1', 'num_0']",['num_1'],num_1,,,,,0,9,9,9,7,2,30,2,,,,,['num_1'],,0.0525329446291,1,['num_1'],0,[2.32330720956179],1,2018_Apr_03_1138,59.9843240902,sequenceLearningTask,001,052,
min1.png,min2.png,min3.png,min4.png,images/allBlank.png,images/min2.png,'num_4',"['num_7', 'num_4', 'num_1', 'num_0']",['num_4'],num_4,,,,,0,9,9,9,7,3,31,1,,,,,['num_4'],,0.048313455718,1,['num_4'],0,[1.511016825033039],1,2018_Apr_03_1138,59.9843240902,sequenceLearningTask,001,052,
min1.png,min2.png,min3.png,min4.png,images/allBlank.png,images/min3.png,'num_1',"['num_7', 'num_4', 'num_1', 'num_0']",['num_1'],num_1,,,,,0,9,9,9,8,0,32,2,,,,,['num_1'],,0.0630154104683,1,['num_1'],0,[1.2613982610864696],1,2018_Apr_03_1138,59.9843240902,sequenceLearningTask,001,052,
min1.png,min2.png,min3.png,min4.png,images/allBlank.png,images/min1.png,'num_7',"['num_7', 'num_4', 'num_1', 'num_0']",['num_7'],num_7,,,,,0,9,9,9,8,1,33,0,,,,,['num_7'],,0.049002686771,1,['num_7'],0,[1.177465918960479],1,2018_Apr_03_1138,59.9843240902,sequenceLearningTask,001,052,
min1.png,min2.png,min3.png,min4.png,images/allBlank.png,images/min4.png,'num_0',"['num_7', 'num_4', 'num_1', 'num_0']",['num_0'],num_0,,,,,0,9,9,9,8,2,34,3,,,,,['num_0'],,0.0537912015552,1,['num_0'],0,[1.1721091988138141],1,2018_Apr_03_1138,59.9843240902,sequenceLearningTask,001,052,
min1.png,min2.png,min3.png,min4.png,images/allBlank.png,images/min2.png,'num_4',"['num_7', 'num_4', 'num_1', 'num_0']",['num_4'],num_4,,,,,0,9,9,9,8,3,35,1,,,,,['num_4'],,0.0551754072512,1,['num_4'],0,[1.204128083744763],1,2018_Apr_03_1138,59.9843240902,sequenceLearningTask,001,052,
min1.png,min2.png,min3.png,min4.png,images/allBlank.png,images/min1.png,'num_7',"['num_7', 'num_4', 'num_1', 'num_0']",['num_7'],num_7,,,,,0,9,9,9,9,0,36,0,,,,,['num_7'],,0.0576566390382,1,['num_7'],0,[3.950614133585077],1,2018_Apr_03_1138,59.9843240902,sequenceLearningTask,001,052,
min1.png,min2.png,min3.png,min4.png,images/allBlank.png,images/min2.png,'num_4',"['num_7', 'num_4', 'num_1', 'num_0']",['num_4'],num_4,,,,,0,9,9,9,9,1,37,1,,,,,['num_4'],,0.0508734567693,0,"['num_7', 'num_7', 'num_4']",0,"[0.5580264853442714, 1.858888557492719, 3.291206683571545]",0,2018_Apr_03_1138,59.9843240902,sequenceLearningTask,001,052,
min1.png,min2.png,min3.png,min4.png,images/allBlank.png,images/min3.png,'num_1',"['num_7', 'num_4', 'num_1', 'num_0']",['num_1'],num_1,,,,,0,9,9,9,9,2,38,2,,,,,['num_1'],,0.0525296625756,1,['num_1'],0,[3.6235735891586955],1,2018_Apr_03_1138,59.9843240902,sequenceLearningTask,001,052,
min1.png,min2.png,min3.png,min4.png,images/allBlank.png,images/min4.png,'num_0',"['num_7', 'num_4', 'num_1', 'num_0']",['num_0'],num_0,,,,,0,9,9,9,9,3,39,3,,,,,['num_0'],,0.0545907916276,1,['num_0'],0,[1.9039946272796442],1,2018_Apr_03_1138,59.9843240902,sequenceLearningTask,001,052,
min1.png,min2.png,min3.png,min4.png,images/allBlank.png,images/min1.png,'num_7',"['num_7', 'num_4', 'num_1', 'num_0']",['num_7'],num_7,,,,,0,9,9,9,10,0,40,0,,,,,['num_7'],,0.0516537647809,1,['num_7'],0,[1.1906023346064103],1,2018_Apr_03_1138,59.9843240902,sequenceLearningTask,001,052,
min1.png,min2.png,min3.png,min4.png,images/allBlank.png,images/min4.png,'num_0',"['num_7', 'num_4', 'num_1', 'num_0']",['num_0'],num_0,,,,,0,9,9,9,10,1,41,3,,,,,['num_0'],,0.0570642285393,1,['num_0'],0,[1.4328584339928057],1,2018_Apr_03_1138,59.9843240902,sequenceLearningTask,001,052,
min1.png,min2.png,min3.png,min4.png,images/allBlank.png,images/min3.png,'num_1',"['num_7', 'num_4', 'num_1', 'num_0']",['num_1'],num_1,,,,,0,9,9,9,10,2,42,2,,,,,['num_1'],,0.0521633034514,0,"['num_4', 'num_4', 'num_1']",0,"[1.1082679418541375, 1.6402964678145509, 2.074028748319506]",0,2018_Apr_03_1138,59.9843240902,sequenceLearningTask,001,052,
min1.png,min2.png,min3.png,min4.png,images/allBlank.png,images/min2.png,'num_4',"['num_7', 'num_4', 'num_1', 'num_0']",['num_4'],num_4,,,,,0,9,9,9,10,3,43,1,,,,,['num_4'],,0.0525181753919,1,['num_4'],0,[2.573147312060428],1,2018_Apr_03_1138,59.9843240902,sequenceLearningTask,001,052,
min1.png,min2.png,min3.png,min4.png,images/allBlank.png,images/min1.png,'num_7',"['num_7', 'num_4', 'num_1', 'num_0']",['num_7'],num_7,,,,,0,9,9,9,11,0,44,0,,,,,['num_7'],,0.0525226882146,1,['num_7'],0,[0.87307728126234],1,2018_Apr_03_1138,59.9843240902,sequenceLearningTask,001,052,
min1.png,min2.png,min3.png,min4.png,images/allBlank.png,images/min2.png,'num_4',"['num_7', 'num_4', 'num_1', 'num_0']",['num_4'],num_4,,,,,0,9,9,9,11,1,45,1,,,,,['num_4'],,0.0533329449572,1,['num_4'],0,[0.5216769319704326],1,2018_Apr_03_1138,59.9843240902,sequenceLearningTask,001,052,
min1.png,min2.png,min3.png,min4.png,images/allBlank.png,images/min4.png,'num_0',"['num_7', 'num_4', 'num_1', 'num_0']",['num_0'],num_0,,,,,0,9,9,9,11,2,46,3,,,,,['num_0'],,0.0530683294637,1,['num_0'],0,[0.7047773147805856],1,2018_Apr_03_1138,59.9843240902,sequenceLearningTask,001,052,
min1.png,min2.png,min3.png,min4.png,images/allBlank.png,images/min3.png,'num_1',"['num_7', 'num_4', 'num_1', 'num_0']",['num_1'],num_1,,,,,0,9,9,9,11,3,47,2,,,,,['num_1'],,0.0571979721844,1,['num_1'],0,[0.9685054229757952],1,2018_Apr_03_1138,59.9843240902,sequenceLearningTask,001,052,
min1.png,min2.png,min3.png,min4.png,images/allBlank.png,images/min4.png,'num_0',"['num_7', 'num_4', 'num_1', 'num_0']",['num_0'],num_0,,,,,0,9,9,9,12,0,48,3,,,,,['num_0'],,0.0518798161556,1,['num_0'],0,[1.023513445543358],1,2018_Apr_03_1138,59.9843240902,sequenceLearningTask,001,052,
min1.png,min2.png,min3.png,min4.png,images/allBlank.png,images/min2.png,'num_4',"['num_7', 'num_4', 'num_1', 'num_0']",['num_4'],num_4,,,,,0,9,9,9,12,1,49,1,,,,,['num_4'],,0.0490268919084,1,['num_4'],0,[2.6576376031334803],1,2018_Apr_03_1138,59.9843240902,sequenceLearningTask,001,052,
min1.png,min2.png,min3.png,min4.png,images/allBlank.png,images/min3.png,'num_1',"['num_7', 'num_4', 'num_1', 'num_0']",['num_1'],num_1,,,,,0,9,9,9,12,2,50,2,,,,,['num_1'],,0.0472151988579,1,['num_1'],0,[1.3798766686677482],1,2018_Apr_03_1138,59.9843240902,sequenceLearningTask,001,052,
min1.png,min2.png,min3.png,min4.png,images/allBlank.png,images/min1.png,'num_7',"['num_7', 'num_4', 'num_1', 'num_0']",['num_7'],num_7,,,,,0,9,9,9,12,3,51,0,,,,,['num_7'],,0.0641912058227,1,['num_7'],0,[0.9095064244129389],1,2018_Apr_03_1138,59.9843240902,sequenceLearningTask,001,052,
min1.png,min2.png,min3.png,min4.png,images/allBlank.png,images/min2.png,'num_4',"['num_7', 'num_4', 'num_1', 'num_0']",['num_4'],num_4,,,,,0,9,9,9,13,0,52,1,,,,,['num_4'],,0.0504459694139,1,['num_4'],0,[1.6075079415422806],1,2018_Apr_03_1138,59.9843240902,sequenceLearningTask,001,052,
min1.png,min2.png,min3.png,min4.png,images/allBlank.png,images/min4.png,'num_0',"['num_7', 'num_4', 'num_1', 'num_0']",['num_0'],num_0,,,,,0,9,9,9,13,1,53,3,,,,,['num_0'],,0.057208228598,1,['num_0'],0,[1.0350986810663017],1,2018_Apr_03_1138,59.9843240902,sequenceLearningTask,001,052,
min1.png,min2.png,min3.png,min4.png,images/allBlank.png,images/min3.png,'num_1',"['num_7', 'num_4', 'num_1', 'num_0']",['num_1'],num_1,,,,,0,9,9,9,13,2,54,2,,,,,['num_1'],,0.0521148931757,1,['num_1'],0,[0.9581460341105412],1,2018_Apr_03_1138,59.9843240902,sequenceLearningTask,001,052,
min1.png,min2.png,min3.png,min4.png,images/allBlank.png,images/min1.png,'num_7',"['num_7', 'num_4', 'num_1', 'num_0']",['num_7'],num_7,,,,,0,9,9,9,13,3,55,0,,,,,['num_7'],,0.0486281225139,1,['num_7'],0,[1.2441457411878218],1,2018_Apr_03_1138,59.9843240902,sequenceLearningTask,001,052,
min1.png,min2.png,min3.png,min4.png,images/allBlank.png,images/min4.png,'num_0',"['num_7', 'num_4', 'num_1', 'num_0']",['num_0'],num_0,,,,,0,9,9,9,14,0,56,3,,,,,['num_0'],,0.0582720239063,1,['num_0'],0,[1.0669805402994825],1,2018_Apr_03_1138,59.9843240902,sequenceLearningTask,001,052,
min1.png,min2.png,min3.png,min4.png,images/allBlank.png,images/min1.png,'num_7',"['num_7', 'num_4', 'num_1', 'num_0']",['num_7'],num_7,,,,,0,9,9,9,14,1,57,0,,,,,['num_7'],,0.0524217650955,1,['num_7'],0,[0.9742215278856747],1,2018_Apr_03_1138,59.9843240902,sequenceLearningTask,001,052,
min1.png,min2.png,min3.png,min4.png,images/allBlank.png,images/min3.png,'num_1',"['num_7', 'num_4', 'num_1', 'num_0']",['num_1'],num_1,,,,,0,9,9,9,14,2,58,2,,,,,['num_1'],,0.0508865849788,1,['num_1'],0,[2.3085699727471365],1,2018_Apr_03_1138,59.9843240902,sequenceLearningTask,001,052,
min1.png,min2.png,min3.png,min4.png,images/allBlank.png,images/min2.png,'num_4',"['num_7', 'num_4', 'num_1', 'num_0']",['num_4'],num_4,,,,,0,9,9,9,14,3,59,1,,,,,['num_4'],,0.056888228467,1,['num_4'],0,[0.8517894776578032],1,2018_Apr_03_1138,59.9843240902,sequenceLearningTask,001,052,
min1.png,min2.png,min3.png,min4.png,images/allBlank.png,images/min2.png,'num_4',"['num_7', 'num_4', 'num_1', 'num_0']",['num_4'],num_4,,,,,0,9,9,9,15,0,60,1,,,,,['num_4'],,0.0535077142595,1,['num_4'],0,[0.9059043716533779],1,2018_Apr_03_1138,59.9843240902,sequenceLearningTask,001,052,
min1.png,min2.png,min3.png,min4.png,images/allBlank.png,images/min1.png,'num_7',"['num_7', 'num_4', 'num_1', 'num_0']",['num_7'],num_7,,,,,0,9,9,9,15,1,61,0,,,,,['num_7'],,0.0564447411052,1,['num_7'],0,[0.7523301548026211],1,2018_Apr_03_1138,59.9843240902,sequenceLearningTask,001,052,
min1.png,min2.png,min3.png,min4.png,images/allBlank.png,images/min3.png,'num_1',"['num_7', 'num_4', 'num_1', 'num_0']",['num_1'],num_1,,,,,0,9,9,9,15,2,62,2,,,,,['num_1'],,0.0583290495715,1,['num_1'],0,[6.168111658712405],1,2018_Apr_03_1138,59.9843240902,sequenceLearningTask,001,052,
min1.png,min2.png,min3.png,min4.png,images/allBlank.png,images/min4.png,'num_0',"['num_7', 'num_4', 'num_1', 'num_0']",['num_0'],num_0,,,,,0,9,9,9,15,3,63,3,,,,,['num_0'],,0.0523364317278,1,['num_0'],0,[0.9729854248143965],1,2018_Apr_03_1138,59.9843240902,sequenceLearningTask,001,052,
min1.png,min2.png,min3.png,min4.png,images/allBlank.png,images/min2.png,'num_4',"['num_7', 'num_4', 'num_1', 'num_0']",['num_4'],num_4,,,,,0,9,9,9,16,0,64,1,,,,,['num_4'],,0.0507807387812,1,['num_4'],0,[0.8752668206216185],1,2018_Apr_03_1138,59.9843240902,sequenceLearningTask,001,052,
min1.png,min2.png,min3.png,min4.png,images/allBlank.png,images/min1.png,'num_7',"['num_7', 'num_4', 'num_1', 'num_0']",['num_7'],num_7,,,,,0,9,9,9,16,1,65,0,,,,,['num_7'],,0.0541563299103,1,['num_7'],0,[0.7213955780089236],1,2018_Apr_03_1138,59.9843240902,sequenceLearningTask,001,052,
min1.png,min2.png,min3.png,min4.png,images/allBlank.png,images/min3.png,'num_1',"['num_7', 'num_4', 'num_1', 'num_0']",['num_1'],num_1,,,,,0,9,9,9,16,2,66,2,,,,,['num_1'],,0.0477596093369,0,"['num_1', 'num_0', 'num_1']",0,"[0.9462018240828911, 1.4797199916802128]",0,2018_Apr_03_1138,59.9843240902,sequenceLearningTask,001,052,
min1.png,min2.png,min3.png,min4.png,images/allBlank.png,images/min4.png,'num_0',"['num_7', 'num_4', 'num_1', 'num_0']",['num_0'],num_0,,,,,0,9,9,9,16,3,67,3,,,,,['num_0'],,0.0488463790143,1,['num_0'],0,[0.3607086608044483],1,2018_Apr_03_1138,59.9843240902,sequenceLearningTask,001,052,
min1.png,min2.png,min3.png,min4.png,images/allBlank.png,images/min4.png,'num_0',"['num_7', 'num_4', 'num_1', 'num_0']",['num_0'],num_0,,,,,0,9,9,9,17,0,68,3,,,,,['num_0'],,0.0565058693364,1,['num_0'],0,[0.8028594063016499],1,2018_Apr_03_1138,59.9843240902,sequenceLearningTask,001,052,
min1.png,min2.png,min3.png,min4.png,images/allBlank.png,images/min2.png,'num_4',"['num_7', 'num_4', 'num_1', 'num_0']",['num_4'],num_4,,,,,0,9,9,9,17,1,69,1,,,,,['num_4'],,0.0492861740659,1,['num_4'],0,[1.7936811461258912],1,2018_Apr_03_1138,59.9843240902,sequenceLearningTask,001,052,
min1.png,min2.png,min3.png,min4.png,images/allBlank.png,images/min1.png,'num_7',"['num_7', 'num_4', 'num_1', 'num_0']",['num_7'],num_7,,,,,0,9,9,9,17,2,70,0,,,,,['num_7'],,0.0535864835228,1,['num_7'],0,[0.7557365151742488],1,2018_Apr_03_1138,59.9843240902,sequenceLearningTask,001,052,
min1.png,min2.png,min3.png,min4.png,images/allBlank.png,images/min3.png,'num_1',"['num_7', 'num_4', 'num_1', 'num_0']",['num_1'],num_1,,,,,0,9,9,9,17,3,71,2,,,,,['num_1'],,0.0557144843951,1,['num_1'],0,[0.8712085625475083],1,2018_Apr_03_1138,59.9843240902,sequenceLearningTask,001,052,
min1.png,min2.png,min3.png,min4.png,images/allBlank.png,images/min3.png,'num_1',"['num_7', 'num_4', 'num_1', 'num_0']",['num_1'],num_1,,,,,0,9,9,9,18,0,72,2,,,,,['num_1'],,0.0551598175016,1,['num_1'],0,[0.7371740460193905],1,2018_Apr_03_1138,59.9843240902,sequenceLearningTask,001,052,
min1.png,min2.png,min3.png,min4.png,images/allBlank.png,images/min1.png,'num_7',"['num_7', 'num_4', 'num_1', 'num_0']",['num_7'],num_7,,,,,0,9,9,9,18,1,73,0,,,,,['num_7'],,0.0596952039778,1,['num_7'],0,[0.8312791102680421],1,2018_Apr_03_1138,59.9843240902,sequenceLearningTask,001,052,
min1.png,min2.png,min3.png,min4.png,images/allBlank.png,images/min4.png,'num_0',"['num_7', 'num_4', 'num_1', 'num_0']",['num_0'],num_0,,,,,0,9,9,9,18,2,74,3,,,,,['num_0'],,0.0580976648607,1,['num_0'],0,[1.1000591179727053],1,2018_Apr_03_1138,59.9843240902,sequenceLearningTask,001,052,
min1.png,min2.png,min3.png,min4.png,images/allBlank.png,images/min2.png,'num_4',"['num_7', 'num_4', 'num_1', 'num_0']",['num_4'],num_4,,,,,0,9,9,9,18,3,75,1,,,,,['num_4'],,0.052998175589,1,['num_4'],0,[1.0232726249323605],1,2018_Apr_03_1138,59.9843240902,sequenceLearningTask,001,052,
min1.png,min2.png,min3.png,min4.png,images/allBlank.png,images/min4.png,'num_0',"['num_7', 'num_4', 'num_1', 'num_0']",['num_0'],num_0,,,,,0,9,9,9,19,0,76,3,,,,,['num_0'],,0.0541025862985,1,['num_0'],0,[1.339919318941611],1,2018_Apr_03_1138,59.9843240902,sequenceLearningTask,001,052,
min1.png,min2.png,min3.png,min4.png,images/allBlank.png,images/min2.png,'num_4',"['num_7', 'num_4', 'num_1', 'num_0']",['num_4'],num_4,,,,,0,9,9,9,19,1,77,1,,,,,['num_4'],,0.0510297645251,1,['num_4'],0,[4.091299319507925],1,2018_Apr_03_1138,59.9843240902,sequenceLearningTask,001,052,
min1.png,min2.png,min3.png,min4.png,images/allBlank.png,images/min1.png,'num_7',"['num_7', 'num_4', 'num_1', 'num_0']",['num_7'],num_7,,,,,0,9,9,9,19,2,78,0,,,,,['num_7'],,0.0499405333085,1,['num_7'],0,[3.093278397242102],1,2018_Apr_03_1138,59.9843240902,sequenceLearningTask,001,052,
min1.png,min2.png,min3.png,min4.png,images/allBlank.png,images/min3.png,'num_1',"['num_7', 'num_4', 'num_1', 'num_0']",['num_1'],num_1,,,,,0,9,9,9,19,3,79,2,,,,,['num_1'],,0.0559667921916,1,['num_1'],0,[1.287773656522404],1,2018_Apr_03_1138,59.9843240902,sequenceLearningTask,001,052,
min1.png,min2.png,min3.png,min4.png,allBlank.png,,,,['num_7'],,,,,,0,0,0,0,,,,,,,,,['num_7'],1,0.0402359139434,1,['num_7'],0,[1.0342268858366879],,2018_Apr_03_1138,59.9843240902,sequenceLearningTask,001,052,
min1.png,min2.png,min3.png,min4.png,allBlank.png,,,,['num_1'],,,,,,0,0,0,0,,,,,,,,,['num_1'],1,0.0559048434479,1,['num_1'],0,[0.9879056360641698],,2018_Apr_03_1138,59.9843240902,sequenceLearningTask,001,052,
min1.png,min2.png,min3.png,min4.png,allBlank.png,,,,['num_4'],,,,,,0,0,0,0,,,,,,,,,['num_4'],1,0.0584143829392,1,['num_4'],0,[1.0687249512720882],,2018_Apr_03_1138,59.9843240902,sequenceLearningTask,001,052,
min1.png,min2.png,min3.png,min4.png,allBlank.png,,,,['num_0'],,,,,,0,0,0,0,,,,,,,,,['num_0'],1,0.0534478167992,1,['num_0'],0,[0.9237337123013276],,2018_Apr_03_1138,59.9843240902,sequenceLearningTask,001,052,
min1.png,min2.png,min3.png,min4.png,allBlank.png,,,,['num_0'],,,,,,0,0,0,0,,,,,,,,,['num_0'],1,0.0527134575241,1,['num_0'],0,[0.6748946358538888],,2018_Apr_03_1138,59.9843240902,sequenceLearningTask,001,052,
min1.png,min2.png,min3.png,min4.png,allBlank.png,,,,['num_4'],,,,,,0,0,0,0,,,,,,,,,['num_4'],1,0.0516197134848,0,"['num_7', 'num_4']",0,"[0.7595404141702602, 1.1929309509459927]",,2018_Apr_03_1138,59.9843240902,sequenceLearningTask,001,052,
min1.png,min2.png,min3.png,min4.png,allBlank.png,,,,['num_1'],,,,,,0,0,0,0,,,,,,,,,['num_1'],1,0.0548750994358,0,"['num_4', 'num_0', 'num_1']",0,"[0.00033887193421833217, 0.4726447067259869, 0.6063924539048458]",,2018_Apr_03_1138,59.9843240902,sequenceLearningTask,001,052,
min1.png,min2.png,min3.png,min4.png,allBlank.png,,,,['num_0'],,,,,,0,0,0,0,,,,,,,,,['num_0'],1,0.0545148941601,0,"['num_0', 'num_0', 'num_4', 'num_4', 'num_1', 'num_7', 'num_4', 'num_7', 'num_4', 'num_7', 'num_7', 'num_0', 'num_4', 'num_4', 'num_4', 'num_1', 'num_7', 'num_1', 'num_1', 'num_0']",0,"[0.0006112823020885116, 0.10645378726349009, 0.4072653978528251, 0.9235810968539226, 2.2404854319947844, 2.573703209724954, 2.8563876333901135, 3.0570880234208744, 3.5558287408530305, 3.7064704436807006, 4.340432960178077, 4.739800508636108, 4.7729295478684435, 5.072592440038534, 5.389202210954863]",,2018_Apr_03_1138,59.9843240902,sequenceLearningTask,001,052,
min1.png,min2.png,min3.png,min4.png,allBlank.png,,,,['num_7'],,,,,,0,1,1,1,,,,,,,,,['num_7'],2,0.0508828926704,0,"['num_1', 'num_0', 'num_4', 'num_1', 'num_0', 'num_1', 'num_1', 'num_0', 'num_1', 'num_0', 'num_0', 'num_4', 'num_0', 'num_1', 'num_0', 'num_0', 'num_0', 'num_4', 'num_0', 'num_7']",0,"[0.00034215398682135856, 0.10810630076139205, 0.20847967527333822, 0.3245687485405142, 0.49120143228810775, 0.5583649470218006, 0.6745319690389806, 0.8247556204123612, 1.0742502868715746, 1.1427586226700441, 1.241869637689888, 1.2918922223143454, 1.4410693091567737, 1.6411063142995772, 1.8416618837582064, 1.9912594835932396, 2.0080717981827547, 2.091799012019692]",,2018_Apr_03_1138,59.9843240902,sequenceLearningTask,001,052,
min1.png,min2.png,min3.png,min4.png,allBlank.png,,,,['num_1'],,,,,,0,1,1,1,,,,,,,,,['num_1'],2,0.0503093539728,0,"['num_4', 'num_0', 'num_4', 'num_0', 'num_4', 'num_7', 'num_0', 'num_0', 'num_7', 'num_4', 'num_7', 'num_0', 'num_4', 'num_0', 'num_0', 'num_7', 'num_0', 'num_4', 'num_0', 'num_0', 'num_4', 'num_0', 'num_4', 'num_0', 'num_0', 'num_0', 'num_0', 'num_0', 'num_0', 'num_0', 'num_4', 'num_0', 'num_4', 'num_0', 'num_1']",0,"[0.0011507697026900132, 0.1594125782212359, 0.20818305976808915, 0.27530062576443015, 0.35834148034518876, 0.5762070056234734, 0.5928232175692756, 0.7601557990383299, 0.9098637578927082, 1.0091319011826272, 1.1104837376342402, 1.1929883868670004, 1.3930463150963988, 1.5762923389920616, 1.6761684825305565, 1.8601948144396374, 1.910236681123024, 2.126731539172397, 2.3593605576870686, 2.5759255696111723, 2.809014075492996, 2.993324715210292, 3.1931742330971247, 3.2424538430586836, 3.376276256934034, 3.4770873752158877, 3.609979327171459, 3.6441114437384385]",,2018_Apr_03_1138,59.9843240902,sequenceLearningTask,001,052,
min1.png,min2.png,min3.png,min4.png,allBlank.png,,,,['num_4'],,,,,,0,1,1,1,,,,,,,,,['num_4'],2,0.0512537646173,0,"['num_0', 'num_4', 'num_1', 'num_0', 'num_4', 'num_0', 'num_0', 'num_0', 'num_0', 'num_0', 'num_4']",0,"[0.0008964106236817315, 0.1761366876453394, 0.37601984657248977, 0.591996550562726, 0.8426682431463632, 0.9255897130624362]",,2018_Apr_03_1138,59.9843240902,sequenceLearningTask,001,052,
min1.png,min2.png,min3.png,min4.png,allBlank.png,,,,['num_0'],,,,,,0,1,1,1,,,,,,,,,['num_0'],2,0.0526617651949,0,"['num_0', 'num_0', 'num_7', 'num_0', 'num_7', 'num_4', 'num_0']",0,"[0.0003323078290122794, 0.10787122374131286, 0.15707452597871452]",,2018_Apr_03_1138,59.9843240902,sequenceLearningTask,001,052,
min1.png,min2.png,min3.png,min4.png,allBlank.png,,,,['num_0'],,,,,,0,1,1,1,,,,,,,,,['num_0'],2,0.0592898704772,0,"['num_4', 'num_0', 'num_4', 'num_0', 'num_4', 'num_0']",0,"[0.0005542566377698677, 0.051256636413199885, 0.08533459911177488]",,2018_Apr_03_1138,59.9843240902,sequenceLearningTask,001,052,
min1.png,min2.png,min3.png,min4.png,allBlank.png,,,,['num_4'],,,,,,0,1,1,1,,,,,,,,,['num_4'],2,0.0510445337613,0,"['num_0', 'num_1', 'num_0', 'num_1', 'num_0', 'num_1', 'num_0', 'num_0', 'num_0', 'num_0', 'num_7', 'num_0', 'num_4', 'num_0', 'num_0', 'num_4']",0,"[0.0005915899864703533, 0.07601808246909059, 0.259327285877589, 0.292834581675379, 0.525808215716097, 0.7426985611073178, 0.9922170224481306, 1.1094851731222661, 1.1937211051163104, 1.4265720724397397, 1.6759994568201364, 1.6924589507525525]",,2018_Apr_03_1138,59.9843240902,sequenceLearningTask,001,052,
min1.png,min2.png,min3.png,min4.png,allBlank.png,,,,['num_1'],,,,,,0,1,1,1,,,,,,,,,['num_1'],2,0.061471614963,0,"['num_4', 'num_0', 'num_1', 'num_0', 'num_0', 'num_1']",0,"[0.0005583592028415296, 0.06534566783466289, 0.2490638970521104]",,2018_Apr_03_1138,59.9843240902,sequenceLearningTask,001,052,
min1.png,min2.png,min3.png,min4.png,allBlank.png,,,,['num_0'],,,,,,0,1,1,1,,,,,,,,,['num_0'],2,0.0566617668355,0,"['num_0', 'num_0', 'num_4', 'num_0', 'num_0']",0,"[0.0005148720056240563, 0.12149174215028324]",,2018_Apr_03_1138,59.9843240902,sequenceLearningTask,001,052,
min1.png,min2.png,min3.png,min4.png,allBlank.png,,,,['num_7'],,,,,,0,2,2,2,,,,,,,,,['num_7'],3,0.0501821744338,0,"['num_4', 'num_0', 'num_4', 'num_0', 'num_1', 'num_0', 'num_4', 'num_0', 'num_0', 'num_0', 'num_4', 'num_7']",0,"[0.0003872822107950924, 0.060921871147002093, 0.15920950121380884, 0.3089941780490335, 0.3258536721450582, 0.559470998757206, 0.8254694668594311, 0.8921673403765453, 0.9434522844931053]",,2018_Apr_03_1138,59.9843240902,sequenceLearningTask,001,052,
min1.png,min2.png,min3.png,min4.png,allBlank.png,,,,['num_1'],,,,,,0,2,2,2,,,,,,,,,['num_1'],3,0.0492422766119,0,"['num_4', 'num_0', 'num_7', 'num_4', 'num_0', 'num_0', 'num_4', 'num_0', 'num_1']",0,"[0.00038194887474674033, 0.1449805722995734, 0.1787143297287912, 0.36194681515735283, 0.5615144867751951]",,2018_Apr_03_1138,59.9843240902,sequenceLearningTask,001,052,
min1.png,min2.png,min3.png,min4.png,allBlank.png,,,,['num_4'],,,,,,0,2,2,2,,,,,,,,,['num_4'],3,0.0490149944681,0,"['num_0', 'num_0', 'num_0', 'num_4']",0,"[0.0005165130323803169, 0.1951545416013687]",,2018_Apr_03_1138,59.9843240902,sequenceLearningTask,001,052,
min1.png,min2.png,min3.png,min4.png,allBlank.png,,,,['num_0'],,,,,,0,2,2,2,,,,,,,,,['num_0'],3,0.0634055644741,0,"['num_0', 'num_0', 'num_4', 'num_0', 'num_4', 'num_7', 'num_4', 'num_7', 'num_4', 'num_0']",0,"[0.0005472822758747498, 0.028060319204087136, 0.14443780284545937, 0.2115598816653801, 0.34599070604690496, 0.39643708571747993, 0.4956092289676235]",,2018_Apr_03_1138,59.9843240902,sequenceLearningTask,001,052,
min1.png,min2.png,min3.png,min4.png,allBlank.png,,,,['num_0'],,,,,,0,2,2,2,,,,,,,,,['num_0'],3,0.0492238150664,0,"['num_4', 'num_7', 'num_0', 'num_4', 'num_7', 'num_4', 'num_0', 'num_7', 'num_0']",0,"[0.0005944617823843146, 0.09527962883294094, 0.11155573807354813]",,2018_Apr_03_1138,59.9843240902,sequenceLearningTask,001,052,
min1.png,min2.png,min3.png,min4.png,allBlank.png,,,,['num_4'],,,,,,0,2,2,2,,,,,,,,,['num_4'],3,0.0488061738688,0,"['num_4', 'num_0', 'num_1', 'num_0', 'num_1', 'num_0', 'num_4']",0,"[0.0007388720978269703, 0.026813959718310798, 0.14443082848447375]",,2018_Apr_03_1138,59.9843240902,sequenceLearningTask,001,052,
min1.png,min2.png,min3.png,min4.png,allBlank.png,,,,['num_1'],,,,,,0,2,2,2,,,,,,,,,['num_1'],3,0.0462334548647,0,"['num_0', 'num_4', 'num_0', 'num_0', 'num_4', 'num_0', 'num_0', 'num_0', 'num_0', 'num_4', 'num_1', 'num_0', 'num_1']",0,"[0.0005214361117396038, 0.1648698112285274, 0.19820726080251916, 0.38158620782996877, 0.5820187003155297, 0.7636466722651676, 0.7968007371491694, 0.9657345500445444, 0.9826059415818236]",,2018_Apr_03_1138,59.9843240902,sequenceLearningTask,001,052,
min1.png,min2.png,min3.png,min4.png,allBlank.png,,,,['num_0'],,,,,,0,2,2,2,,,,,,,,,['num_0'],3,0.054398791548,0,"['num_0', 'num_7', 'num_0', 'num_0', 'num_4', 'num_0']",0,"[0.00031917961860017385, 0.0382080156750817, 0.12430610227966099, 0.25722020809098467]",,2018_Apr_03_1138,59.9843240902,sequenceLearningTask,001,052,
min1.png,min2.png,min3.png,min4.png,allBlank.png,,,,['num_7'],,,,,,0,3,3,3,,,,,,,,,['num_7'],4,0.0503557129659,0,"['num_7', 'num_4', 'num_0', 'num_4', 'num_0', 'num_7', 'num_4', 'num_4', 'num_0', 'num_0', 'num_0', 'num_0', 'num_1', 'num_0', 'num_0', 'num_4', 'num_4', 'num_0', 'num_4', 'num_0', 'num_0', 'num_0', 'num_7', 'num_4', 'num_4', 'num_0', 'num_7']",0,"[0.0006465643673436716, 0.04239017123654776, 0.22592870807329746, 0.4749236820198348, 0.658374834204551, 0.8258399285496125, 0.9081419110325442, 1.041583606803215, 1.2422811250380619, 1.476331682597447, 1.6917085914701602, 1.8751158462009698, 2.108832865162185, 2.1937736179579588, 2.326182697920558, 2.3424908071756363, 2.5749249538148433]",,2018_Apr_03_1138,59.9843240902,sequenceLearningTask,001,052,
min1.png,min2.png,min3.png,min4.png,allBlank.png,,,,['num_1'],,,,,,0,3,3,3,,,,,,,,,['num_1'],4,0.0585358188864,0,"['num_0', 'num_0', 'num_4', 'num_0', 'num_4', 'num_0', 'num_0', 'num_0', 'num_0', 'num_0', 'num_4', 'num_0', 'num_0', 'num_7', 'num_0', 'num_4', 'num_0', 'num_4', 'num_0', 'num_1']",0,"[0.0003401027042855276, 0.06856043838433834, 0.18539166580194433, 0.4016883699241589, 0.63543574787127, 0.8527818883212603, 1.0850556246386986, 1.2190761924421167, 1.418856376966687, 1.6851416144172617, 1.8352979837118255, 1.901922831558295, 2.0527799190895166, 2.1188476385023023, 2.2690671873097017, 2.3520608623839507, 2.435808178793195]",,2018_Apr_03_1138,59.9843240902,sequenceLearningTask,001,052,
min1.png,min2.png,min3.png,min4.png,allBlank.png,,,,['num_4'],,,,,,0,3,3,3,,,,,,,,,['num_4'],4,0.0493099689484,0,"['num_0', 'num_7', 'num_0', 'num_7', 'num_0', 'num_0', 'num_0', 'num_4']",0,"[0.0012430774331733119, 0.1267446673818995, 0.3927152380365442, 0.6262607697481144, 0.7435260486254265]",,2018_Apr_03_1138,59.9843240902,sequenceLearningTask,001,052,
min1.png,min2.png,min3.png,min4.png,allBlank.png,,,,['num_0'],,,,,,0,3,3,3,,,,,,,,,['num_0'],4,0.0565005359995,0,"['num_0', 'num_4', 'num_1', 'num_0', 'num_4', 'num_1', 'num_0', 'num_0']",0,"[0.0005296412427924224, 0.08652024062394048]",,2018_Apr_03_1138,59.9843240902,sequenceLearningTask,001,052,
min1.png,min2.png,min3.png,min4.png,allBlank.png,,,,['num_0'],,,,,,0,3,3,3,,,,,,,,,['num_0'],4,0.0478342760343,0,"['num_4', 'num_4', 'num_0', 'num_4', 'num_0', 'num_4', 'num_4', 'num_0']",0,"[0.0004631796764442697, 0.37997882255513105, 0.7799781661442466, 0.9130801694682305]",,2018_Apr_03_1138,59.9843240902,sequenceLearningTask,001,052,
min1.png,min2.png,min3.png,min4.png,allBlank.png,,,,['num_4'],,,,,,0,3,3,3,,,,,,,,,['num_4'],4,0.0600127425696,0,"['num_1', 'num_4', 'num_1', 'num_4']",0,"[0.0009099490907829022, 0.11663348374713678]",,2018_Apr_03_1138,59.9843240902,sequenceLearningTask,001,052,
min1.png,min2.png,min3.png,min4.png,allBlank.png,,,,['num_1'],,,,,,0,3,3,3,,,,,,,,,['num_1'],4,0.0498531486573,0,"['num_1', 'num_4', 'num_1', 'num_7', 'num_7', 'num_0', 'num_7', 'num_4', 'num_1', 'num_0', 'num_7', 'num_4', 'num_1', 'num_0', 'num_4', 'num_1', 'num_0', 'num_1']",0,"[0.00031671807846578304, 1.945468695576892, 1.961923676686638, 2.311147614829679, 2.3610865071123044, 2.761962158753704, 2.8115839227011747, 3.2455020494362543, 3.6614886816360013, 3.7122062409052887, 4.128212155163965]",,2018_Apr_03_1138,59.9843240902,sequenceLearningTask,001,052,
min1.png,min2.png,min3.png,min4.png,allBlank.png,,,,['num_0'],,,,,,0,3,3,3,,,,,,,,,['num_0'],4,0.0484697634747,0,"['num_4', 'num_0', 'num_7', 'num_4', 'num_1', 'num_0', 'num_7', 'num_4', 'num_1', 'num_0', 'num_1', 'num_0', 'num_7', 'num_1', 'num_4', 'num_7', 'num_1', 'num_0', 'num_7', 'num_1', 'num_0', 'num_7', 'num_4', 'num_1', 'num_0', 'num_0']",0,"[0.0003232821836718358, 0.4826935313612921, 1.0453271980832142, 1.5128613386104917, 1.5789676221411355, 1.9629427540285178, 2.029085960651173, 2.0459351983326997, 2.4289236631484528, 2.479390145391335, 2.8966850858196267, 2.9294288941246123, 4.2299081968858445, 4.746145536880249]",,2018_Apr_03_1138,59.9843240902,sequenceLearningTask,001,052,
min1.png,min2.png,min3.png,min4.png,allBlank.png,,,,['num_7'],,,,,,0,4,4,4,,,,,,,,,['num_7'],5,0.0626108974811,1,['num_7'],0,[3.2283209141824045],,2018_Apr_03_1138,59.9843240902,sequenceLearningTask,001,052,
min1.png,min2.png,min3.png,min4.png,allBlank.png,,,,['num_1'],,,,,,0,4,4,4,,,,,,,,,['num_1'],5,0.0557579715933,1,['num_1'],0,[0.7547880019646982],,2018_Apr_03_1138,59.9843240902,sequenceLearningTask,001,052,
min1.png,min2.png,min3.png,min4.png,allBlank.png,,,,['num_4'],,,,,,0,4,4,4,,,,,,,,,['num_4'],5,0.0490252508826,1,['num_4'],0,[0.729415273606719],,2018_Apr_03_1138,59.9843240902,sequenceLearningTask,001,052,
min1.png,min2.png,min3.png,min4.png,allBlank.png,,,,['num_0'],,,,,,0,4,4,4,,,,,,,,,['num_0'],5,0.0506552002689,1,['num_0'],0,[0.6602546298481684],,2018_Apr_03_1138,59.9843240902,sequenceLearningTask,001,052,
min1.png,min2.png,min3.png,min4.png,allBlank.png,,,,['num_0'],,,,,,0,4,4,4,,,,,,,,,['num_0'],5,0.0583056649457,1,['num_0'],0,[0.685567460745915],,2018_Apr_03_1138,59.9843240902,sequenceLearningTask,001,052,
min1.png,min2.png,min3.png,min4.png,allBlank.png,,,,['num_4'],,,,,,0,4,4,4,,,,,,,,,['num_4'],5,0.0566794078686,1,['num_4'],0,[1.454299673559035],,2018_Apr_03_1138,59.9843240902,sequenceLearningTask,001,052,
min1.png,min2.png,min3.png,min4.png,allBlank.png,,,,['num_1'],,,,,,0,4,4,4,,,,,,,,,['num_1'],5,0.0536750989431,1,['num_1'],0,[0.9418764889751401],,2018_Apr_03_1138,59.9843240902,sequenceLearningTask,001,052,
min1.png,min2.png,min3.png,min4.png,allBlank.png,,,,['num_0'],,,,,,0,4,4,4,,,,,,,,,['num_0'],5,0.0568947925722,1,['num_0'],0,[0.4716116806612263],,2018_Apr_03_1138,59.9843240902,sequenceLearningTask,001,052,
min1.png,min2.png,min3.png,min4.png,allBlank.png,,,,['num_7'],,,,,,0,5,5,5,,,,,,,,,['num_7'],6,0.0502067898278,1,['num_7'],0,[0.7906239141020706],,2018_Apr_03_1138,59.9843240902,sequenceLearningTask,001,052,
min1.png,min2.png,min3.png,min4.png,allBlank.png,,,,['num_1'],,,,,,0,5,5,5,,,,,,,,,['num_1'],6,0.0514995083076,1,['num_1'],0,[0.8090608447428167],,2018_Apr_03_1138,59.9843240902,sequenceLearningTask,001,052,
min1.png,min2.png,min3.png,min4.png,allBlank.png,,,,['num_4'],,,,,,0,5,5,5,,,,,,,,,['num_4'],6,0.0576143826111,1,['num_4'],0,[1.0208287264931641],,2018_Apr_03_1138,59.9843240902,sequenceLearningTask,001,052,
min1.png,min2.png,min3.png,min4.png,allBlank.png,,,,['num_0'],,,,,,0,5,5,5,,,,,,,,,['num_0'],6,0.0601579733975,1,['num_0'],0,[0.7166698324799654],,2018_Apr_03_1138,59.9843240902,sequenceLearningTask,001,052,
min1.png,min2.png,min3.png,min4.png,allBlank.png,,,,['num_0'],,,,,,0,5,5,5,,,,,,,,,['num_0'],6,0.048625250718,1,['num_0'],0,[1.3132739746761217],,2018_Apr_03_1138,59.9843240902,sequenceLearningTask,001,052,
min1.png,min2.png,min3.png,min4.png,allBlank.png,,,,['num_4'],,,,,,0,5,5,5,,,,,,,,,['num_4'],6,0.0510904824987,1,['num_4'],0,[4.142329084033008],,2018_Apr_03_1138,59.9843240902,sequenceLearningTask,001,052,
min1.png,min2.png,min3.png,min4.png,allBlank.png,,,,['num_1'],,,,,,0,5,5,5,,,,,,,,,['num_1'],6,0.0524984830763,1,['num_1'],0,[1.6749602769068588],,2018_Apr_03_1138,59.9843240902,sequenceLearningTask,001,052,
min1.png,min2.png,min3.png,min4.png,allBlank.png,,,,['num_0'],,,,,,0,5,5,5,,,,,,,,,['num_0'],6,0.0588492549123,1,['num_0'],0,[1.268610161480865],,2018_Apr_03_1138,59.9843240902,sequenceLearningTask,001,052,
min1.png,min2.png,min3.png,min4.png,allBlank.png,,,,['num_7'],,,,,,0,6,6,6,,,,,,,,,['num_7'],7,0.0566506899086,1,['num_7'],0,[0.9359593583421884],,2018_Apr_03_1138,59.9843240902,sequenceLearningTask,001,052,
min1.png,min2.png,min3.png,min4.png,allBlank.png,,,,['num_1'],,,,,,0,6,6,6,,,,,,,,,['num_1'],7,0.0585333573472,0,"['num_4', 'num_1']",0,"[0.0003343591115481104, 1.3365539842270664]",,2018_Apr_03_1138,59.9843240902,sequenceLearningTask,001,052,
min1.png,min2.png,min3.png,min4.png,allBlank.png,,,,['num_4'],,,,,,0,6,6,6,,,,,,,,,['num_4'],7,0.0543745864097,1,['num_4'],0,[1.2073572132740082],,2018_Apr_03_1138,59.9843240902,sequenceLearningTask,001,052,
min1.png,min2.png,min3.png,min4.png,allBlank.png,,,,['num_0'],,,,,,0,6,6,6,,,,,,,,,['num_0'],7,0.0547126378306,1,['num_0'],0,[0.5903399344988429],,2018_Apr_03_1138,59.9843240902,sequenceLearningTask,001,052,
min1.png,min2.png,min3.png,min4.png,allBlank.png,,,,['num_0'],,,,,,0,6,6,6,,,,,,,,,['num_0'],7,0.0502371488146,1,['num_0'],0,[0.5448182747977626],,2018_Apr_03_1138,59.9843240902,sequenceLearningTask,001,052,
min1.png,min2.png,min3.png,min4.png,allBlank.png,,,,['num_4'],,,,,,0,6,6,6,,,,,,,,,['num_4'],7,0.0553805355403,1,['num_4'],0,[0.40649411548474745],,2018_Apr_03_1138,59.9843240902,sequenceLearningTask,001,052,
min1.png,min2.png,min3.png,min4.png,allBlank.png,,,,['num_1'],,,,,,0,6,6,6,,,,,,,,,['num_1'],7,0.0521903803856,1,['num_1'],0,[0.6110952250646733],,2018_Apr_03_1138,59.9843240902,sequenceLearningTask,001,052,
min1.png,min2.png,min3.png,min4.png,allBlank.png,,,,['num_0'],,,,,,0,6,6,6,,,,,,,,,['num_0'],7,0.0544529454164,1,['num_0'],0,[0.35707173623450217],,2018_Apr_03_1138,59.9843240902,sequenceLearningTask,001,052,
min1.png,min2.png,min3.png,min4.png,allBlank.png,,,,['num_7'],,,,,,0,7,7,7,,,,,,,,,['num_7'],8,0.0505756104922,1,['num_7'],0,[0.5263358056763536],,2018_Apr_03_1138,59.9843240902,sequenceLearningTask,001,052,
min1.png,min2.png,min3.png,min4.png,allBlank.png,,,,['num_1'],,,,,,0,7,7,7,,,,,,,,,['num_1'],8,0.0591064857872,1,['num_1'],0,[1.1676808893043926],,2018_Apr_03_1138,59.9843240902,sequenceLearningTask,001,052,
min1.png,min2.png,min3.png,min4.png,allBlank.png,,,,['num_4'],,,,,,0,7,7,7,,,,,,,,,['num_4'],8,0.0518096622809,0,"['num_0', 'num_0', 'num_4']",0,"[0.20887721389863145, 0.8592610704663457, 1.2572440029716745]",,2018_Apr_03_1138,59.9843240902,sequenceLearningTask,001,052,
min1.png,min2.png,min3.png,min4.png,allBlank.png,,,,['num_0'],,,,,,0,7,7,7,,,,,,,,,['num_0'],8,0.0560590999212,1,['num_0'],0,[0.6543346274193027],,2018_Apr_03_1138,59.9843240902,sequenceLearningTask,001,052,
min1.png,min2.png,min3.png,min4.png,allBlank.png,,,,['num_0'],,,,,,0,7,7,7,,,,,,,,,['num_0'],8,0.0590900755242,1,['num_0'],0,[0.8690231257533014],,2018_Apr_03_1138,59.9843240902,sequenceLearningTask,001,052,
min1.png,min2.png,min3.png,min4.png,allBlank.png,,,,['num_4'],,,,,,0,7,7,7,,,,,,,,,['num_4'],8,0.0493107894608,0,"['num_7', 'num_4']",0,"[1.3797712327259433, 1.995780100832235]",,2018_Apr_03_1138,59.9843240902,sequenceLearningTask,001,052,
min1.png,min2.png,min3.png,min4.png,allBlank.png,,,,['num_1'],,,,,,0,7,7,7,,,,,,,,,['num_1'],8,0.0515713032091,1,['num_1'],0,[0.9427023354683115],,2018_Apr_03_1138,59.9843240902,sequenceLearningTask,001,052,
min1.png,min2.png,min3.png,min4.png,allBlank.png,,,,['num_0'],,,,,,0,7,7,7,,,,,,,,,['num_0'],8,0.0499704820395,1,['num_0'],0,[0.9943987669321359],,2018_Apr_03_1138,59.9843240902,sequenceLearningTask,001,052,
min1.png,min2.png,min3.png,min4.png,allBlank.png,,,,['num_7'],,,,,,0,8,8,8,,,,,,,,,['num_7'],9,0.0552377662507,0,"['num_4', 'num_7']",0,"[1.2856756043802307, 2.8699055876541024]",,2018_Apr_03_1138,59.9843240902,sequenceLearningTask,001,052,
min1.png,min2.png,min3.png,min4.png,allBlank.png,,,,['num_1'],,,,,,0,8,8,8,,,,,,,,,['num_1'],9,0.0396529393447,1,['num_1'],0,[2.4730196812388385],,2018_Apr_03_1138,59.9843240902,sequenceLearningTask,001,052,
min1.png,min2.png,min3.png,min4.png,allBlank.png,,,,['num_4'],,,,,,0,8,8,8,,,,,,,,,['num_4'],9,0.0543569453775,1,['num_4'],0,[6.70640972570709],,2018_Apr_03_1138,59.9843240902,sequenceLearningTask,001,052,
min1.png,min2.png,min3.png,min4.png,allBlank.png,,,,['num_0'],,,,,,0,8,8,8,,,,,,,,,['num_0'],9,0.0507290464529,1,['num_0'],0,[1.2942364284044743],,2018_Apr_03_1138,59.9843240902,sequenceLearningTask,001,052,
min1.png,min2.png,min3.png,min4.png,allBlank.png,,,,['num_0'],,,,,,0,8,8,8,,,,,,,,,['num_0'],9,0.0567618694413,1,['num_0'],0,[0.8704840494292512],,2018_Apr_03_1138,59.9843240902,sequenceLearningTask,001,052,
min1.png,min2.png,min3.png,min4.png,allBlank.png,,,,['num_4'],,,,,,0,8,8,8,,,,,,,,,['num_4'],9,0.0610638199232,1,['num_4'],0,[2.231705120699189],,2018_Apr_03_1138,59.9843240902,sequenceLearningTask,001,052,
min1.png,min2.png,min3.png,min4.png,allBlank.png,,,,['num_1'],,,,,,0,8,8,8,,,,,,,,,['num_1'],9,0.0581140751237,1,['num_1'],0,[0.951733313531804],,2018_Apr_03_1138,59.9843240902,sequenceLearningTask,001,052,
min1.png,min2.png,min3.png,min4.png,allBlank.png,,,,['num_0'],,,,,,0,8,8,8,,,,,,,,,['num_0'],9,0.0580414597089,1,['num_0'],0,[0.9527638780573398],,2018_Apr_03_1138,59.9843240902,sequenceLearningTask,001,052,
min1.png,min2.png,min3.png,min4.png,allBlank.png,,,,['num_7'],,,,,,0,9,9,9,,,,,,,,,['num_7'],10,0.0523434060897,1,['num_7'],0,[1.1405042627711737],,2018_Apr_03_1138,59.9843240902,sequenceLearningTask,001,052,
min1.png,min2.png,min3.png,min4.png,allBlank.png,,,,['num_1'],,,,,,0,9,9,9,,,,,,,,,['num_1'],10,0.0586519214985,1,['num_1'],0,[2.335538599195388],,2018_Apr_03_1138,59.9843240902,sequenceLearningTask,001,052,
min1.png,min2.png,min3.png,min4.png,allBlank.png,,,,['num_4'],,,,,,0,9,9,9,,,,,,,,,['num_4'],10,0.0492069945458,1,['num_4'],0,[1.1137936877094035],,2018_Apr_03_1138,59.9843240902,sequenceLearningTask,001,052,
min1.png,min2.png,min3.png,min4.png,allBlank.png,,,,['num_0'],,,,,,0,9,9,9,,,,,,,,,['num_0'],10,0.0557468946654,1,['num_0'],0,[1.0551068944032522],,2018_Apr_03_1138,59.9843240902,sequenceLearningTask,001,052,
min1.png,min2.png,min3.png,min4.png,allBlank.png,,,,['num_0'],,,,,,0,9,9,9,,,,,,,,,['num_0'],10,0.0460763265955,1,['num_0'],0,[0.7988380713186416],,2018_Apr_03_1138,59.9843240902,sequenceLearningTask,001,052,
min1.png,min2.png,min3.png,min4.png,allBlank.png,,,,['num_4'],,,,,,0,9,9,9,,,,,,,,,['num_4'],10,0.0572927414532,1,['num_4'],0,[1.47209373214082],,2018_Apr_03_1138,59.9843240902,sequenceLearningTask,001,052,
min1.png,min2.png,min3.png,min4.png,allBlank.png,,,,['num_1'],,,,,,0,9,9,9,,,,,,,,,['num_1'],10,0.0510309952942,1,['num_1'],0,[0.9603724965636502],,2018_Apr_03_1138,59.9843240902,sequenceLearningTask,001,052,
min1.png,min2.png,min3.png,min4.png,allBlank.png,,,,['num_0'],,,,,,0,9,9,9,,,,,,,,,['num_0'],10,0.0525920215769,1,['num_0'],0,[0.5084949778438386],,2018_Apr_03_1138,59.9843240902,sequenceLearningTask,001,052,
min1.png,min2.png,min3.png,min4.png,allBlank.png,,,,,,,,,,0,9,9,9,,,,,0,-1,-1,0,,,,,,,,,2018_Apr_03_1138,59.9843240902,sequenceLearningTask,001,052,
