pawPatrol1,pawPatrol2,pawPatrol3,pawPatrol4,blank,randomPaw,correctKeyPress,allowableKey,correctKey,correctKeyPressNum,trials.thisRepN,trials.thisTrialN,trials.thisN,trials.thisIndex,trials_3.thisRepN,trials_3.thisTrialN,trials_3.thisN,trials_3.thisIndex,trials_2.thisRepN,trials_2.thisTrialN,trials_2.thisN,trials_2.thisIndex,trials_questions.thisRepN,trials_questions.thisTrialN,trials_questions.thisN,trials_questions.thisIndex,trials_test.thisRepN,trials_test.thisTrialN,trials_test.thisN,trials_test.thisIndex,trials_recogtest.thisRepN,trials_recogtest.thisTrialN,trials_recogtest.thisN,trials_recogtest.thisIndex,correctKey,repetitionNumber,stimulusPresent.t,trialCorrect,key_resp_9.keys,key_resp_9.corr,key_resp_9.rt,keyRespCorrect,questionsResponses,AnswerFinished.keys,AnswerFinished.rt,RecordAnswer.keys,recallResponse,recallResponseTime,date,frameRate,expName,session,participant,
min1.png,min2.png,min3.png,min4.png,allBlank.png,,,,['num_7'],,,,,,0,0,0,0,,,,,,,,,,,,,,,,,['num_7'],1,0.0255310873963,1,['num_7'],0,[3.458623777896719],,,,,,,,2018_Apr_03_1241,59.9927393376,sequenceLearningTask,001,051,
min1.png,min2.png,min3.png,min4.png,allBlank.png,,,,['num_1'],,,,,,0,0,0,0,,,,,,,,,,,,,,,,,['num_1'],1,0.023213137727,0,"['num_4', 'num_1']",0,"[0.37059010075608967, 1.8538928631351155]",,,,,,,,2018_Apr_03_1241,59.9927393376,sequenceLearningTask,001,051,
min1.png,min2.png,min3.png,min4.png,allBlank.png,,,,['num_4'],,,,,,0,0,0,0,,,,,,,,,,,,,,,,,['num_4'],1,0.0232988813532,1,['num_4'],0,[1.5373138614613708],,,,,,,,2018_Apr_03_1241,59.9927393376,sequenceLearningTask,001,051,
min1.png,min2.png,min3.png,min4.png,allBlank.png,,,,['num_0'],,,,,,0,0,0,0,,,,,,,,,,,,,,,,,['num_0'],1,0.0237842148854,1,['num_0'],0,[0.603886606721062],,,,,,,,2018_Apr_03_1241,59.9927393376,sequenceLearningTask,001,051,
min1.png,min2.png,min3.png,min4.png,allBlank.png,,,,['num_0'],,,,,,0,0,0,0,,,,,,,,,,,,,,,,,['num_0'],1,0.0239331380235,1,['num_0'],0,[0.5535464835065795],,,,,,,,2018_Apr_03_1241,59.9927393376,sequenceLearningTask,001,051,
min1.png,min2.png,min3.png,min4.png,allBlank.png,,,,['num_4'],,,,,,0,0,0,0,,,,,,,,,,,,,,,,,['num_4'],1,0.023583599419,0,"['num_0', 'num_4']",0,"[0.0003323078290122794, 1.0203347775732254]",,,,,,,,2018_Apr_03_1241,59.9927393376,sequenceLearningTask,001,051,
min1.png,min2.png,min3.png,min4.png,allBlank.png,,,,['num_1'],,,,,,0,0,0,0,,,,,,,,,,,,,,,,,['num_1'],1,0.0236599071432,1,['num_1'],0,[0.837131830618091],,,,,,,,2018_Apr_03_1241,59.9927393376,sequenceLearningTask,001,051,
min1.png,min2.png,min3.png,min4.png,allBlank.png,,,,['num_0'],,,,,,0,0,0,0,,,,,,,,,,,,,,,,,['num_0'],1,0.0233259582874,1,['num_0'],0,[0.3374901897386735],,,,,,,,2018_Apr_03_1241,59.9927393376,sequenceLearningTask,001,051,
min1.png,min2.png,min3.png,min4.png,allBlank.png,,,,['num_7'],,,,,,0,1,1,1,,,,,,,,,,,,,,,,,['num_7'],2,0.0232525223601,1,['num_7'],0,[0.9535868527527782],,,,,,,,2018_Apr_03_1241,59.9927393376,sequenceLearningTask,001,051,
min1.png,min2.png,min3.png,min4.png,allBlank.png,,,,['num_1'],,,,,,0,1,1,1,,,,,,,,,,,,,,,,,['num_1'],2,0.0243314971631,1,['num_1'],0,[0.9363638713293767],,,,,,,,2018_Apr_03_1241,59.9927393376,sequenceLearningTask,001,051,
min1.png,min2.png,min3.png,min4.png,allBlank.png,,,,['num_4'],,,,,,0,1,1,1,,,,,,,,,,,,,,,,,['num_4'],2,0.0235598045365,1,['num_4'],0,[1.3198450542968203],,,,,,,,2018_Apr_03_1241,59.9927393376,sequenceLearningTask,001,051,
min1.png,min2.png,min3.png,min4.png,allBlank.png,,,,['num_0'],,,,,,0,1,1,1,,,,,,,,,,,,,,,,,['num_0'],2,0.0236882148456,1,['num_0'],0,[0.42007155695318943],,,,,,,,2018_Apr_03_1241,59.9927393376,sequenceLearningTask,001,051,
min1.png,min2.png,min3.png,min4.png,allBlank.png,,,,['num_0'],,,,,,0,1,1,1,,,,,,,,,,,,,,,,,['num_0'],2,0.0244771382477,1,['num_0'],0,[0.7364696354761691],,,,,,,,2018_Apr_03_1241,59.9927393376,sequenceLearningTask,001,051,
min1.png,min2.png,min3.png,min4.png,allBlank.png,,,,['num_4'],,,,,,0,1,1,1,,,,,,,,,,,,,,,,,['num_4'],2,0.0233353941876,1,['num_4'],0,[0.9204799673771049],,,,,,,,2018_Apr_03_1241,59.9927393376,sequenceLearningTask,001,051,
min1.png,min2.png,min3.png,min4.png,allBlank.png,,,,['num_1'],,,,,,0,1,1,1,,,,,,,,,,,,,,,,,['num_1'],2,0.0231938556699,1,['num_1'],0,[1.1874314615106414],,,,,,,,2018_Apr_03_1241,59.9927393376,sequenceLearningTask,001,051,
min1.png,min2.png,min3.png,min4.png,allBlank.png,,,,['num_0'],,,,,,0,1,1,1,,,,,,,,,,,,,,,,,['num_0'],2,0.0223647271232,1,['num_0'],0,[0.9879269694047252],,,,,,,,2018_Apr_03_1241,59.9927393376,sequenceLearningTask,001,051,
min1.png,min2.png,min3.png,min4.png,allBlank.png,,,,['num_7'],,,,,,0,2,2,2,,,,,,,,,,,,,,,,,['num_7'],3,0.0237522148727,1,['num_7'],0,[0.9032134987537574],,,,,,,,2018_Apr_03_1241,59.9927393376,sequenceLearningTask,001,051,
min1.png,min2.png,min3.png,min4.png,allBlank.png,,,,['num_1'],,,,,,0,2,2,2,,,,,,,,,,,,,,,,,['num_1'],3,0.023260727492,0,"['num_4', 'num_1']",0,"[0.8377340872757486, 2.1377383129183727]",,,,,,,,2018_Apr_03_1241,59.9927393376,sequenceLearningTask,001,051,
min1.png,min2.png,min3.png,min4.png,allBlank.png,,,,['num_4'],,,,,,0,2,2,2,,,,,,,,,,,,,,,,,['num_4'],3,0.0235257532422,1,['num_4'],0,[1.620738305944542],,,,,,,,2018_Apr_03_1241,59.9927393376,sequenceLearningTask,001,051,
min1.png,min2.png,min3.png,min4.png,allBlank.png,,,,['num_0'],,,,,,0,2,2,2,,,,,,,,,,,,,,,,,['num_0'],3,0.0235967276294,1,['num_0'],0,[0.5872498819499015],,,,,,,,2018_Apr_03_1241,59.9927393376,sequenceLearningTask,001,051,
min1.png,min2.png,min3.png,min4.png,allBlank.png,,,,['num_0'],,,,,,0,2,2,2,,,,,,,,,,,,,,,,,['num_0'],3,0.0234978557928,1,['num_0'],0,[0.5206480084707437],,,,,,,,2018_Apr_03_1241,59.9927393376,sequenceLearningTask,001,051,
min1.png,min2.png,min3.png,min4.png,allBlank.png,,,,['num_4'],,,,,,0,2,2,2,,,,,,,,,,,,,,,,,['num_4'],3,0.0230974453734,1,['num_4'],0,[1.154280678680152],,,,,,,,2018_Apr_03_1241,59.9927393376,sequenceLearningTask,001,051,
min1.png,min2.png,min3.png,min4.png,allBlank.png,,,,['num_1'],,,,,,0,2,2,2,,,,,,,,,,,,,,,,,['num_1'],3,0.0230346761164,1,['num_1'],0,[1.137733800096612],,,,,,,,2018_Apr_03_1241,59.9927393376,sequenceLearningTask,001,051,
min1.png,min2.png,min3.png,min4.png,allBlank.png,,,,['num_0'],,,,,,0,2,2,2,,,,,,,,,,,,,,,,,['num_0'],3,0.0241944714635,1,['num_0'],0,[0.7202841929374699],,,,,,,,2018_Apr_03_1241,59.9927393376,sequenceLearningTask,001,051,
min1.png,min2.png,min3.png,min4.png,allBlank.png,,,,['num_7'],,,,,,0,3,3,3,,,,,,,,,,,,,,,,,['num_7'],4,0.0235700609519,1,['num_7'],0,[1.1866097175843606],,,,,,,,2018_Apr_03_1241,59.9927393376,sequenceLearningTask,001,051,
min1.png,min2.png,min3.png,min4.png,allBlank.png,,,,['num_1'],,,,,,0,3,3,3,,,,,,,,,,,,,,,,,['num_1'],4,0.0240812406482,1,['num_1'],0,[1.1035052732331678],,,,,,,,2018_Apr_03_1241,59.9927393376,sequenceLearningTask,001,051,
min1.png,min2.png,min3.png,min4.png,allBlank.png,,,,['num_4'],,,,,,0,3,3,3,,,,,,,,,,,,,,,,,['num_4'],4,0.0228878042599,0,"['num_1', 'num_1', 'num_4']",0,"[1.4715300396019302, 1.754879899437583, 2.1214158446819056]",,,,,,,,2018_Apr_03_1241,59.9927393376,sequenceLearningTask,001,051,
min1.png,min2.png,min3.png,min4.png,allBlank.png,,,,['num_0'],,,,,,0,3,3,3,,,,,,,,,,,,,,,,,['num_0'],4,0.070106695428,0,"['num_4', 'num_0', 'num_0']",0,"[0.4584859316873917, 1.0897776778583648]",,,,,,,,2018_Apr_03_1241,59.9927393376,sequenceLearningTask,001,051,
min1.png,min2.png,min3.png,min4.png,allBlank.png,,,,['num_0'],,,,,,0,3,3,3,,,,,,,,,,,,,,,,,['num_0'],4,0.0512041235706,0,"['num_0', 'num_0']",0,"[0.00036512835504254326, 1.9599396758731018]",,,,,,,,2018_Apr_03_1241,59.9927393376,sequenceLearningTask,001,051,
min1.png,min2.png,min3.png,min4.png,allBlank.png,,,,['num_4'],,,,,,0,3,3,3,,,,,,,,,,,,,,,,,['num_4'],4,0.051172123558,1,['num_4'],0,[1.026694164798755],,,,,,,,2018_Apr_03_1241,59.9927393376,sequenceLearningTask,001,051,
min1.png,min2.png,min3.png,min4.png,allBlank.png,,,,['num_1'],,,,,,0,3,3,3,,,,,,,,,,,,,,,,,['num_1'],4,0.0511696620179,0,"['num_7', 'num_1']",0,"[0.17512991800140298, 0.9252163795754313]",,,,,,,,2018_Apr_03_1241,59.9927393376,sequenceLearningTask,001,051,
min1.png,min2.png,min3.png,min4.png,allBlank.png,,,,['num_0'],,,,,,0,3,3,3,,,,,,,,,,,,,,,,,['num_0'],4,0.0603151016676,1,['num_0'],0,[0.40016426673355454],,,,,,,,2018_Apr_03_1241,59.9927393376,sequenceLearningTask,001,051,
min1.png,min2.png,min3.png,min4.png,allBlank.png,,,,['num_7'],,,,,,0,4,4,4,,,,,,,,,,,,,,,,,['num_7'],5,0.0560673050531,1,['num_7'],0,[0.7365369175549858],,,,,,,,2018_Apr_03_1241,59.9927393376,sequenceLearningTask,001,051,
min1.png,min2.png,min3.png,min4.png,allBlank.png,,,,['num_1'],,,,,,0,4,4,4,,,,,,,,,,,,,,,,,['num_1'],5,0.0519548931097,1,['num_1'],0,[0.9582732136514096],,,,,,,,2018_Apr_03_1241,59.9927393376,sequenceLearningTask,001,051,
min1.png,min2.png,min3.png,min4.png,allBlank.png,,,,['num_4'],,,,,,0,4,4,4,,,,,,,,,,,,,,,,,['num_4'],5,0.0478728401522,1,['num_4'],0,[0.9477899272987997],,,,,,,,2018_Apr_03_1241,59.9927393376,sequenceLearningTask,001,051,
min1.png,min2.png,min3.png,min4.png,allBlank.png,,,,['num_0'],,,,,,0,4,4,4,,,,,,,,,,,,,,,,,['num_0'],5,0.0469300705354,0,"['num_1', 'num_4', 'num_0']",0,"[0.00022071803869039286, 0.3974922656379931, 1.3664042528835125]",,,,,,,,2018_Apr_03_1241,59.9927393376,sequenceLearningTask,001,051,
min1.png,min2.png,min3.png,min4.png,allBlank.png,,,,['num_0'],,,,,,0,4,4,4,,,,,,,,,,,,,,,,,['num_0'],5,0.05357950916,0,"['num_4', 'num_0']",0,"[0.0002896411460824311, 0.9086026291697635]",,,,,,,,2018_Apr_03_1241,59.9927393376,sequenceLearningTask,001,051,
min1.png,min2.png,min3.png,min4.png,allBlank.png,,,,['num_4'],,,,,,0,4,4,4,,,,,,,,,,,,,,,,,['num_4'],5,0.0499557128023,1,['num_4'],0,[3.244153946319784],,,,,,,,2018_Apr_03_1241,59.9927393376,sequenceLearningTask,001,051,
min1.png,min2.png,min3.png,min4.png,allBlank.png,,,,['num_1'],,,,,,0,4,4,4,,,,,,,,,,,,,,,,,['num_1'],5,0.0515667903874,0,"['num_1', 'num_0', 'num_4', 'num_1']",0,"[0.0002933334526460385, 3.1933576177871146, 3.677999047384219, 4.544487197737908]",,,,,,,,2018_Apr_03_1241,59.9927393376,sequenceLearningTask,001,051,
min1.png,min2.png,min3.png,min4.png,allBlank.png,,,,['num_0'],,,,,,0,4,4,4,,,,,,,,,,,,,,,,,['num_0'],5,0.0533764321553,1,['num_0'],0,[6.2903956063164514],,,,,,,,2018_Apr_03_1241,59.9927393376,sequenceLearningTask,001,051,
min1.png,min2.png,min3.png,min4.png,allBlank.png,,,,['num_7'],,,,,,0,5,5,5,,,,,,,,,,,,,,,,,['num_7'],6,0.053481047582,1,['num_7'],0,[2.57211756804827],,,,,,,,2018_Apr_03_1241,59.9927393376,sequenceLearningTask,001,051,
min1.png,min2.png,min3.png,min4.png,allBlank.png,,,,['num_1'],,,,,,0,5,5,5,,,,,,,,,,,,,,,,,['num_1'],6,0.0556779715607,0,"['num_4', 'num_1']",0,"[2.10523286368516, 2.6725254041139124]",,,,,,,,2018_Apr_03_1241,59.9927393376,sequenceLearningTask,001,051,
min1.png,min2.png,min3.png,min4.png,allBlank.png,,,,['num_4'],,,,,,0,5,5,5,,,,,,,,,,,,,,,,,['num_4'],6,0.0513674056892,1,['num_4'],0,[0.9932635869790829],,,,,,,,2018_Apr_03_1241,59.9927393376,sequenceLearningTask,001,051,
min1.png,min2.png,min3.png,min4.png,allBlank.png,,,,['num_0'],,,,,,0,5,5,5,,,,,,,,,,,,,,,,,['num_0'],6,0.0504808412243,1,['num_0'],0,[0.8774764625541138],,,,,,,,2018_Apr_03_1241,59.9927393376,sequenceLearningTask,001,051,
min1.png,min2.png,min3.png,min4.png,allBlank.png,,,,['num_0'],,,,,,0,5,5,5,,,,,,,,,,,,,,,,,['num_0'],6,0.0521399188274,1,['num_0'],0,[5.844133679644074],,,,,,,,2018_Apr_03_1241,59.9927393376,sequenceLearningTask,001,051,
min1.png,min2.png,min3.png,min4.png,allBlank.png,,,,['num_4'],,,,,,0,5,5,5,,,,,,,,,,,,,,,,,['num_4'],6,0.051798585353,1,['num_4'],0,[1.1931885920766945],,,,,,,,2018_Apr_03_1241,59.9927393376,sequenceLearningTask,001,051,
min1.png,min2.png,min3.png,min4.png,allBlank.png,,,,['num_1'],,,,,,0,5,5,5,,,,,,,,,,,,,,,,,['num_1'],6,0.05784453655,0,"['num_7', 'num_1']",0,"[0.12019122879610222, 1.686774435600455]",,,,,,,,2018_Apr_03_1241,59.9927393376,sequenceLearningTask,001,051,
min1.png,min2.png,min3.png,min4.png,allBlank.png,,,,['num_0'],,,,,,0,5,5,5,,,,,,,,,,,,,,,,,['num_0'],6,0.0570945875261,1,['num_0'],0,[0.7539687195767328],,,,,,,,2018_Apr_03_1241,59.9927393376,sequenceLearningTask,001,051,
min1.png,min2.png,min3.png,min4.png,allBlank.png,,,,['num_7'],,,,,,0,6,6,6,,,,,,,,,,,,,,,,,['num_7'],7,0.0470539680227,1,['num_7'],0,[0.8145521290462057],,,,,,,,2018_Apr_03_1241,59.9927393376,sequenceLearningTask,001,051,
min1.png,min2.png,min3.png,min4.png,allBlank.png,,,,['num_1'],,,,,,0,6,6,6,,,,,,,,,,,,,,,,,['num_1'],7,0.0403836063106,1,['num_1'],0,[1.1717580191816523],,,,,,,,2018_Apr_03_1241,59.9927393376,sequenceLearningTask,001,051,
min1.png,min2.png,min3.png,min4.png,allBlank.png,,,,['num_4'],,,,,,0,6,6,6,,,,,,,,,,,,,,,,,['num_4'],7,0.0503635078403,1,['num_4'],0,[1.278805447715058],,,,,,,,2018_Apr_03_1241,59.9927393376,sequenceLearningTask,001,051,
min1.png,min2.png,min3.png,min4.png,allBlank.png,,,,['num_0'],,,,,,0,6,6,6,,,,,,,,,,,,,,,,,['num_0'],7,0.0622478204095,1,['num_0'],0,[0.5815854693682923],,,,,,,,2018_Apr_03_1241,59.9927393376,sequenceLearningTask,001,051,
min1.png,min2.png,min3.png,min4.png,allBlank.png,,,,['num_0'],,,,,,0,6,6,6,,,,,,,,,,,,,,,,,['num_0'],7,0.0582371520977,1,['num_0'],0,[0.6529881653295888],,,,,,,,2018_Apr_03_1241,59.9927393376,sequenceLearningTask,001,051,
min1.png,min2.png,min3.png,min4.png,allBlank.png,,,,['num_4'],,,,,,0,6,6,6,,,,,,,,,,,,,,,,,['num_4'],7,0.0495421741707,1,['num_4'],0,[0.7446091259935201],,,,,,,,2018_Apr_03_1241,59.9927393376,sequenceLearningTask,001,051,
min1.png,min2.png,min3.png,min4.png,allBlank.png,,,,['num_1'],,,,,,0,6,6,6,,,,,,,,,,,,,,,,,['num_1'],7,0.0595105885186,1,['num_1'],0,[0.8014501749548799],,,,,,,,2018_Apr_03_1241,59.9927393376,sequenceLearningTask,001,051,
min1.png,min2.png,min3.png,min4.png,allBlank.png,,,,['num_0'],,,,,,0,6,6,6,,,,,,,,,,,,,,,,,['num_0'],7,0.051537251913,1,['num_0'],0,[0.6096921475655108],,,,,,,,2018_Apr_03_1241,59.9927393376,sequenceLearningTask,001,051,
min1.png,min2.png,min3.png,min4.png,allBlank.png,,,,['num_7'],,,,,,0,7,7,7,,,,,,,,,,,,,,,,,['num_7'],8,0.0529177652988,1,['num_7'],0,[0.8897135957795399],,,,,,,,2018_Apr_03_1241,59.9927393376,sequenceLearningTask,001,051,
min1.png,min2.png,min3.png,min4.png,allBlank.png,,,,['num_1'],,,,,,0,7,7,7,,,,,,,,,,,,,,,,,['num_1'],8,0.054324945364,1,['num_1'],0,[1.0734909019447514],,,,,,,,2018_Apr_03_1241,59.9927393376,sequenceLearningTask,001,051,
min1.png,min2.png,min3.png,min4.png,allBlank.png,,,,['num_4'],,,,,,0,7,7,7,,,,,,,,,,,,,,,,,['num_4'],8,0.0645304880127,0,"['num_0', 'num_4']",0,"[0.3956727777112974, 1.296298788225613]",,,,,,,,2018_Apr_03_1241,59.9927393376,sequenceLearningTask,001,051,
min1.png,min2.png,min3.png,min4.png,allBlank.png,,,,['num_0'],,,,,,0,7,7,7,,,,,,,,,,,,,,,,,['num_0'],8,0.0567151001924,1,['num_0'],0,[0.3870405690431653],,,,,,,,2018_Apr_03_1241,59.9927393376,sequenceLearningTask,001,051,
min1.png,min2.png,min3.png,min4.png,allBlank.png,,,,['num_0'],,,,,,0,7,7,7,,,,,,,,,,,,,,,,,['num_0'],8,0.0552361252248,1,['num_0'],0,[1.1728423273198132],,,,,,,,2018_Apr_03_1241,59.9927393376,sequenceLearningTask,001,051,
min1.png,min2.png,min3.png,min4.png,allBlank.png,,,,['num_4'],,,,,,0,7,7,7,,,,,,,,,,,,,,,,,['num_4'],8,0.0478400196262,1,['num_4'],0,[1.6300646687450353],,,,,,,,2018_Apr_03_1241,59.9927393376,sequenceLearningTask,001,051,
min1.png,min2.png,min3.png,min4.png,allBlank.png,,,,['num_1'],,,,,,0,7,7,7,,,,,,,,,,,,,,,,,['num_1'],8,0.0533587911214,1,['num_1'],0,[0.9089304241751961],,,,,,,,2018_Apr_03_1241,59.9927393376,sequenceLearningTask,001,051,
min1.png,min2.png,min3.png,min4.png,allBlank.png,,,,['num_0'],,,,,,0,7,7,7,,,,,,,,,,,,,,,,,['num_0'],8,0.0521669957616,0,"['num_1', 'num_0', 'num_0']",0,"[0.49209456085918646, 1.6425721610557957]",,,,,,,,2018_Apr_03_1241,59.9927393376,sequenceLearningTask,001,051,
min1.png,min2.png,min3.png,min4.png,allBlank.png,,,,['num_7'],,,,,,0,8,8,8,,,,,,,,,,,,,,,,,['num_7'],9,0.0623241281337,1,['num_7'],0,[0.6123452768588322],,,,,,,,2018_Apr_03_1241,59.9927393376,sequenceLearningTask,001,051,
min1.png,min2.png,min3.png,min4.png,allBlank.png,,,,['num_1'],,,,,,0,8,8,8,,,,,,,,,,,,,,,,,['num_1'],9,0.0560738691602,1,['num_1'],0,[2.137994723279917],,,,,,,,2018_Apr_03_1241,59.9927393376,sequenceLearningTask,001,051,
min1.png,min2.png,min3.png,min4.png,allBlank.png,,,,['num_4'],,,,,,0,8,8,8,,,,,,,,,,,,,,,,,['num_4'],9,0.055543817658,0,"['num_0', 'num_4']",0,"[0.00029989755967108067, 1.505669540787494]",,,,,,,,2018_Apr_03_1241,59.9927393376,sequenceLearningTask,001,051,
min1.png,min2.png,min3.png,min4.png,allBlank.png,,,,['num_0'],,,,,,0,8,8,8,,,,,,,,,,,,,,,,,['num_0'],9,0.0557165356786,1,['num_0'],0,[0.83996916511569],,,,,,,,2018_Apr_03_1241,59.9927393376,sequenceLearningTask,001,051,
min1.png,min2.png,min3.png,min4.png,allBlank.png,,,,['num_0'],,,,,,0,8,8,8,,,,,,,,,,,,,,,,,['num_0'],9,0.0606227941025,1,['num_0'],0,[0.5497807383708277],,,,,,,,2018_Apr_03_1241,59.9927393376,sequenceLearningTask,001,051,
min1.png,min2.png,min3.png,min4.png,allBlank.png,,,,['num_4'],,,,,,0,8,8,8,,,,,,,,,,,,,,,,,['num_4'],9,0.0552065867523,1,['num_4'],0,[1.2061937256185047],,,,,,,,2018_Apr_03_1241,59.9927393376,sequenceLearningTask,001,051,
min1.png,min2.png,min3.png,min4.png,allBlank.png,,,,['num_1'],,,,,,0,8,8,8,,,,,,,,,,,,,,,,,['num_1'],9,0.0518182776686,1,['num_1'],0,[1.1267742058553267],,,,,,,,2018_Apr_03_1241,59.9927393376,sequenceLearningTask,001,051,
min1.png,min2.png,min3.png,min4.png,allBlank.png,,,,['num_0'],,,,,,0,8,8,8,,,,,,,,,,,,,,,,,['num_0'],9,0.0567684335474,1,['num_0'],0,[1.4550344430917903],,,,,,,,2018_Apr_03_1241,59.9927393376,sequenceLearningTask,001,051,
min1.png,min2.png,min3.png,min4.png,allBlank.png,,,,['num_7'],,,,,,0,9,9,9,,,,,,,,,,,,,,,,,['num_7'],10,0.0538765349229,1,['num_7'],0,[1.088600651733941],,,,,,,,2018_Apr_03_1241,59.9927393376,sequenceLearningTask,001,051,
min1.png,min2.png,min3.png,min4.png,allBlank.png,,,,['num_1'],,,,,,0,9,9,9,,,,,,,,,,,,,,,,,['num_1'],10,0.0543651505086,1,['num_1'],0,[0.8549242481749388],,,,,,,,2018_Apr_03_1241,59.9927393376,sequenceLearningTask,001,051,
min1.png,min2.png,min3.png,min4.png,allBlank.png,,,,['num_4'],,,,,,0,9,9,9,,,,,,,,,,,,,,,,,['num_4'],10,0.0515544826885,1,['num_4'],0,[0.7763510877339286],,,,,,,,2018_Apr_03_1241,59.9927393376,sequenceLearningTask,001,051,
min1.png,min2.png,min3.png,min4.png,allBlank.png,,,,['num_0'],,,,,,0,9,9,9,,,,,,,,,,,,,,,,,['num_0'],10,0.0493846356458,1,['num_0'],0,[0.5787953143772029],,,,,,,,2018_Apr_03_1241,59.9927393376,sequenceLearningTask,001,051,
min1.png,min2.png,min3.png,min4.png,allBlank.png,,,,['num_0'],,,,,,0,9,9,9,,,,,,,,,,,,,,,,,['num_0'],10,0.0519425854127,1,['num_0'],0,[1.3756083592234063],,,,,,,,2018_Apr_03_1241,59.9927393376,sequenceLearningTask,001,051,
min1.png,min2.png,min3.png,min4.png,allBlank.png,,,,['num_4'],,,,,,0,9,9,9,,,,,,,,,,,,,,,,,['num_4'],10,0.0570420746826,1,['num_4'],0,[1.0884041388326295],,,,,,,,2018_Apr_03_1241,59.9927393376,sequenceLearningTask,001,051,
min1.png,min2.png,min3.png,min4.png,allBlank.png,,,,['num_1'],,,,,,0,9,9,9,,,,,,,,,,,,,,,,,['num_1'],10,0.0809526485955,0,"['num_0', 'num_1']",0,"[1.3140633083330613, 1.797833352957241]",,,,,,,,2018_Apr_03_1241,59.9927393376,sequenceLearningTask,001,051,
min1.png,min2.png,min3.png,min4.png,allBlank.png,,,,['num_0'],,,,,,0,9,9,9,,,,,,,,,,,,,,,,,['num_0'],10,0.0502695590858,0,"['num_1', 'num_0']",0,"[0.0002900514009525068, 0.8780500012526318]",,,,,,,,2018_Apr_03_1241,59.9927393376,sequenceLearningTask,001,051,
min1.png,min2.png,min3.png,min4.png,allBlank.png,,,,['num_7'],,,,,,0,0,0,0,,,,,,,,,,,,,,,,,['num_7'],1,0.0510629953078,0,"['num_0', 'num_0', 'num_7', 'num_7']",0,"[0.0003023590979864821, 1.0744143895044544]",,,,,,,,2018_Apr_03_1241,59.9927393376,sequenceLearningTask,001,051,
min1.png,min2.png,min3.png,min4.png,allBlank.png,,,,['num_1'],,,,,,0,0,0,0,,,,,,,,,,,,,,,,,['num_1'],1,0.0523438163455,1,['num_1'],0,[0.808903716473651],,,,,,,,2018_Apr_03_1241,59.9927393376,sequenceLearningTask,001,051,
min1.png,min2.png,min3.png,min4.png,allBlank.png,,,,['num_4'],,,,,,0,0,0,0,,,,,,,,,,,,,,,,,['num_4'],1,0.056476330863,1,['num_4'],0,[0.6050451712999347],,,,,,,,2018_Apr_03_1241,59.9927393376,sequenceLearningTask,001,051,
min1.png,min2.png,min3.png,min4.png,allBlank.png,,,,['num_0'],,,,,,0,0,0,0,,,,,,,,,,,,,,,,,['num_0'],1,0.0581657674538,1,['num_0'],0,[0.3693334848539962],,,,,,,,2018_Apr_03_1241,59.9927393376,sequenceLearningTask,001,051,
min1.png,min2.png,min3.png,min4.png,allBlank.png,,,,['num_0'],,,,,,0,0,0,0,,,,,,,,,,,,,,,,,['num_0'],1,0.0465169421623,1,['num_0'],0,[0.4659936270745675],,,,,,,,2018_Apr_03_1241,59.9927393376,sequenceLearningTask,001,051,
min1.png,min2.png,min3.png,min4.png,allBlank.png,,,,['num_4'],,,,,,0,0,0,0,,,,,,,,,,,,,,,,,['num_4'],1,0.059693562951,1,['num_4'],0,[0.9188024282266269],,,,,,,,2018_Apr_03_1241,59.9927393376,sequenceLearningTask,001,051,
min1.png,min2.png,min3.png,min4.png,allBlank.png,,,,['num_1'],,,,,,0,0,0,0,,,,,,,,,,,,,,,,,['num_1'],1,0.0528193037208,1,['num_1'],0,[0.774994369228807],,,,,,,,2018_Apr_03_1241,59.9927393376,sequenceLearningTask,001,051,
min1.png,min2.png,min3.png,min4.png,allBlank.png,,,,['num_0'],,,,,,0,0,0,0,,,,,,,,,,,,,,,,,['num_0'],1,0.0582428956877,1,['num_0'],0,[0.3858385172661656],,,,,,,,2018_Apr_03_1241,59.9927393376,sequenceLearningTask,001,051,
min1.png,min2.png,min3.png,min4.png,allBlank.png,,,,['num_7'],,,,,,0,1,1,1,,,,,,,,,,,,,,,,,['num_7'],2,0.0521788932019,1,['num_7'],0,[0.9243765843602887],,,,,,,,2018_Apr_03_1241,59.9927393376,sequenceLearningTask,001,051,
min1.png,min2.png,min3.png,min4.png,allBlank.png,,,,['num_1'],,,,,,0,1,1,1,,,,,,,,,,,,,,,,,['num_1'],2,0.0593432038331,1,['num_1'],0,[1.0349005271382339],,,,,,,,2018_Apr_03_1241,59.9927393376,sequenceLearningTask,001,051,
min1.png,min2.png,min3.png,min4.png,allBlank.png,,,,['num_4'],,,,,,0,1,1,1,,,,,,,,,,,,,,,,,['num_4'],2,0.0548172532581,1,['num_4'],0,[0.6406451859056688],,,,,,,,2018_Apr_03_1241,59.9927393376,sequenceLearningTask,001,051,
min1.png,min2.png,min3.png,min4.png,allBlank.png,,,,['num_0'],,,,,,0,1,1,1,,,,,,,,,,,,,,,,,['num_0'],2,0.0558396126526,1,['num_0'],0,[1.6215571780739992],,,,,,,,2018_Apr_03_1241,59.9927393376,sequenceLearningTask,001,051,
min1.png,min2.png,min3.png,min4.png,allBlank.png,,,,['num_0'],,,,,,0,1,1,1,,,,,,,,,,,,,,,,,['num_0'],2,0.0584168444802,1,['num_0'],0,[1.036984220301747],,,,,,,,2018_Apr_03_1241,59.9927393376,sequenceLearningTask,001,051,
min1.png,min2.png,min3.png,min4.png,allBlank.png,,,,['num_4'],,,,,,0,1,1,1,,,,,,,,,,,,,,,,,['num_4'],2,0.054583407009,1,['num_4'],0,[0.9398613086614205],,,,,,,,2018_Apr_03_1241,59.9927393376,sequenceLearningTask,001,051,
min1.png,min2.png,min3.png,min4.png,allBlank.png,,,,['num_1'],,,,,,0,1,1,1,,,,,,,,,,,,,,,,,['num_1'],2,0.0537793041149,1,['num_1'],0,[0.4907119961899298],,,,,,,,2018_Apr_03_1241,59.9927393376,sequenceLearningTask,001,051,
min1.png,min2.png,min3.png,min4.png,allBlank.png,,,,['num_0'],,,,,,0,1,1,1,,,,,,,,,,,,,,,,,['num_0'],2,0.0526929446951,1,['num_0'],0,[0.3761047696843889],,,,,,,,2018_Apr_03_1241,59.9927393376,sequenceLearningTask,001,051,
min1.png,min2.png,min3.png,min4.png,allBlank.png,,,,['num_7'],,,,,,0,2,2,2,,,,,,,,,,,,,,,,,['num_7'],3,0.052368841998,1,['num_7'],0,[1.0407536577458814],,,,,,,,2018_Apr_03_1241,59.9927393376,sequenceLearningTask,001,051,
min1.png,min2.png,min3.png,min4.png,allBlank.png,,,,['num_1'],,,,,,0,2,2,2,,,,,,,,,,,,,,,,,['num_1'],3,0.0615023842056,1,['num_1'],0,[0.8819716438847536],,,,,,,,2018_Apr_03_1241,59.9927393376,sequenceLearningTask,001,051,
min1.png,min2.png,min3.png,min4.png,allBlank.png,,,,['num_4'],,,,,,0,2,2,2,,,,,,,,,,,,,,,,,['num_4'],3,0.0553358175748,1,['num_4'],0,[0.88961472394476],,,,,,,,2018_Apr_03_1241,59.9927393376,sequenceLearningTask,001,051,
min1.png,min2.png,min3.png,min4.png,allBlank.png,,,,['num_0'],,,,,,0,2,2,2,,,,,,,,,,,,,,,,,['num_0'],3,0.0531093551217,1,['num_0'],0,[0.6749126871436602],,,,,,,,2018_Apr_03_1241,59.9927393376,sequenceLearningTask,001,051,
min1.png,min2.png,min3.png,min4.png,allBlank.png,,,,['num_0'],,,,,,0,2,2,2,,,,,,,,,,,,,,,,,['num_0'],3,0.0514658672691,1,['num_0'],0,[1.7439703565014497],,,,,,,,2018_Apr_03_1241,59.9927393376,sequenceLearningTask,001,051,
min1.png,min2.png,min3.png,min4.png,allBlank.png,,,,['num_4'],,,,,,0,2,2,2,,,,,,,,,,,,,,,,,['num_4'],3,0.056923510534,1,['num_4'],0,[1.404981909736307],,,,,,,,2018_Apr_03_1241,59.9927393376,sequenceLearningTask,001,051,
min1.png,min2.png,min3.png,min4.png,allBlank.png,,,,['num_1'],,,,,,0,2,2,2,,,,,,,,,,,,,,,,,['num_1'],3,0.0521485342142,0,"['num_0', 'num_1']",0,"[0.8755978976823826, 1.5592490499493579]",,,,,,,,2018_Apr_03_1241,59.9927393376,sequenceLearningTask,001,051,
min1.png,min2.png,min3.png,min4.png,allBlank.png,,,,['num_0'],,,,,,0,2,2,2,,,,,,,,,,,,,,,,,['num_0'],3,0.0548451507057,0,"['num_1', 'num_0']",0,"[0.00030646166305814404, 0.9068569874289096]",,,,,,,,2018_Apr_03_1241,59.9927393376,sequenceLearningTask,001,051,
min1.png,min2.png,min3.png,min4.png,allBlank.png,,,,['num_7'],,,,,,0,3,3,3,,,,,,,,,,,,,,,,,['num_7'],4,0.055103202094,1,['num_7'],0,[1.1533165757209645],,,,,,,,2018_Apr_03_1241,59.9927393376,sequenceLearningTask,001,051,
min1.png,min2.png,min3.png,min4.png,allBlank.png,,,,['num_1'],,,,,,0,3,3,3,,,,,,,,,,,,,,,,,['num_1'],4,0.053076124339,1,['num_1'],0,[1.074891928161378],,,,,,,,2018_Apr_03_1241,59.9927393376,sequenceLearningTask,001,051,
min1.png,min2.png,min3.png,min4.png,allBlank.png,,,,['num_4'],,,,,,0,3,3,3,,,,,,,,,,,,,,,,,['num_4'],4,0.0477021734168,1,['num_4'],0,[0.9635249081129587],,,,,,,,2018_Apr_03_1241,59.9927393376,sequenceLearningTask,001,051,
min1.png,min2.png,min3.png,min4.png,allBlank.png,,,,['num_0'],,,,,,0,3,3,3,,,,,,,,,,,,,,,,,['num_0'],4,0.0517440212279,1,['num_0'],0,[0.3770134880069236],,,,,,,,2018_Apr_03_1241,59.9927393376,sequenceLearningTask,001,051,
min1.png,min2.png,min3.png,min4.png,allBlank.png,,,,['num_0'],,,,,,0,3,3,3,,,,,,,,,,,,,,,,,['num_0'],4,0.0523319189051,1,['num_0'],0,[1.9916722017114807],,,,,,,,2018_Apr_03_1241,59.9927393376,sequenceLearningTask,001,051,
min1.png,min2.png,min3.png,min4.png,allBlank.png,,,,['num_4'],,,,,,0,3,3,3,,,,,,,,,,,,,,,,,['num_4'],4,0.0588061779708,1,['num_4'],0,[1.1671114531727653],,,,,,,,2018_Apr_03_1241,59.9927393376,sequenceLearningTask,001,051,
min1.png,min2.png,min3.png,min4.png,allBlank.png,,,,['num_1'],,,,,,0,3,3,3,,,,,,,,,,,,,,,,,['num_1'],4,0.0226244195364,1,['num_1'],0,[1.6046509147290635],,,,,,,,2018_Apr_03_1241,59.9927393376,sequenceLearningTask,001,051,
min1.png,min2.png,min3.png,min4.png,allBlank.png,,,,['num_0'],,,,,,0,3,3,3,,,,,,,,,,,,,,,,,['num_0'],4,0.0246810357658,1,['num_0'],0,[0.3368341894711193],,,,,,,,2018_Apr_03_1241,59.9927393376,sequenceLearningTask,001,051,
min1.png,min2.png,min3.png,min4.png,allBlank.png,,,,['num_7'],,,,,,0,4,4,4,,,,,,,,,,,,,,,,,['num_7'],5,0.028506268105,0,"['num_0', 'num_7']",0,"[0.2316673770928901, 1.1485965737829247]",,,,,,,,2018_Apr_03_1241,59.9927393376,sequenceLearningTask,001,051,
min1.png,min2.png,min3.png,min4.png,allBlank.png,,,,['num_1'],,,,,,0,4,4,4,,,,,,,,,,,,,,,,,['num_1'],5,0.0232615480054,1,['num_1'],0,[0.9705919879343128],,,,,,,,2018_Apr_03_1241,59.9927393376,sequenceLearningTask,001,051,
min1.png,min2.png,min3.png,min4.png,allBlank.png,,,,['num_4'],,,,,,0,4,4,4,,,,,,,,,,,,,,,,,['num_4'],5,0.0223602143014,1,['num_4'],0,[1.254443181309398],,,,,,,,2018_Apr_03_1241,59.9927393376,sequenceLearningTask,001,051,
min1.png,min2.png,min3.png,min4.png,allBlank.png,,,,['num_0'],,,,,,0,4,4,4,,,,,,,,,,,,,,,,,['num_0'],5,0.0243425740882,1,['num_0'],0,[0.6516962673631497],,,,,,,,2018_Apr_03_1241,59.9927393376,sequenceLearningTask,001,051,
min1.png,min2.png,min3.png,min4.png,allBlank.png,,,,['num_0'],,,,,,0,4,4,4,,,,,,,,,,,,,,,,,['num_0'],5,0.0240586765376,1,['num_0'],0,[0.7553016431993456],,,,,,,,2018_Apr_03_1241,59.9927393376,sequenceLearningTask,001,051,
min1.png,min2.png,min3.png,min4.png,allBlank.png,,,,['num_4'],,,,,,0,4,4,4,,,,,,,,,,,,,,,,,['num_4'],5,0.0556078176869,0,"['num_1', 'num_4']",0,"[2.1906622320675524, 3.3037371502523456]",,,,,,,,2018_Apr_03_1241,59.9927393376,sequenceLearningTask,001,051,
min1.png,min2.png,min3.png,min4.png,allBlank.png,,,,['num_1'],,,,,,0,4,4,4,,,,,,,,,,,,,,,,,['num_1'],5,0.0579105878605,1,['num_1'],0,[1.503055796125409],,,,,,,,2018_Apr_03_1241,59.9927393376,sequenceLearningTask,001,051,
min1.png,min2.png,min3.png,min4.png,allBlank.png,,,,['num_0'],,,,,,0,4,4,4,,,,,,,,,,,,,,,,,['num_0'],5,0.048760635389,1,['num_0'],0,[0.3455660904874094],,,,,,,,2018_Apr_03_1241,59.9927393376,sequenceLearningTask,001,051,
min1.png,min2.png,min3.png,min4.png,allBlank.png,,,,['num_7'],,,,,,0,5,5,5,,,,,,,,,,,,,,,,,['num_7'],6,0.0576845364849,1,['num_7'],0,[1.0018441033207637],,,,,,,,2018_Apr_03_1241,59.9927393376,sequenceLearningTask,001,051,
min1.png,min2.png,min3.png,min4.png,allBlank.png,,,,['num_1'],,,,,,0,5,5,5,,,,,,,,,,,,,,,,,['num_1'],6,0.0573366389071,0,"['num_4', 'num_1']",0,"[0.0003072821764362743, 0.07027818267852126]",,,,,,,,2018_Apr_03_1241,59.9927393376,sequenceLearningTask,001,051,
min1.png,min2.png,min3.png,min4.png,allBlank.png,,,,['num_4'],,,,,,0,5,5,5,,,,,,,,,,,,,,,,,['num_4'],6,0.0553403303948,0,"['num_0', 'num_1', 'num_7', 'num_0', 'num_7', 'num_4', 'num_4']",0,"[0.00028717960594804026, 0.1229272299187869, 0.33943398540941416, 0.589423421301035, 0.8069915105606924]",,,,,,,,2018_Apr_03_1241,59.9927393376,sequenceLearningTask,001,051,
min1.png,min2.png,min3.png,min4.png,allBlank.png,,,,['num_0'],,,,,,0,5,5,5,,,,,,,,,,,,,,,,,['num_0'],6,0.0516968417214,0,"['num_7', 'num_0', 'num_7', 'num_1', 'num_0']",0,"[0.00031671807846578304, 0.024579702390838065, 0.1754737130140711, 0.2756932413103641, 0.5920831146995624]",,,,,,,,2018_Apr_03_1241,59.9927393376,sequenceLearningTask,001,051,
min1.png,min2.png,min3.png,min4.png,allBlank.png,,,,['num_0'],,,,,,0,5,5,5,,,,,,,,,,,,,,,,,['num_0'],6,0.0455996084511,1,['num_0'],0,[0.23220973629031505],,,,,,,,2018_Apr_03_1241,59.9927393376,sequenceLearningTask,001,051,
min1.png,min2.png,min3.png,min4.png,allBlank.png,,,,['num_4'],,,,,,0,5,5,5,,,,,,,,,,,,,,,,,['num_4'],6,0.0560184845199,0,"['num_0', 'num_0', 'num_4', 'num_1', 'num_0', 'num_1', 'num_0', 'num_4']",0,"[0.17216745524819999, 0.8724541015199065, 1.1069510182351223, 1.8729472299273766, 1.905380474001504]",,,,,,,,2018_Apr_03_1241,59.9927393376,sequenceLearningTask,001,051,
min1.png,min2.png,min3.png,min4.png,allBlank.png,,,,['num_1'],,,,,,0,5,5,5,,,,,,,,,,,,,,,,,['num_1'],6,0.0541222786142,0,"['num_7', 'num_4', 'num_1', 'num_0', 'num_7', 'num_4', 'num_1', 'num_0', 'num_1']",0,"[0.0003081026898144046, 0.1419569813169801, 0.1893986418053828, 0.5388104774610838]",,,,,,,,2018_Apr_03_1241,59.9927393376,sequenceLearningTask,001,051,
min1.png,min2.png,min3.png,min4.png,allBlank.png,,,,['num_0'],,,,,,0,5,5,5,,,,,,,,,,,,,,,,,['num_0'],6,0.0548406378839,0,"['num_0', 'num_4', 'num_0', 'num_1', 'num_4', 'num_7', 'num_0']",0,"[0.00026871805857808795, 0.1395844675225817, 0.15627698719072214, 0.6231863069479004]",,,,,,,,2018_Apr_03_1241,59.9927393376,sequenceLearningTask,001,051,
min1.png,min2.png,min3.png,min4.png,allBlank.png,,,,['num_7'],,,,,,0,6,6,6,,,,,,,,,,,,,,,,,['num_7'],7,0.0555003304617,0,"['num_4', 'num_1', 'num_7', 'num_0', 'num_1', 'num_0', 'num_1', 'num_7', 'num_4', 'num_1', 'num_7', 'num_4', 'num_0', 'num_7', 'num_4', 'num_1', 'num_0', 'num_7', 'num_4', 'num_1', 'num_0', 'num_0', 'num_7', 'num_4', 'num_1', 'num_7', 'num_0', 'num_1', 'num_4', 'num_7']",0,"[0.00032820526394061744, 0.2860128352876927, 0.30263602159539005, 0.4025728831074957, 0.7523461548098567, 0.7692634950835782, 0.7852774503699038, 1.1871873588461312, 1.6360392352980853, 2.05311181666184, 2.086385266209618, 2.48563014795036, 2.502190154744312, 2.5856166505091096, 2.9685575255625736]",,,,,,,,2018_Apr_03_1241,59.9927393376,sequenceLearningTask,001,051,
min1.png,min2.png,min3.png,min4.png,allBlank.png,,,,['num_1'],,,,,,0,6,6,6,,,,,,,,,,,,,,,,,['num_1'],7,0.0586662804799,0,"['num_0', 'num_1', 'num_7', 'num_4', 'num_1', 'num_0', 'num_7', 'num_7', 'num_0', 'num_1']",0,"[0.0008570259924454149, 0.016973545423752512, 0.45122274921959615, 1.8007014566974249, 2.33503521437342, 2.617621586716268]",,,,,,,,2018_Apr_03_1241,59.9927393376,sequenceLearningTask,001,051,
min1.png,min2.png,min3.png,min4.png,allBlank.png,,,,['num_4'],,,,,,0,6,6,6,,,,,,,,,,,,,,,,,['num_4'],7,0.0567860745796,0,"['num_1', 'num_1', 'num_1', 'num_1', 'num_4']",0,"[0.0004984617426089244, 0.1368197484389384, 0.303515201441769, 0.7704926237911423]",,,,,,,,2018_Apr_03_1241,59.9927393376,sequenceLearningTask,001,051,
min1.png,min2.png,min3.png,min4.png,allBlank.png,,,,['num_0'],,,,,,0,6,6,6,,,,,,,,,,,,,,,,,['num_0'],7,0.053961047779,1,['num_0'],0,[0.9896463547265739],,,,,,,,2018_Apr_03_1241,59.9927393376,sequenceLearningTask,001,051,
min1.png,min2.png,min3.png,min4.png,allBlank.png,,,,['num_0'],,,,,,0,6,6,6,,,,,,,,,,,,,,,,,['num_0'],7,0.0546716121735,1,['num_0'],0,[0.48926871354524337],,,,,,,,2018_Apr_03_1241,59.9927393376,sequenceLearningTask,001,051,
min1.png,min2.png,min3.png,min4.png,allBlank.png,,,,['num_4'],,,,,,0,6,6,6,,,,,,,,,,,,,,,,,['num_4'],7,0.0530962269095,0,"['num_7', 'num_4', 'num_4']",0,"[0.9253099180750723, 1.9758174259750376]",,,,,,,,2018_Apr_03_1241,59.9927393376,sequenceLearningTask,001,051,
min1.png,min2.png,min3.png,min4.png,allBlank.png,,,,['num_1'],,,,,,0,6,6,6,,,,,,,,,,,,,,,,,['num_1'],7,0.0615093585675,1,['num_1'],0,[0.7820799105975311],,,,,,,,2018_Apr_03_1241,59.9927393376,sequenceLearningTask,001,051,
min1.png,min2.png,min3.png,min4.png,allBlank.png,,,,['num_0'],,,,,,0,6,6,6,,,,,,,,,,,,,,,,,['num_0'],7,0.0612738712916,1,['num_0'],0,[0.4167328889161581],,,,,,,,2018_Apr_03_1241,59.9927393376,sequenceLearningTask,001,051,
min1.png,min2.png,min3.png,min4.png,allBlank.png,,,,['num_7'],,,,,,0,7,7,7,,,,,,,,,,,,,,,,,['num_7'],8,0.0499323281783,1,['num_7'],0,[0.7753984719583968],,,,,,,,2018_Apr_03_1241,59.9927393376,sequenceLearningTask,001,051,
min1.png,min2.png,min3.png,min4.png,allBlank.png,,,,['num_1'],,,,,,0,7,7,7,,,,,,,,,,,,,,,,,['num_1'],8,0.0460090445158,1,['num_1'],0,[0.8492073227516812],,,,,,,,2018_Apr_03_1241,59.9927393376,sequenceLearningTask,001,051,
min1.png,min2.png,min3.png,min4.png,allBlank.png,,,,['num_4'],,,,,,0,7,7,7,,,,,,,,,,,,,,,,,['num_4'],8,0.0719446449002,1,['num_4'],0,[0.7549406174111937],,,,,,,,2018_Apr_03_1241,59.9927393376,sequenceLearningTask,001,051,
min1.png,min2.png,min3.png,min4.png,allBlank.png,,,,['num_0'],,,,,,0,7,7,7,,,,,,,,,,,,,,,,,['num_0'],8,0.0607832044243,1,['num_0'],0,[0.4320137156992132],,,,,,,,2018_Apr_03_1241,59.9927393376,sequenceLearningTask,001,051,
min1.png,min2.png,min3.png,min4.png,allBlank.png,,,,['num_0'],,,,,,0,7,7,7,,,,,,,,,,,,,,,,,['num_0'],8,0.0549879199953,1,['num_0'],0,[0.4719891167133028],,,,,,,,2018_Apr_03_1241,59.9927393376,sequenceLearningTask,001,051,
min1.png,min2.png,min3.png,min4.png,allBlank.png,,,,['num_4'],,,,,,0,7,7,7,,,,,,,,,,,,,,,,,['num_4'],8,0.0588767421032,1,['num_4'],0,[1.335366291432365],,,,,,,,2018_Apr_03_1241,59.9927393376,sequenceLearningTask,001,051,
min1.png,min2.png,min3.png,min4.png,allBlank.png,,,,['num_1'],,,,,,0,7,7,7,,,,,,,,,,,,,,,,,['num_1'],8,0.054553458278,1,['num_1'],0,[0.5573983825233881],,,,,,,,2018_Apr_03_1241,59.9927393376,sequenceLearningTask,001,051,
min1.png,min2.png,min3.png,min4.png,allBlank.png,,,,['num_0'],,,,,,0,7,7,7,,,,,,,,,,,,,,,,,['num_0'],8,0.0530802269059,1,['num_0'],0,[0.6412220066540613],,,,,,,,2018_Apr_03_1241,59.9927393376,sequenceLearningTask,001,051,
min1.png,min2.png,min3.png,min4.png,allBlank.png,,,,['num_7'],,,,,,0,8,8,8,,,,,,,,,,,,,,,,,['num_7'],9,0.0533255603386,1,['num_7'],0,[0.722972604296956],,,,,,,,2018_Apr_03_1241,59.9927393376,sequenceLearningTask,001,051,
min1.png,min2.png,min3.png,min4.png,allBlank.png,,,,['num_1'],,,,,,0,8,8,8,,,,,,,,,,,,,,,,,['num_1'],9,0.0541801247928,1,['num_1'],0,[0.9073456030128],,,,,,,,2018_Apr_03_1241,59.9927393376,sequenceLearningTask,001,051,
min1.png,min2.png,min3.png,min4.png,allBlank.png,,,,['num_4'],,,,,,0,8,8,8,,,,,,,,,,,,,,,,,['num_4'],9,0.0557875100658,1,['num_4'],0,[0.7888257595186587],,,,,,,,2018_Apr_03_1241,59.9927393376,sequenceLearningTask,001,051,
min1.png,min2.png,min3.png,min4.png,allBlank.png,,,,['num_0'],,,,,,0,8,8,8,,,,,,,,,,,,,,,,,['num_0'],9,0.0541875094113,1,['num_0'],0,[0.45787875194946537],,,,,,,,2018_Apr_03_1241,59.9927393376,sequenceLearningTask,001,051,
min1.png,min2.png,min3.png,min4.png,allBlank.png,,,,['num_0'],,,,,,0,8,8,8,,,,,,,,,,,,,,,,,['num_0'],9,0.0565091513872,1,['num_0'],0,[0.8719876397899498],,,,,,,,2018_Apr_03_1241,59.9927393376,sequenceLearningTask,001,051,
min1.png,min2.png,min3.png,min4.png,allBlank.png,,,,['num_4'],,,,,,0,8,8,8,,,,,,,,,,,,,,,,,['num_4'],9,0.0509940722022,0,"['num_7', 'num_4', 'num_4']",0,"[1.4585884958305542, 2.2764632929083746]",,,,,,,,2018_Apr_03_1241,59.9927393376,sequenceLearningTask,001,051,
min1.png,min2.png,min3.png,min4.png,allBlank.png,,,,['num_1'],,,,,,0,8,8,8,,,,,,,,,,,,,,,,,['num_1'],9,0.053896637497,0,"['num_4', 'num_1']",0,"[0.0002830770390573889, 0.8569029156533361]",,,,,,,,2018_Apr_03_1241,59.9927393376,sequenceLearningTask,001,051,
min1.png,min2.png,min3.png,min4.png,allBlank.png,,,,['num_0'],,,,,,0,8,8,8,,,,,,,,,,,,,,,,,['num_0'],9,0.0531007397349,0,"['num_0', 'num_1', 'num_1', 'num_4', 'num_1', 'num_0']",0,"[0.0006707695065415464, 0.19103679632280546, 0.5406841192561842, 0.9573443927565677]",,,,,,,,2018_Apr_03_1241,59.9927393376,sequenceLearningTask,001,051,
min1.png,min2.png,min3.png,min4.png,allBlank.png,,,,['num_7'],,,,,,0,9,9,9,,,,,,,,,,,,,,,,,['num_7'],10,0.0474277117646,1,['num_7'],0,[2.3468440397318773],,,,,,,,2018_Apr_03_1241,59.9927393376,sequenceLearningTask,001,051,
min1.png,min2.png,min3.png,min4.png,allBlank.png,,,,['num_1'],,,,,,0,9,9,9,,,,,,,,,,,,,,,,,['num_1'],10,0.0530629961286,1,['num_1'],0,[1.37486456404622],,,,,,,,2018_Apr_03_1241,59.9927393376,sequenceLearningTask,001,051,
min1.png,min2.png,min3.png,min4.png,allBlank.png,,,,['num_4'],,,,,,0,9,9,9,,,,,,,,,,,,,,,,,['num_4'],10,0.0580779725442,1,['num_4'],0,[1.0198047260746534],,,,,,,,2018_Apr_03_1241,59.9927393376,sequenceLearningTask,001,051,
min1.png,min2.png,min3.png,min4.png,allBlank.png,,,,['num_0'],,,,,,0,9,9,9,,,,,,,,,,,,,,,,,['num_0'],10,0.0521452521625,1,['num_0'],0,[0.7255847079322848],,,,,,,,2018_Apr_03_1241,59.9927393376,sequenceLearningTask,001,051,
min1.png,min2.png,min3.png,min4.png,allBlank.png,,,,['num_0'],,,,,,0,9,9,9,,,,,,,,,,,,,,,,,['num_0'],10,0.0526703805826,1,['num_0'],0,[1.357425787662578],,,,,,,,2018_Apr_03_1241,59.9927393376,sequenceLearningTask,001,051,
min1.png,min2.png,min3.png,min4.png,allBlank.png,,,,['num_4'],,,,,,0,9,9,9,,,,,,,,,,,,,,,,,['num_4'],10,0.0518966366762,1,['num_4'],0,[1.859185172999787],,,,,,,,2018_Apr_03_1241,59.9927393376,sequenceLearningTask,001,051,
min1.png,min2.png,min3.png,min4.png,allBlank.png,,,,['num_1'],,,,,,0,9,9,9,,,,,,,,,,,,,,,,,['num_1'],10,0.0559290485871,1,['num_1'],0,[0.688233718250558],,,,,,,,2018_Apr_03_1241,59.9927393376,sequenceLearningTask,001,051,
min1.png,min2.png,min3.png,min4.png,allBlank.png,,,,['num_0'],,,,,,0,9,9,9,,,,,,,,,,,,,,,,,['num_0'],10,0.0520197136484,1,['num_0'],0,[0.6927317713780212],,,,,,,,2018_Apr_03_1241,59.9927393376,sequenceLearningTask,001,051,
min1.png,min2.png,min3.png,min4.png,images/allBlank.png,images/min4.png,'num_0',"['num_7', 'num_4', 'num_1', 'num_0']",['num_0'],num_0,,,,,0,9,9,9,0,0,0,3,,,,,,,,,,,,,['num_0'],,0.056041458889,1,['num_0'],0,[2.5727760298559588],1,,,,,,,2018_Apr_03_1241,59.9927393376,sequenceLearningTask,001,051,
min1.png,min2.png,min3.png,min4.png,images/allBlank.png,images/min3.png,'num_1',"['num_7', 'num_4', 'num_1', 'num_0']",['num_1'],num_1,,,,,0,9,9,9,0,1,1,2,,,,,,,,,,,,,['num_1'],,0.0566203309227,1,['num_1'],0,[1.0673879250825848],1,,,,,,,2018_Apr_03_1241,59.9927393376,sequenceLearningTask,001,051,
min1.png,min2.png,min3.png,min4.png,images/allBlank.png,images/min1.png,'num_7',"['num_7', 'num_4', 'num_1', 'num_0']",['num_7'],num_7,,,,,0,9,9,9,0,2,2,0,,,,,,,,,,,,,['num_7'],,0.0496902767954,1,['num_7'],0,[0.9584245983278379],1,,,,,,,2018_Apr_03_1241,59.9927393376,sequenceLearningTask,001,051,
min1.png,min2.png,min3.png,min4.png,images/allBlank.png,images/min2.png,'num_4',"['num_7', 'num_4', 'num_1', 'num_0']",['num_4'],num_4,,,,,0,9,9,9,0,3,3,1,,,,,,,,,,,,,['num_4'],,0.0571068952231,1,['num_4'],0,[0.6839009985233133],1,,,,,,,2018_Apr_03_1241,59.9927393376,sequenceLearningTask,001,051,
min1.png,min2.png,min3.png,min4.png,images/allBlank.png,images/min1.png,'num_7',"['num_7', 'num_4', 'num_1', 'num_0']",['num_7'],num_7,,,,,0,9,9,9,1,0,4,0,,,,,,,,,,,,,['num_7'],,0.0562982795072,0,"['num_7', 'num_4', 'num_7']",0,"[0.8549131712461531, 1.7852688349812524]",0,,,,,,,2018_Apr_03_1241,59.9927393376,sequenceLearningTask,001,051,
min1.png,min2.png,min3.png,min4.png,images/allBlank.png,images/min4.png,'num_0',"['num_7', 'num_4', 'num_1', 'num_0']",['num_0'],num_0,,,,,0,9,9,9,1,1,5,3,,,,,,,,,,,,,['num_0'],,0.0537994066872,0,"['num_7', 'num_0']",0,"[0.00020717957340821158, 0.640727647478343]",0,,,,,,,2018_Apr_03_1241,59.9927393376,sequenceLearningTask,001,051,
min1.png,min2.png,min3.png,min4.png,images/allBlank.png,images/min2.png,'num_4',"['num_7', 'num_4', 'num_1', 'num_0']",['num_4'],num_4,,,,,0,9,9,9,1,2,6,1,,,,,,,,,,,,,['num_4'],,0.0534268937135,1,['num_4'],0,[0.9395696162337117],1,,,,,,,2018_Apr_03_1241,59.9927393376,sequenceLearningTask,001,051,
min1.png,min2.png,min3.png,min4.png,images/allBlank.png,images/min3.png,'num_1',"['num_7', 'num_4', 'num_1', 'num_0']",['num_1'],num_1,,,,,0,9,9,9,1,3,7,2,,,,,,,,,,,,,['num_1'],,0.0525891497819,1,['num_1'],0,[0.42289001964672934],1,,,,,,,2018_Apr_03_1241,59.9927393376,sequenceLearningTask,001,051,
min1.png,min2.png,min3.png,min4.png,images/allBlank.png,images/min1.png,'num_7',"['num_7', 'num_4', 'num_1', 'num_0']",['num_7'],num_7,,,,,0,9,9,9,2,0,8,0,,,,,,,,,,,,,['num_7'],,0.0603458709102,1,['num_7'],0,[0.7132675746743189],1,,,,,,,2018_Apr_03_1241,59.9927393376,sequenceLearningTask,001,051,
min1.png,min2.png,min3.png,min4.png,images/allBlank.png,images/min4.png,'num_0',"['num_7', 'num_4', 'num_1', 'num_0']",['num_0'],num_0,,,,,0,9,9,9,2,1,9,3,,,,,,,,,,,,,['num_0'],,0.0489251482759,1,['num_0'],0,[0.4271066367618914],1,,,,,,,2018_Apr_03_1241,59.9927393376,sequenceLearningTask,001,051,
min1.png,min2.png,min3.png,min4.png,images/allBlank.png,images/min2.png,'num_4',"['num_7', 'num_4', 'num_1', 'num_0']",['num_4'],num_4,,,,,0,9,9,9,2,2,10,1,,,,,,,,,,,,,['num_4'],,0.0570941772694,1,['num_4'],0,[0.835148240061244],1,,,,,,,2018_Apr_03_1241,59.9927393376,sequenceLearningTask,001,051,
min1.png,min2.png,min3.png,min4.png,images/allBlank.png,images/min3.png,'num_1',"['num_7', 'num_4', 'num_1', 'num_0']",['num_1'],num_1,,,,,0,9,9,9,2,3,11,2,,,,,,,,,,,,,['num_1'],,0.0530453550946,1,['num_1'],0,[0.5224699579357548],1,,,,,,,2018_Apr_03_1241,59.9927393376,sequenceLearningTask,001,051,
min1.png,min2.png,min3.png,min4.png,images/allBlank.png,images/min1.png,'num_7',"['num_7', 'num_4', 'num_1', 'num_0']",['num_7'],num_7,,,,,0,9,9,9,3,0,12,0,,,,,,,,,,,,,['num_7'],,0.0518707905121,1,['num_7'],0,[0.65796621865411],1,,,,,,,2018_Apr_03_1241,59.9927393376,sequenceLearningTask,001,051,
min1.png,min2.png,min3.png,min4.png,images/allBlank.png,images/min3.png,'num_1',"['num_7', 'num_4', 'num_1', 'num_0']",['num_1'],num_1,,,,,0,9,9,9,3,1,13,2,,,,,,,,,,,,,['num_1'],,0.0574211517633,0,"['num_0', 'num_1']",0,"[0.4014065236533497, 1.0014880006092426]",0,,,,,,,2018_Apr_03_1241,59.9927393376,sequenceLearningTask,001,051,
min1.png,min2.png,min3.png,min4.png,images/allBlank.png,images/min4.png,'num_0',"['num_7', 'num_4', 'num_1', 'num_0']",['num_0'],num_0,,,,,0,9,9,9,3,2,14,3,,,,,,,,,,,,,['num_0'],,0.053993868305,1,['num_0'],0,[0.5217840089371748],1,,,,,,,2018_Apr_03_1241,59.9927393376,sequenceLearningTask,001,051,
min1.png,min2.png,min3.png,min4.png,images/allBlank.png,images/min2.png,'num_4',"['num_7', 'num_4', 'num_1', 'num_0']",['num_4'],num_4,,,,,0,9,9,9,3,3,15,1,,,,,,,,,,,,,['num_4'],,0.0533206372602,1,['num_4'],0,[1.0896221906150458],1,,,,,,,2018_Apr_03_1241,59.9927393376,sequenceLearningTask,001,051,
min1.png,min2.png,min3.png,min4.png,images/allBlank.png,images/min4.png,'num_0',"['num_7', 'num_4', 'num_1', 'num_0']",['num_0'],num_0,,,,,0,9,9,9,4,0,16,3,,,,,,,,,,,,,['num_0'],,0.0528673037406,1,['num_0'],0,[0.6224773835801898],1,,,,,,,2018_Apr_03_1241,59.9927393376,sequenceLearningTask,001,051,
min1.png,min2.png,min3.png,min4.png,images/allBlank.png,images/min3.png,'num_1',"['num_7', 'num_4', 'num_1', 'num_0']",['num_1'],num_1,,,,,0,9,9,9,4,1,17,2,,,,,,,,,,,,,['num_1'],,0.05009027696,1,['num_1'],0,[0.5253438052695856],1,,,,,,,2018_Apr_03_1241,59.9927393376,sequenceLearningTask,001,051,
min1.png,min2.png,min3.png,min4.png,images/allBlank.png,images/min2.png,'num_4',"['num_7', 'num_4', 'num_1', 'num_0']",['num_4'],num_4,,,,,0,9,9,9,4,2,18,1,,,,,,,,,,,,,['num_4'],,0.0591548960638,1,['num_4'],0,[0.38248179794027237],1,,,,,,,2018_Apr_03_1241,59.9927393376,sequenceLearningTask,001,051,
min1.png,min2.png,min3.png,min4.png,images/allBlank.png,images/min1.png,'num_7',"['num_7', 'num_4', 'num_1', 'num_0']",['num_7'],num_7,,,,,0,9,9,9,4,3,19,0,,,,,,,,,,,,,['num_7'],,0.0561075101978,1,['num_7'],0,[0.4353392555240134],1,,,,,,,2018_Apr_03_1241,59.9927393376,sequenceLearningTask,001,051,
min1.png,min2.png,min3.png,min4.png,images/allBlank.png,images/min1.png,'num_7',"['num_7', 'num_4', 'num_1', 'num_0']",['num_7'],num_7,,,,,0,9,9,9,5,0,20,0,,,,,,,,,,,,,['num_7'],,0.0471122244562,1,['num_7'],0,[0.7794858582510642],1,,,,,,,2018_Apr_03_1241,59.9927393376,sequenceLearningTask,001,051,
min1.png,min2.png,min3.png,min4.png,images/allBlank.png,images/min4.png,'num_0',"['num_7', 'num_4', 'num_1', 'num_0']",['num_0'],num_0,,,,,0,9,9,9,5,1,21,3,,,,,,,,,,,,,['num_0'],,0.0535819707002,1,['num_0'],0,[0.7054608022390312],1,,,,,,,2018_Apr_03_1241,59.9927393376,sequenceLearningTask,001,051,
min1.png,min2.png,min3.png,min4.png,images/allBlank.png,images/min2.png,'num_4',"['num_7', 'num_4', 'num_1', 'num_0']",['num_4'],num_4,,,,,0,9,9,9,5,2,22,1,,,,,,,,,,,,,['num_4'],,0.0627868975535,0,"['num_1', 'num_4']",0,"[0.7952171467550215, 1.21255106155877]",0,,,,,,,2018_Apr_03_1241,59.9927393376,sequenceLearningTask,001,051,
min1.png,min2.png,min3.png,min4.png,images/allBlank.png,images/min3.png,'num_1',"['num_7', 'num_4', 'num_1', 'num_0']",['num_1'],num_1,,,,,0,9,9,9,5,3,23,2,,,,,,,,,,,,,['num_1'],,0.056197356389,0,"['num_0', 'num_1']",0,"[0.6697820183708245, 1.1696250952300034]",0,,,,,,,2018_Apr_03_1241,59.9927393376,sequenceLearningTask,001,051,
min1.png,min2.png,min3.png,min4.png,images/allBlank.png,images/min1.png,'num_7',"['num_7', 'num_4', 'num_1', 'num_0']",['num_7'],num_7,,,,,0,9,9,9,6,0,24,0,,,,,,,,,,,,,['num_7'],,0.0557464844078,1,['num_7'],0,[0.8878891847762134],1,,,,,,,2018_Apr_03_1241,59.9927393376,sequenceLearningTask,001,051,
min1.png,min2.png,min3.png,min4.png,images/allBlank.png,images/min4.png,'num_0',"['num_7', 'num_4', 'num_1', 'num_0']",['num_0'],num_0,,,,,0,9,9,9,6,1,25,3,,,,,,,,,,,,,['num_0'],,0.0498621743027,1,['num_0'],0,[1.1260693850545067],1,,,,,,,2018_Apr_03_1241,59.9927393376,sequenceLearningTask,001,051,
min1.png,min2.png,min3.png,min4.png,images/allBlank.png,images/min3.png,'num_1',"['num_7', 'num_4', 'num_1', 'num_0']",['num_1'],num_1,,,,,0,9,9,9,6,2,26,2,,,,,,,,,,,,,['num_1'],,0.0386732466341,1,['num_1'],0,[0.8727244606034219],1,,,,,,,2018_Apr_03_1241,59.9927393376,sequenceLearningTask,001,051,
min1.png,min2.png,min3.png,min4.png,images/allBlank.png,images/min2.png,'num_4',"['num_7', 'num_4', 'num_1', 'num_0']",['num_4'],num_4,,,,,0,9,9,9,6,3,27,1,,,,,,,,,,,,,['num_4'],,0.0573965363674,1,['num_4'],0,[0.9521271598478052],1,,,,,,,2018_Apr_03_1241,59.9927393376,sequenceLearningTask,001,051,
min1.png,min2.png,min3.png,min4.png,images/allBlank.png,images/min1.png,'num_7',"['num_7', 'num_4', 'num_1', 'num_0']",['num_7'],num_7,,,,,0,9,9,9,7,0,28,0,,,,,,,,,,,,,['num_7'],,0.0507770464719,1,['num_7'],0,[0.40913042425745516],1,,,,,,,2018_Apr_03_1241,59.9927393376,sequenceLearningTask,001,051,
min1.png,min2.png,min3.png,min4.png,images/allBlank.png,images/min3.png,'num_1',"['num_7', 'num_4', 'num_1', 'num_0']",['num_1'],num_1,,,,,0,9,9,9,7,1,29,2,,,,,,,,,,,,,['num_1'],,0.0484275070467,1,['num_1'],0,[1.210567060745234],1,,,,,,,2018_Apr_03_1241,59.9927393376,sequenceLearningTask,001,051,
min1.png,min2.png,min3.png,min4.png,images/allBlank.png,images/min2.png,'num_4',"['num_7', 'num_4', 'num_1', 'num_0']",['num_4'],num_4,,,,,0,9,9,9,7,2,30,1,,,,,,,,,,,,,['num_4'],,0.0503507898884,1,['num_4'],0,[1.0421583762690716],1,,,,,,,2018_Apr_03_1241,59.9927393376,sequenceLearningTask,001,051,
min1.png,min2.png,min3.png,min4.png,images/allBlank.png,images/min4.png,'num_0',"['num_7', 'num_4', 'num_1', 'num_0']",['num_0'],num_0,,,,,0,9,9,9,7,3,31,3,,,,,,,,,,,,,['num_0'],,0.0588664856878,1,['num_0'],0,[0.7826017569641408],1,,,,,,,2018_Apr_03_1241,59.9927393376,sequenceLearningTask,001,051,
min1.png,min2.png,min3.png,min4.png,images/allBlank.png,images/min2.png,'num_4',"['num_7', 'num_4', 'num_1', 'num_0']",['num_4'],num_4,,,,,0,9,9,9,8,0,32,1,,,,,,,,,,,,,['num_4'],,0.0582564341566,1,['num_4'],0,[1.6171670224266563],1,,,,,,,2018_Apr_03_1241,59.9927393376,sequenceLearningTask,001,051,
min1.png,min2.png,min3.png,min4.png,images/allBlank.png,images/min1.png,'num_7',"['num_7', 'num_4', 'num_1', 'num_0']",['num_7'],num_7,,,,,0,9,9,9,8,1,33,0,,,,,,,,,,,,,['num_7'],,0.0487105840875,0,"['num_7', 'num_0', 'num_7']",0,"[0.9457809008326876, 2.976955067468225]",0,,,,,,,2018_Apr_03_1241,59.9927393376,sequenceLearningTask,001,051,
min1.png,min2.png,min3.png,min4.png,images/allBlank.png,images/min3.png,'num_1',"['num_7', 'num_4', 'num_1', 'num_0']",['num_1'],num_1,,,,,0,9,9,9,8,2,34,2,,,,,,,,,,,,,['num_1'],,0.0517583802084,1,['num_1'],0,[0.9571117772757134],1,,,,,,,2018_Apr_03_1241,59.9927393376,sequenceLearningTask,001,051,
min1.png,min2.png,min3.png,min4.png,images/allBlank.png,images/min4.png,'num_0',"['num_7', 'num_4', 'num_1', 'num_0']",['num_0'],num_0,,,,,0,9,9,9,8,3,35,3,,,,,,,,,,,,,['num_0'],,0.0580947930648,1,['num_0'],0,[0.6857102300346014],1,,,,,,,2018_Apr_03_1241,59.9927393376,sequenceLearningTask,001,051,
min1.png,min2.png,min3.png,min4.png,images/allBlank.png,images/min2.png,'num_4',"['num_7', 'num_4', 'num_1', 'num_0']",['num_4'],num_4,,,,,0,9,9,9,9,0,36,1,,,,,,,,,,,,,['num_4'],,0.0492041227499,1,['num_4'],0,[1.4948055363311141],1,,,,,,,2018_Apr_03_1241,59.9927393376,sequenceLearningTask,001,051,
min1.png,min2.png,min3.png,min4.png,images/allBlank.png,images/min1.png,'num_7',"['num_7', 'num_4', 'num_1', 'num_0']",['num_7'],num_7,,,,,0,9,9,9,9,1,37,0,,,,,,,,,,,,,['num_7'],,0.049808430691,1,['num_7'],0,[0.8923380071137217],1,,,,,,,2018_Apr_03_1241,59.9927393376,sequenceLearningTask,001,051,
min1.png,min2.png,min3.png,min4.png,images/allBlank.png,images/min4.png,'num_0',"['num_7', 'num_4', 'num_1', 'num_0']",['num_0'],num_0,,,,,0,9,9,9,9,2,38,3,,,,,,,,,,,,,['num_0'],,0.0557813562173,1,['num_0'],0,[0.7029057242689305],1,,,,,,,2018_Apr_03_1241,59.9927393376,sequenceLearningTask,001,051,
min1.png,min2.png,min3.png,min4.png,images/allBlank.png,images/min3.png,'num_1',"['num_7', 'num_4', 'num_1', 'num_0']",['num_1'],num_1,,,,,0,9,9,9,9,3,39,2,,,,,,,,,,,,,['num_1'],,0.0569571515734,1,['num_1'],0,[0.701350031324182],1,,,,,,,2018_Apr_03_1241,59.9927393376,sequenceLearningTask,001,051,
min1.png,min2.png,min3.png,min4.png,images/allBlank.png,images/min4.png,'num_0',"['num_7', 'num_4', 'num_1', 'num_0']",['num_0'],num_0,,,,,0,9,9,9,10,0,40,3,,,,,,,,,,,,,['num_0'],,0.0491073021967,1,['num_0'],0,[1.2278015293541102],1,,,,,,,2018_Apr_03_1241,59.9927393376,sequenceLearningTask,001,051,
min1.png,min2.png,min3.png,min4.png,images/allBlank.png,images/min1.png,'num_7',"['num_7', 'num_4', 'num_1', 'num_0']",['num_7'],num_7,,,,,0,9,9,9,10,1,41,0,,,,,,,,,,,,,['num_7'],,0.0548348942903,1,['num_7'],0,[2.1539840631721745],1,,,,,,,2018_Apr_03_1241,59.9927393376,sequenceLearningTask,001,051,
min1.png,min2.png,min3.png,min4.png,images/allBlank.png,images/min3.png,'num_1',"['num_7', 'num_4', 'num_1', 'num_0']",['num_1'],num_1,,,,,0,9,9,9,10,2,42,2,,,,,,,,,,,,,['num_1'],,0.0510166363147,1,['num_1'],0,[1.226034964525752],1,,,,,,,2018_Apr_03_1241,59.9927393376,sequenceLearningTask,001,051,
min1.png,min2.png,min3.png,min4.png,images/allBlank.png,images/min2.png,'num_4',"['num_7', 'num_4', 'num_1', 'num_0']",['num_4'],num_4,,,,,0,9,9,9,10,3,43,1,,,,,,,,,,,,,['num_4'],,0.0551832021265,0,"['num_7', 'num_4']",0,"[0.820298182687111, 1.2199012184210005]",0,,,,,,,2018_Apr_03_1241,59.9927393376,sequenceLearningTask,001,051,
min1.png,min2.png,min3.png,min4.png,images/allBlank.png,images/min2.png,'num_4',"['num_7', 'num_4', 'num_1', 'num_0']",['num_4'],num_4,,,,,0,9,9,9,11,0,44,1,,,,,,,,,,,,,['num_4'],,0.049890482007,0,"['num_7', 'num_4']",0,"[0.00021497444686247036, 0.9425788482367352]",0,,,,,,,2018_Apr_03_1241,59.9927393376,sequenceLearningTask,001,051,
min1.png,min2.png,min3.png,min4.png,images/allBlank.png,images/min4.png,'num_0',"['num_7', 'num_4', 'num_1', 'num_0']",['num_0'],num_0,,,,,0,9,9,9,11,1,45,3,,,,,,,,,,,,,['num_0'],,0.0502675078023,1,['num_0'],0,[0.9428873611850577],1,,,,,,,2018_Apr_03_1241,59.9927393376,sequenceLearningTask,001,051,
min1.png,min2.png,min3.png,min4.png,images/allBlank.png,images/min1.png,'num_7',"['num_7', 'num_4', 'num_1', 'num_0']",['num_7'],num_7,,,,,0,9,9,9,11,2,46,0,,,,,,,,,,,,,['num_7'],,0.0524057650891,1,['num_7'],0,[0.873130204361587],1,,,,,,,2018_Apr_03_1241,59.9927393376,sequenceLearningTask,001,051,
min1.png,min2.png,min3.png,min4.png,images/allBlank.png,images/min3.png,'num_1',"['num_7', 'num_4', 'num_1', 'num_0']",['num_1'],num_1,,,,,0,9,9,9,11,3,47,2,,,,,,,,,,,,,['num_1'],,0.0519651495251,1,['num_1'],0,[1.041250888718423],1,,,,,,,2018_Apr_03_1241,59.9927393376,sequenceLearningTask,001,051,
min1.png,min2.png,min3.png,min4.png,images/allBlank.png,images/min2.png,'num_4',"['num_7', 'num_4', 'num_1', 'num_0']",['num_4'],num_4,,,,,0,9,9,9,12,0,48,1,,,,,,,,,,,,,['num_4'],,0.0535335604236,1,['num_4'],0,[0.7546981557734398],1,,,,,,,2018_Apr_03_1241,59.9927393376,sequenceLearningTask,001,051,
min1.png,min2.png,min3.png,min4.png,images/allBlank.png,images/min4.png,'num_0',"['num_7', 'num_4', 'num_1', 'num_0']",['num_0'],num_0,,,,,0,9,9,9,12,1,49,3,,,,,,,,,,,,,['num_0'],,0.0493715074335,1,['num_0'],0,[0.4262007902361802],1,,,,,,,2018_Apr_03_1241,59.9927393376,sequenceLearningTask,001,051,
min1.png,min2.png,min3.png,min4.png,images/allBlank.png,images/min1.png,'num_7',"['num_7', 'num_4', 'num_1', 'num_0']",['num_7'],num_7,,,,,0,9,9,9,12,2,50,0,,,,,,,,,,,,,['num_7'],,0.0520090469781,1,['num_7'],0,[0.95765823903821],1,,,,,,,2018_Apr_03_1241,59.9927393376,sequenceLearningTask,001,051,
min1.png,min2.png,min3.png,min4.png,images/allBlank.png,images/min3.png,'num_1',"['num_7', 'num_4', 'num_1', 'num_0']",['num_1'],num_1,,,,,0,9,9,9,12,3,51,2,,,,,,,,,,,,,['num_1'],,0.0583089470001,0,"['num_4', 'num_1']",0,"[0.416488786251648, 0.9336241778983094]",0,,,,,,,2018_Apr_03_1241,59.9927393376,sequenceLearningTask,001,051,
min1.png,min2.png,min3.png,min4.png,images/allBlank.png,images/min1.png,'num_7',"['num_7', 'num_4', 'num_1', 'num_0']",['num_7'],num_7,,,,,0,9,9,9,13,0,52,0,,,,,,,,,,,,,['num_7'],,0.0748275178794,0,"['num_0', 'num_0', 'num_1', 'num_4', 'num_7']",0,"[0.00016574365872656927, 0.43227710042083345, 0.8171917198742449, 1.166722119680344, 1.434805921971929]",0,,,,,,,2018_Apr_03_1241,59.9927393376,sequenceLearningTask,001,051,
min1.png,min2.png,min3.png,min4.png,images/allBlank.png,images/min2.png,'num_4',"['num_7', 'num_4', 'num_1', 'num_0']",['num_4'],num_4,,,,,0,9,9,9,13,1,53,1,,,,,,,,,,,,,['num_4'],,0.128454616803,0,"['num_4', 'num_1', 'num_0', 'num_1', 'num_4']",0,"[0.0003314873156341491, 0.36324117466392636, 0.7807510895399901, 1.1646737085848144]",0,,,,,,,2018_Apr_03_1241,59.9927393376,sequenceLearningTask,001,051,
min1.png,min2.png,min3.png,min4.png,images/allBlank.png,images/min3.png,'num_1',"['num_7', 'num_4', 'num_1', 'num_0']",['num_1'],num_1,,,,,0,9,9,9,13,2,54,2,,,,,,,,,,,,,['num_1'],,0.0547786891402,0,"['num_7', 'num_4', 'num_1']",0,"[0.00019979495300503913, 0.15418837094875926, 0.5041934376167774]",0,,,,,,,2018_Apr_03_1241,59.9927393376,sequenceLearningTask,001,051,
min1.png,min2.png,min3.png,min4.png,images/allBlank.png,images/min4.png,'num_0',"['num_7', 'num_4', 'num_1', 'num_0']",['num_0'],num_0,,,,,0,9,9,9,13,3,55,3,,,,,,,,,,,,,['num_0'],,0.0506543797565,0,"['num_0', 'num_0']",0,"[0.0002281026572745759, 0.07427736380486749]",0,,,,,,,2018_Apr_03_1241,59.9927393376,sequenceLearningTask,001,051,
min1.png,min2.png,min3.png,min4.png,images/allBlank.png,images/min4.png,'num_0',"['num_7', 'num_4', 'num_1', 'num_0']",['num_0'],num_0,,,,,0,9,9,9,14,0,56,3,,,,,,,,,,,,,['num_0'],,0.0475450451468,0,"['num_4', 'num_1', 'num_4', 'num_7', 'num_4', 'num_7', 'num_4', 'num_1', 'num_1', 'num_0']",0,"[0.0004032822162116645, 0.27788401144061936, 0.5780683397206303, 0.8277591088244662, 1.1602979119179508, 1.4447817209365894, 1.6444679567048297, 1.8441386027243425]",0,,,,,,,2018_Apr_03_1241,59.9927393376,sequenceLearningTask,001,051,
min1.png,min2.png,min3.png,min4.png,images/allBlank.png,images/min3.png,'num_1',"['num_7', 'num_4', 'num_1', 'num_0']",['num_1'],num_1,,,,,0,9,9,9,14,1,57,2,,,,,,,,,,,,,['num_1'],,0.0582010495182,0,"['num_0', 'num_1']",0,"[0.3997092921890726, 0.7160766014676483]",0,,,,,,,2018_Apr_03_1241,59.9927393376,sequenceLearningTask,001,051,
min1.png,min2.png,min3.png,min4.png,images/allBlank.png,images/min1.png,'num_7',"['num_7', 'num_4', 'num_1', 'num_0']",['num_7'],num_7,,,,,0,9,9,9,14,2,58,0,,,,,,,,,,,,,['num_7'],,0.0502937642232,0,"['num_1', 'num_1', 'num_4', 'num_7']",0,"[0.0005792822885268833, 0.44200100184752955, 0.7259116824261582]",0,,,,,,,2018_Apr_03_1241,59.9927393376,sequenceLearningTask,001,051,
min1.png,min2.png,min3.png,min4.png,images/allBlank.png,images/min2.png,'num_4',"['num_7', 'num_4', 'num_1', 'num_0']",['num_4'],num_4,,,,,0,9,9,9,14,3,59,1,,,,,,,,,,,,,['num_4'],,0.0534088424247,0,"['num_7', 'num_7', 'num_4']",0,"[0.0005801028019050136, 0.20557587921030063]",0,,,,,,,2018_Apr_03_1241,59.9927393376,sequenceLearningTask,001,051,
min1.png,min2.png,min3.png,min4.png,images/allBlank.png,images/min3.png,'num_1',"['num_7', 'num_4', 'num_1', 'num_0']",['num_1'],num_1,,,,,0,9,9,9,15,0,60,2,,,,,,,,,,,,,['num_1'],,0.0495557126396,0,"['num_1', 'num_1', 'num_0', 'num_0', 'num_0', 'num_0', 'num_1', 'num_0', 'num_1']",0,"[0.0010810260846483288, 0.37601902605820214, 0.6256195387159096, 0.8253911078518286, 1.0453087365367537, 1.2762577543617226]",0,,,,,,,2018_Apr_03_1241,59.9927393376,sequenceLearningTask,001,051,
min1.png,min2.png,min3.png,min4.png,images/allBlank.png,images/min2.png,'num_4',"['num_7', 'num_4', 'num_1', 'num_0']",['num_4'],num_4,,,,,0,9,9,9,15,1,61,1,,,,,,,,,,,,,['num_4'],,0.047376429693,0,"['num_1', 'num_1', 'num_7', 'num_7', 'num_7', 'num_4']",0,"[0.00016533340203750413, 0.07884228875627741, 0.3460263983706682, 0.5790623914108437, 0.5957467059488408]",0,,,,,,,2018_Apr_03_1241,59.9927393376,sequenceLearningTask,001,051,
min1.png,min2.png,min3.png,min4.png,images/allBlank.png,images/min4.png,'num_0',"['num_7', 'num_4', 'num_1', 'num_0']",['num_0'],num_0,,,,,0,9,9,9,15,2,62,3,,,,,,,,,,,,,['num_0'],,0.0509493542359,0,"['num_4', 'num_1', 'num_1', 'num_0']",0,"[0.00020266674982849509, 0.4085544240224408, 0.4253347385983943]",0,,,,,,,2018_Apr_03_1241,59.9927393376,sequenceLearningTask,001,051,
min1.png,min2.png,min3.png,min4.png,images/allBlank.png,images/min1.png,'num_7',"['num_7', 'num_4', 'num_1', 'num_0']",['num_7'],num_7,,,,,0,9,9,9,15,3,63,0,,,,,,,,,,,,,['num_7'],,0.0546510993445,0,"['num_0', 'num_0', 'num_1', 'num_4', 'num_4', 'num_4', 'num_4', 'num_7']",0,"[0.00019651290131150745, 0.17091494191481615, 0.40429431971097074, 0.6564474487986445, 0.954496391588691, 1.4540194683158916, 1.7377176359859732]",0,,,,,,,2018_Apr_03_1241,59.9927393376,sequenceLearningTask,001,051,
min1.png,min2.png,min3.png,min4.png,images/allBlank.png,images/min1.png,'num_7',"['num_7', 'num_4', 'num_1', 'num_0']",['num_7'],num_7,,,,,0,9,9,9,16,0,64,0,,,,,,,,,,,,,['num_7'],,0.0473809425166,0,"['num_7', 'num_4', 'num_1', 'num_1', 'num_0', 'num_0', 'num_1', 'num_4', 'num_7']",0,"[0.0002121026500390144, 0.026802472535564448, 0.29561653153541556, 0.5444732490159367, 0.777694678028638, 1.077866698613434, 1.3446208593322808, 1.6278964627272217]",0,,,,,,,2018_Apr_03_1241,59.9927393376,sequenceLearningTask,001,051,
min1.png,min2.png,min3.png,min4.png,images/allBlank.png,images/min3.png,'num_1',"['num_7', 'num_4', 'num_1', 'num_0']",['num_1'],num_1,,,,,0,9,9,9,16,1,65,2,,,,,,,,,,,,,['num_1'],,0.0509760209134,0,"['num_7', 'num_4', 'num_4', 'num_1', 'num_1']",0,"[0.0006806156634411309, 0.20668849505091202]",0,,,,,,,2018_Apr_03_1241,59.9927393376,sequenceLearningTask,001,051,
min1.png,min2.png,min3.png,min4.png,images/allBlank.png,images/min4.png,'num_0',"['num_7', 'num_4', 'num_1', 'num_0']",['num_0'],num_0,,,,,0,9,9,9,16,2,66,3,,,,,,,,,,,,,['num_0'],,0.0455897622924,0,"['num_0', 'num_0', 'num_1', 'num_4', 'num_7', 'num_7', 'num_0']",0,"[0.00015548724331893027, 0.03019898674756405, 0.29786801963746257, 0.5976388092876732, 0.8978210862860578, 1.1652640678003081, 5.5311620640659385]",0,,,,,,,2018_Apr_03_1241,59.9927393376,sequenceLearningTask,001,051,
min1.png,min2.png,min3.png,min4.png,images/allBlank.png,images/min2.png,'num_4',"['num_7', 'num_4', 'num_1', 'num_0']",['num_4'],num_4,,,,,0,9,9,9,16,3,67,1,,,,,,,,,,,,,['num_4'],,0.0588882292868,1,['num_4'],0,[1.667583453367115],1,,,,,,,2018_Apr_03_1241,59.9927393376,sequenceLearningTask,001,051,
min1.png,min2.png,min3.png,min4.png,images/allBlank.png,images/min2.png,'num_4',"['num_7', 'num_4', 'num_1', 'num_0']",['num_4'],num_4,,,,,0,9,9,9,17,0,68,1,,,,,,,,,,,,,['num_4'],,0.0582609469784,0,"['num_1', 'num_4']",0,"[0.0002510770264052553, 0.9833197880288935]",0,,,,,,,2018_Apr_03_1241,59.9927393376,sequenceLearningTask,001,051,
min1.png,min2.png,min3.png,min4.png,images/allBlank.png,images/min3.png,'num_1',"['num_7', 'num_4', 'num_1', 'num_0']",['num_1'],num_1,,,,,0,9,9,9,17,1,69,2,,,,,,,,,,,,,['num_1'],,0.0505403284278,1,['num_1'],0,[0.8906046730699018],1,,,,,,,2018_Apr_03_1241,59.9927393376,sequenceLearningTask,001,051,
min1.png,min2.png,min3.png,min4.png,images/allBlank.png,images/min4.png,'num_0',"['num_7', 'num_4', 'num_1', 'num_0']",['num_0'],num_0,,,,,0,9,9,9,17,2,70,3,,,,,,,,,,,,,['num_0'],,0.0541300734894,1,['num_0'],0,[0.9551622380149638],1,,,,,,,2018_Apr_03_1241,59.9927393376,sequenceLearningTask,001,051,
min1.png,min2.png,min3.png,min4.png,images/allBlank.png,images/min1.png,'num_7',"['num_7', 'num_4', 'num_1', 'num_0']",['num_7'],num_7,,,,,0,9,9,9,17,3,71,0,,,,,,,,,,,,,['num_7'],,0.0549128430412,1,['num_7'],0,[1.1705592494599841],1,,,,,,,2018_Apr_03_1241,59.9927393376,sequenceLearningTask,001,051,
min1.png,min2.png,min3.png,min4.png,images/allBlank.png,images/min2.png,'num_4',"['num_7', 'num_4', 'num_1', 'num_0']",['num_4'],num_4,,,,,0,9,9,9,18,0,72,1,,,,,,,,,,,,,['num_4'],,0.0508270977753,1,['num_4'],0,[0.8075736646460427],1,,,,,,,2018_Apr_03_1241,59.9927393376,sequenceLearningTask,001,051,
min1.png,min2.png,min3.png,min4.png,images/allBlank.png,images/min1.png,'num_7',"['num_7', 'num_4', 'num_1', 'num_0']",['num_7'],num_7,,,,,0,9,9,9,18,1,73,0,,,,,,,,,,,,,['num_7'],,0.0540086375422,1,['num_7'],0,[1.136761081748773],1,,,,,,,2018_Apr_03_1241,59.9927393376,sequenceLearningTask,001,051,
min1.png,min2.png,min3.png,min4.png,images/allBlank.png,images/min4.png,'num_0',"['num_7', 'num_4', 'num_1', 'num_0']",['num_0'],num_0,,,,,0,9,9,9,18,2,74,3,,,,,,,,,,,,,['num_0'],,0.0493620715333,0,"['num_1', 'num_0']",0,"[0.8426464995463903, 1.7269664520881634]",0,,,,,,,2018_Apr_03_1241,59.9927393376,sequenceLearningTask,001,051,
min1.png,min2.png,min3.png,min4.png,images/allBlank.png,images/min3.png,'num_1',"['num_7', 'num_4', 'num_1', 'num_0']",['num_1'],num_1,,,,,0,9,9,9,18,3,75,2,,,,,,,,,,,,,['num_1'],,0.0525345856568,0,"['num_0', 'num_0', 'num_0', 'num_1', 'num_0', 'num_1']",0,"[0.25681405407885904, 0.5565319206289132, 0.8231572607837734, 1.1571500131904031, 1.474074040646883]",0,,,,,,,2018_Apr_03_1241,59.9927393376,sequenceLearningTask,001,051,
min1.png,min2.png,min3.png,min4.png,images/allBlank.png,images/min2.png,'num_4',"['num_7', 'num_4', 'num_1', 'num_0']",['num_4'],num_4,,,,,0,9,9,9,19,0,76,1,,,,,,,,,,,,,['num_4'],,0.0502162257289,0,"['num_1', 'num_1', 'num_4']",0,"[0.0002383590708632255, 0.09232290967156587, 0.4084584239826654]",0,,,,,,,2018_Apr_03_1241,59.9927393376,sequenceLearningTask,001,051,
min1.png,min2.png,min3.png,min4.png,images/allBlank.png,images/min4.png,'num_0',"['num_7', 'num_4', 'num_1', 'num_0']",['num_0'],num_0,,,,,0,9,9,9,19,1,77,3,,,,,,,,,,,,,['num_0'],,0.047916737607,0,"['num_7', 'num_4', 'num_7', 'num_1', 'num_0', 'num_0', 'num_1', 'num_0', 'num_1', 'num_0']",0,"[0.0002395898409304209, 0.11088825061960961, 0.4616485996502888, 0.7472983578645653, 1.0303212432081637, 1.3608268146981572, 1.710860599327134]",0,,,,,,,2018_Apr_03_1241,59.9927393376,sequenceLearningTask,001,051,
min1.png,min2.png,min3.png,min4.png,images/allBlank.png,images/min3.png,'num_1',"['num_7', 'num_4', 'num_1', 'num_0']",['num_1'],num_1,,,,,0,9,9,9,19,2,78,2,,,,,,,,,,,,,['num_1'],,0.0403848370806,0,"['num_7', 'num_4', 'num_7', 'num_0', 'num_1']",0,"[0.2838265779791982, 0.3850454913008434, 1.2191401924683305, 1.6022784009346651, 2.5028531293755805]",0,,,,,,,2018_Apr_03_1241,59.9927393376,sequenceLearningTask,001,051,
min1.png,min2.png,min3.png,min4.png,images/allBlank.png,images/min1.png,'num_7',"['num_7', 'num_4', 'num_1', 'num_0']",['num_7'],num_7,,,,,0,9,9,9,19,3,79,0,,,,,,,,,,,,,['num_7'],,0.0559856639939,0,"['num_4', 'num_7']",0,"[0.0002235898355138488, 0.6854287940204813]",0,,,,,,,2018_Apr_03_1241,59.9927393376,sequenceLearningTask,001,051,
min1.png,min2.png,min3.png,min4.png,allBlank.png,,,,['num_7'],,,,,,0,0,0,0,,,,,,,,,,,,,,,,,['num_7'],1,0.0541538683719,0,"['num_4', 'num_7', 'num_7', 'num_7']",0,"[0.00027897447216673754, 1.40223770348166]",,,,,,,,2018_Apr_03_1241,59.9927393376,sequenceLearningTask,001,051,
min1.png,min2.png,min3.png,min4.png,allBlank.png,,,,['num_1'],,,,,,0,0,0,0,,,,,,,,,,,,,,,,,['num_1'],1,0.0518625853801,1,['num_1'],0,[0.8254895694317383],,,,,,,,2018_Apr_03_1241,59.9927393376,sequenceLearningTask,001,051,
min1.png,min2.png,min3.png,min4.png,allBlank.png,,,,['num_4'],,,,,,0,0,0,0,,,,,,,,,,,,,,,,,['num_4'],1,0.0583807418989,1,['num_4'],0,[1.0353341683421604],,,,,,,,2018_Apr_03_1241,59.9927393376,sequenceLearningTask,001,051,
min1.png,min2.png,min3.png,min4.png,allBlank.png,,,,['num_0'],,,,,,0,0,0,0,,,,,,,,,,,,,,,,,['num_0'],1,0.054510791595,1,['num_0'],0,[0.68956212905141],,,,,,,,2018_Apr_03_1241,59.9927393376,sequenceLearningTask,001,051,
min1.png,min2.png,min3.png,min4.png,allBlank.png,,,,['num_0'],,,,,,0,0,0,0,,,,,,,,,,,,,,,,,['num_0'],1,0.0512127389593,1,['num_0'],0,[0.7776216523579933],,,,,,,,2018_Apr_03_1241,59.9927393376,sequenceLearningTask,001,051,
min1.png,min2.png,min3.png,min4.png,allBlank.png,,,,['num_4'],,,,,,0,0,0,0,,,,,,,,,,,,,,,,,['num_4'],1,0.0588574600442,1,['num_4'],0,[1.7529254370983836],,,,,,,,2018_Apr_03_1241,59.9927393376,sequenceLearningTask,001,051,
min1.png,min2.png,min3.png,min4.png,allBlank.png,,,,['num_1'],,,,,,0,0,0,0,,,,,,,,,,,,,,,,,['num_1'],1,0.0578338698815,1,['num_1'],0,[0.9527417242024967],,,,,,,,2018_Apr_03_1241,59.9927393376,sequenceLearningTask,001,051,
min1.png,min2.png,min3.png,min4.png,allBlank.png,,,,['num_0'],,,,,,0,0,0,0,,,,,,,,,,,,,,,,,['num_0'],1,0.0513050466907,1,['num_0'],0,[0.47642563135377713],,,,,,,,2018_Apr_03_1241,59.9927393376,sequenceLearningTask,001,051,
min1.png,min2.png,min3.png,min4.png,allBlank.png,,,,['num_7'],,,,,,0,1,1,1,,,,,,,,,,,,,,,,,['num_7'],2,0.0552225867577,1,['num_7'],0,[0.4370668459760054],,,,,,,,2018_Apr_03_1241,59.9927393376,sequenceLearningTask,001,051,
min1.png,min2.png,min3.png,min4.png,allBlank.png,,,,['num_1'],,,,,,0,1,1,1,,,,,,,,,,,,,,,,,['num_1'],2,0.0531659705302,1,['num_1'],0,[0.9080344238082034],,,,,,,,2018_Apr_03_1241,59.9927393376,sequenceLearningTask,001,051,
min1.png,min2.png,min3.png,min4.png,allBlank.png,,,,['num_4'],,,,,,0,1,1,1,,,,,,,,,,,,,,,,,['num_4'],2,0.0529456627482,1,['num_4'],0,[0.8242374663532246],,,,,,,,2018_Apr_03_1241,59.9927393376,sequenceLearningTask,001,051,
min1.png,min2.png,min3.png,min4.png,allBlank.png,,,,['num_0'],,,,,,0,1,1,1,,,,,,,,,,,,,,,,,['num_0'],2,0.0511278158465,1,['num_0'],0,[0.5442935566334199],,,,,,,,2018_Apr_03_1241,59.9927393376,sequenceLearningTask,001,051,
min1.png,min2.png,min3.png,min4.png,allBlank.png,,,,['num_0'],,,,,,0,1,1,1,,,,,,,,,,,,,,,,,['num_0'],2,0.0583733572821,1,['num_0'],0,[1.9859556865449122],,,,,,,,2018_Apr_03_1241,59.9927393376,sequenceLearningTask,001,051,
min1.png,min2.png,min3.png,min4.png,allBlank.png,,,,['num_4'],,,,,,0,1,1,1,,,,,,,,,,,,,,,,,['num_4'],2,0.0559860742505,1,['num_4'],0,[0.8884372875636473],,,,,,,,2018_Apr_03_1241,59.9927393376,sequenceLearningTask,001,051,
min1.png,min2.png,min3.png,min4.png,allBlank.png,,,,['num_1'],,,,,,0,1,1,1,,,,,,,,,,,,,,,,,['num_1'],2,0.0537505861539,1,['num_1'],0,[0.7234554762890184],,,,,,,,2018_Apr_03_1241,59.9927393376,sequenceLearningTask,001,051,
min1.png,min2.png,min3.png,min4.png,allBlank.png,,,,['num_0'],,,,,,0,1,1,1,,,,,,,,,,,,,,,,,['num_0'],2,0.0572348952755,1,['num_0'],0,[0.6031387089788041],,,,,,,,2018_Apr_03_1241,59.9927393376,sequenceLearningTask,001,051,
min1.png,min2.png,min3.png,min4.png,allBlank.png,,,,['num_7'],,,,,,0,2,2,2,,,,,,,,,,,,,,,,,['num_7'],3,0.0458137623846,1,['num_7'],0,[0.61437071358705],,,,,,,,2018_Apr_03_1241,59.9927393376,sequenceLearningTask,001,051,
min1.png,min2.png,min3.png,min4.png,allBlank.png,,,,['num_1'],,,,,,0,2,2,2,,,,,,,,,,,,,,,,,['num_1'],3,0.085386291441,0,"['num_1', 'num_0', 'num_1']",0,"[0.9229636607033171, 3.521130880462806]",,,,,,,,2018_Apr_03_1241,59.9927393376,sequenceLearningTask,001,051,
min1.png,min2.png,min3.png,min4.png,allBlank.png,,,,['num_4'],,,,,,0,2,2,2,,,,,,,,,,,,,,,,,['num_4'],3,0.0549961251272,1,['num_4'],0,[0.8231847479728458],,,,,,,,2018_Apr_03_1241,59.9927393376,sequenceLearningTask,001,051,
min1.png,min2.png,min3.png,min4.png,allBlank.png,,,,['num_0'],,,,,,0,2,2,2,,,,,,,,,,,,,,,,,['num_0'],3,0.0553870996464,1,['num_0'],0,[0.921366121585379],,,,,,,,2018_Apr_03_1241,59.9927393376,sequenceLearningTask,001,051,
min1.png,min2.png,min3.png,min4.png,allBlank.png,,,,['num_0'],,,,,,0,2,2,2,,,,,,,,,,,,,,,,,['num_0'],3,0.0491967381331,1,['num_0'],0,[0.8450329620645789],,,,,,,,2018_Apr_03_1241,59.9927393376,sequenceLearningTask,001,051,
min1.png,min2.png,min3.png,min4.png,allBlank.png,,,,['num_4'],,,,,,0,2,2,2,,,,,,,,,,,,,,,,,['num_4'],3,0.0516102775837,1,['num_4'],0,[0.8261246466154262],,,,,,,,2018_Apr_03_1241,59.9927393376,sequenceLearningTask,001,051,
min1.png,min2.png,min3.png,min4.png,allBlank.png,,,,['num_1'],,,,,,0,2,2,2,,,,,,,,,,,,,,,,,['num_1'],3,0.0521710983267,1,['num_1'],0,[0.6918612069166556],,,,,,,,2018_Apr_03_1241,59.9927393376,sequenceLearningTask,001,051,
min1.png,min2.png,min3.png,min4.png,allBlank.png,,,,['num_0'],,,,,,0,2,2,2,,,,,,,,,,,,,,,,,['num_0'],3,0.0572730491385,1,['num_0'],0,[0.652889703749679],,,,,,,,2018_Apr_03_1241,59.9927393376,sequenceLearningTask,001,051,
min1.png,min2.png,min3.png,min4.png,allBlank.png,,,,['num_7'],,,,,,0,3,3,3,,,,,,,,,,,,,,,,,['num_7'],4,0.0487729430861,1,['num_7'],0,[0.7614969277929049],,,,,,,,2018_Apr_03_1241,59.9927393376,sequenceLearningTask,001,051,
min1.png,min2.png,min3.png,min4.png,allBlank.png,,,,['num_1'],,,,,,0,3,3,3,,,,,,,,,,,,,,,,,['num_1'],4,0.052035303399,0,"['num_1', 'num_0', 'num_1']",0,"[0.7437397923040407, 1.791808735100858]",,,,,,,,2018_Apr_03_1241,59.9927393376,sequenceLearningTask,001,051,
min1.png,min2.png,min3.png,min4.png,allBlank.png,,,,['num_4'],,,,,,0,3,3,3,,,,,,,,,,,,,,,,,['num_4'],4,0.0499224820196,0,"['num_1', 'num_1', 'num_1', 'num_1', 'num_1', 'num_4']",0,"[0.00033517962583573535, 0.045813352127879625, 0.2779471909525455, 0.44495731075221556, 0.6278615909177461, 1.044680223458272]",,,,,,,,2018_Apr_03_1241,59.9927393376,sequenceLearningTask,001,051,
min1.png,min2.png,min3.png,min4.png,allBlank.png,,,,['num_0'],,,,,,0,3,3,3,,,,,,,,,,,,,,,,,['num_0'],4,0.0546855608955,0,"['num_4', 'num_4', 'num_4', 'num_4', 'num_1', 'num_0']",0,"[0.00031138474150793627, 0.05583674085573875, 0.23924932892259676, 0.4724280912523682, 0.7393250212608109]",,,,,,,,2018_Apr_03_1241,59.9927393376,sequenceLearningTask,001,051,
min1.png,min2.png,min3.png,min4.png,allBlank.png,,,,['num_0'],,,,,,0,3,3,3,,,,,,,,,,,,,,,,,['num_0'],4,0.0537645348777,0,"['num_0', 'num_0', 'num_0']",0,"[0.0005066668745712377, 0.14062487820410752]",,,,,,,,2018_Apr_03_1241,59.9927393376,sequenceLearningTask,001,051,
min1.png,min2.png,min3.png,min4.png,allBlank.png,,,,['num_4'],,,,,,0,3,3,3,,,,,,,,,,,,,,,,,['num_4'],4,0.0594252551491,0,"['num_0', 'num_0', 'num_0', 'num_1', 'num_0', 'num_4']",0,"[0.0003163078217767179, 0.015405955038659158, 0.2835410394018254, 0.5004309745363571]",,,,,,,,2018_Apr_03_1241,59.9927393376,sequenceLearningTask,001,051,
min1.png,min2.png,min3.png,min4.png,allBlank.png,,,,['num_1'],,,,,,0,3,3,3,,,,,,,,,,,,,,,,,['num_1'],4,0.0527269959912,0,"['num_4', 'num_4', 'num_4', 'num_1']",0,"[0.0005062566178821726, 0.07452433826620108, 0.25832831110892585]",,,,,,,,2018_Apr_03_1241,59.9927393376,sequenceLearningTask,001,051,
min1.png,min2.png,min3.png,min4.png,allBlank.png,,,,['num_0'],,,,,,0,3,3,3,,,,,,,,,,,,,,,,,['num_0'],4,0.051669764789,0,"['num_1', 'num_0', 'num_1', 'num_1', 'num_0', 'num_0']",0,"[0.0006711797614116222, 0.0763319287525519, 0.3091701781213487]",,,,,,,,2018_Apr_03_1241,59.9927393376,sequenceLearningTask,001,051,
min1.png,min2.png,min3.png,min4.png,allBlank.png,,,,['num_7'],,,,,,0,4,4,4,,,,,,,,,,,,,,,,,['num_7'],5,0.0508541747095,0,"['num_0', 'num_1', 'num_0', 'num_1', 'num_7']",0,"[0.0009095388340938371, 0.2248456307061133, 0.44155382217650185]",,,,,,,,2018_Apr_03_1241,59.9927393376,sequenceLearningTask,001,051,
min1.png,min2.png,min3.png,min4.png,allBlank.png,,,,['num_1'],,,,,,0,4,4,4,,,,,,,,,,,,,,,,,['num_1'],5,0.057862177584,0,"['num_7', 'num_7', 'num_4', 'num_4', 'num_1']",0,"[0.00029292319595697336, 0.13584579932103225, 0.3531258884613635, 0.6357450813302421]",,,,,,,,2018_Apr_03_1241,59.9927393376,sequenceLearningTask,001,051,
min1.png,min2.png,min3.png,min4.png,allBlank.png,,,,['num_4'],,,,,,0,4,4,4,,,,,,,,,,,,,,,,,['num_4'],5,0.0607553069767,0,"['num_1', 'num_0', 'num_0', 'num_0', 'num_4']",0,"[0.0003117950000159908, 0.1002363488150877, 0.2833867829267547, 0.949619261382395]",,,,,,,,2018_Apr_03_1241,59.9927393376,sequenceLearningTask,001,051,
min1.png,min2.png,min3.png,min4.png,allBlank.png,,,,['num_0'],,,,,,0,4,4,4,,,,,,,,,,,,,,,,,['num_0'],5,0.0524714061412,0,"['num_7', 'num_7', 'num_4', 'num_1', 'num_0']",0,"[0.00031466679502045736, 0.29274678676847543, 0.5422102737284149, 0.7917874017603026]",,,,,,,,2018_Apr_03_1241,59.9927393376,sequenceLearningTask,001,051,
min1.png,min2.png,min3.png,min4.png,allBlank.png,,,,['num_0'],,,,,,0,4,4,4,,,,,,,,,,,,,,,,,['num_0'],5,0.051339097985,0,"['num_0', 'num_1', 'num_4', 'num_7', 'num_4', 'num_7', 'num_7', 'num_4', 'num_4', 'num_1', 'num_1', 'num_0']",0,"[0.00048287199388141744, 0.10968004499773087, 0.30802474175470707, 0.5253077026918618, 0.9750416307870182, 1.2254142463243625, 1.4253671488695545, 1.6753717642550328, 1.891559750383749, 2.0921583967829065]",,,,,,,,2018_Apr_03_1241,59.9927393376,sequenceLearningTask,001,051,
min1.png,min2.png,min3.png,min4.png,allBlank.png,,,,['num_4'],,,,,,0,4,4,4,,,,,,,,,,,,,,,,,['num_4'],5,0.0551614585293,0,"['num_0', 'num_1', 'num_1', 'num_4']",0,"[0.00024164112437574659, 0.17247473742463626, 0.3886327748223266]",,,,,,,,2018_Apr_03_1241,59.9927393376,sequenceLearningTask,001,051,
min1.png,min2.png,min3.png,min4.png,allBlank.png,,,,['num_1'],,,,,,0,4,4,4,,,,,,,,,,,,,,,,,['num_1'],5,0.0529304832544,0,"['num_7', 'num_7', 'num_4', 'num_4', 'num_4', 'num_1']",0,"[0.0003220514136046404, 0.09133993490831926, 0.3413088579727628, 0.5904539858274802, 0.8078083314085234]",,,,,,,,2018_Apr_03_1241,59.9927393376,sequenceLearningTask,001,051,
min1.png,min2.png,min3.png,min4.png,allBlank.png,,,,['num_0'],,,,,,0,4,4,4,,,,,,,,,,,,,,,,,['num_0'],5,0.0589091523725,0,"['num_1', 'num_0', 'num_0']",0,"[0.00048738481382315513, 0.11813953564706026]",,,,,,,,2018_Apr_03_1241,59.9927393376,sequenceLearningTask,001,051,
min1.png,min2.png,min3.png,min4.png,allBlank.png,,,,['num_7'],,,,,,0,5,5,5,,,,,,,,,,,,,,,,,['num_7'],6,0.0504074052969,0,"['num_0', 'num_1', 'num_0', 'num_1', 'num_1', 'num_4', 'num_4', 'num_4', 'num_7', 'num_4', 'num_7', 'num_4', 'num_7', 'num_4', 'num_7']",0,"[0.0003298462888778886, 0.10904168576053053, 0.32599151835529483, 0.5755735694656323, 0.7756339592342556, 1.008070567413597, 1.2427886124260112, 1.4624592666496028, 1.710106547736359, 1.9590916755241778]",,,,,,,,2018_Apr_03_1241,59.9927393376,sequenceLearningTask,001,051,
min1.png,min2.png,min3.png,min4.png,allBlank.png,,,,['num_1'],,,,,,0,5,5,5,,,,,,,,,,,,,,,,,['num_1'],6,0.0552660739559,0,"['num_4', 'num_4', 'num_4', 'num_1']",0,"[0.0003610257899708813, 0.1549682687036693, 0.47102952657587593]",,,,,,,,2018_Apr_03_1241,59.9927393376,sequenceLearningTask,001,051,
min1.png,min2.png,min3.png,min4.png,allBlank.png,,,,['num_4'],,,,,,0,5,5,5,,,,,,,,,,,,,,,,,['num_4'],6,0.0574945876906,0,"['num_1', 'num_0', 'num_1', 'num_4']",0,"[0.00030564115149900317, 0.06946833619258541, 0.48586440445615153, 0.9194009925740829]",,,,,,,,2018_Apr_03_1241,59.9927393376,sequenceLearningTask,001,051,
min1.png,min2.png,min3.png,min4.png,allBlank.png,,,,['num_0'],,,,,,0,5,5,5,,,,,,,,,,,,,,,,,['num_0'],6,0.0525427907869,0,"['num_7', 'num_4', 'num_1', 'num_0']",0,"[0.0003130257700831862, 0.30781017756271467, 0.7244601946513285, 1.1083290700844373]",,,,,,,,2018_Apr_03_1241,59.9927393376,sequenceLearningTask,001,051,
min1.png,min2.png,min3.png,min4.png,allBlank.png,,,,['num_0'],,,,,,0,5,5,5,,,,,,,,,,,,,,,,,['num_0'],6,0.0571114080449,0,"['num_1', 'num_4', 'num_7', 'num_4', 'num_1', 'num_1', 'num_0', 'num_0']",0,"[0.00030441038143180776, 0.30472463783553394, 0.7043227504909737, 1.055126586717961, 1.503979693939982, 1.8546485557526466, 2.204199878644431]",,,,,,,,2018_Apr_03_1241,59.9927393376,sequenceLearningTask,001,051,
min1.png,min2.png,min3.png,min4.png,allBlank.png,,,,['num_4'],,,,,,0,5,5,5,,,,,,,,,,,,,,,,,['num_4'],6,0.0552439201001,0,"['num_0', 'num_4']",0,"[0.00032615398049529176, 1.5551259713338368]",,,,,,,,2018_Apr_03_1241,59.9927393376,sequenceLearningTask,001,051,
min1.png,min2.png,min3.png,min4.png,allBlank.png,,,,['num_1'],,,,,,0,5,5,5,,,,,,,,,,,,,,,,,['num_1'],6,0.0478379683427,1,['num_1'],0,[0.5301130379957613],,,,,,,,2018_Apr_03_1241,59.9927393376,sequenceLearningTask,001,051,
min1.png,min2.png,min3.png,min4.png,allBlank.png,,,,['num_0'],,,,,,0,5,5,5,,,,,,,,,,,,,,,,,['num_0'],6,0.0574474081823,1,['num_0'],0,[0.8840184139571647],,,,,,,,2018_Apr_03_1241,59.9927393376,sequenceLearningTask,001,051,
min1.png,min2.png,min3.png,min4.png,allBlank.png,,,,['num_7'],,,,,,0,6,6,6,,,,,,,,,,,,,,,,,['num_7'],7,0.0224541630578,1,['num_7'],0,[0.8711576907317067],,,,,,,,2018_Apr_03_1241,59.9927393376,sequenceLearningTask,001,051,
min1.png,min2.png,min3.png,min4.png,allBlank.png,,,,['num_1'],,,,,,0,6,6,6,,,,,,,,,,,,,,,,,['num_1'],7,0.045278377549,1,['num_1'],0,[0.8658120475138276],,,,,,,,2018_Apr_03_1241,59.9927393376,sequenceLearningTask,001,051,
min1.png,min2.png,min3.png,min4.png,allBlank.png,,,,['num_4'],,,,,,0,6,6,6,,,,,,,,,,,,,,,,,['num_4'],7,0.0546355095939,1,['num_4'],0,[0.8237677225715743],,,,,,,,2018_Apr_03_1241,59.9927393376,sequenceLearningTask,001,051,
min1.png,min2.png,min3.png,min4.png,allBlank.png,,,,['num_0'],,,,,,0,6,6,6,,,,,,,,,,,,,,,,,['num_0'],7,0.0555294586793,1,['num_0'],0,[0.587471830758659],,,,,,,,2018_Apr_03_1241,59.9927393376,sequenceLearningTask,001,051,
min1.png,min2.png,min3.png,min4.png,allBlank.png,,,,['num_0'],,,,,,0,6,6,6,,,,,,,,,,,,,,,,,['num_0'],7,0.0512939697619,0,"['num_1', 'num_0', 'num_0']",0,"[0.609437378230723, 1.609867327124448]",,,,,,,,2018_Apr_03_1241,59.9927393376,sequenceLearningTask,001,051,
min1.png,min2.png,min3.png,min4.png,allBlank.png,,,,['num_4'],,,,,,0,6,6,6,,,,,,,,,,,,,,,,,['num_4'],7,0.0571610490915,0,"['num_0', 'num_0', 'num_0', 'num_0', 'num_0', 'num_7', 'num_7', 'num_0', 'num_4']",0,"[0.00043241043385933153, 0.08833316444361117, 0.10454896596820618, 0.30397181701300724, 0.7035157758000423, 0.887967543780178, 1.1040935811652162, 1.2212681933397107]",,,,,,,,2018_Apr_03_1241,59.9927393376,sequenceLearningTask,001,051,
min1.png,min2.png,min3.png,min4.png,allBlank.png,,,,['num_1'],,,,,,0,6,6,6,,,,,,,,,,,,,,,,,['num_1'],7,0.055540945863,0,"['num_7', 'num_4', 'num_1', 'num_4', 'num_1', 'num_4', 'num_1', 'num_1']",0,"[0.0003220514136046404, 0.03723365630139597, 0.7069578284954332, 2.0560332537570503]",,,,,,,,2018_Apr_03_1241,59.9927393376,sequenceLearningTask,001,051,
min1.png,min2.png,min3.png,min4.png,allBlank.png,,,,['num_0'],,,,,,0,6,6,6,,,,,,,,,,,,,,,,,['num_0'],7,0.0552570483105,1,['num_0'],0,[2.1219253833533003],,,,,,,,2018_Apr_03_1241,59.9927393376,sequenceLearningTask,001,051,
min1.png,min2.png,min3.png,min4.png,allBlank.png,,,,['num_7'],,,,,,0,7,7,7,,,,,,,,,,,,,,,,,['num_7'],8,0.0578121262824,0,"['num_4', 'num_7']",0,"[1.6521426265207992, 1.7016765955595474]",,,,,,,,2018_Apr_03_1241,59.9927393376,sequenceLearningTask,001,051,
min1.png,min2.png,min3.png,min4.png,allBlank.png,,,,['num_1'],,,,,,0,7,7,7,,,,,,,,,,,,,,,,,['num_1'],8,0.0526486369836,0,"['num_0', 'num_1']",0,"[1.391516468314876, 1.842152550625542]",,,,,,,,2018_Apr_03_1241,59.9927393376,sequenceLearningTask,001,051,
min1.png,min2.png,min3.png,min4.png,allBlank.png,,,,['num_4'],,,,,,0,7,7,7,,,,,,,,,,,,,,,,,['num_4'],8,0.064506693132,1,['num_4'],0,[1.113030610473288],,,,,,,,2018_Apr_03_1241,59.9927393376,sequenceLearningTask,001,051,
min1.png,min2.png,min3.png,min4.png,allBlank.png,,,,['num_0'],,,,,,0,7,7,7,,,,,,,,,,,,,,,,,['num_0'],8,0.0522634060562,1,['num_0'],0,[0.8252585949794593],,,,,,,,2018_Apr_03_1241,59.9927393376,sequenceLearningTask,001,051,
min1.png,min2.png,min3.png,min4.png,allBlank.png,,,,['num_0'],,,,,,0,7,7,7,,,,,,,,,,,,,,,,,['num_0'],8,0.0787766477024,1,['num_0'],0,[1.2812066794685961],,,,,,,,2018_Apr_03_1241,59.9927393376,sequenceLearningTask,001,051,
min1.png,min2.png,min3.png,min4.png,allBlank.png,,,,['num_4'],,,,,,0,7,7,7,,,,,,,,,,,,,,,,,['num_4'],8,0.0494925331241,1,['num_4'],0,[0.9300286892430449],,,,,,,,2018_Apr_03_1241,59.9927393376,sequenceLearningTask,001,051,
min1.png,min2.png,min3.png,min4.png,allBlank.png,,,,['num_1'],,,,,,0,7,7,7,,,,,,,,,,,,,,,,,['num_1'],8,0.0545481249446,1,['num_1'],0,[1.3869794408110465],,,,,,,,2018_Apr_03_1241,59.9927393376,sequenceLearningTask,001,051,
min1.png,min2.png,min3.png,min4.png,allBlank.png,,,,['num_0'],,,,,,0,7,7,7,,,,,,,,,,,,,,,,,['num_0'],8,0.0554699714739,1,['num_0'],0,[1.1057046587502555],,,,,,,,2018_Apr_03_1241,59.9927393376,sequenceLearningTask,001,051,
min1.png,min2.png,min3.png,min4.png,allBlank.png,,,,['num_7'],,,,,,0,8,8,8,,,,,,,,,,,,,,,,,['num_7'],9,0.0486067891707,1,['num_7'],0,[1.1106749171995034],,,,,,,,2018_Apr_03_1241,59.9927393376,sequenceLearningTask,001,051,
min1.png,min2.png,min3.png,min4.png,allBlank.png,,,,['num_1'],,,,,,0,8,8,8,,,,,,,,,,,,,,,,,['num_1'],9,0.055094996962,1,['num_1'],0,[0.9051847816153895],,,,,,,,2018_Apr_03_1241,59.9927393376,sequenceLearningTask,001,051,
min1.png,min2.png,min3.png,min4.png,allBlank.png,,,,['num_4'],,,,,,0,8,8,8,,,,,,,,,,,,,,,,,['num_4'],9,0.0538252528513,1,['num_4'],0,[0.8736426148279861],,,,,,,,2018_Apr_03_1241,59.9927393376,sequenceLearningTask,001,051,
min1.png,min2.png,min3.png,min4.png,allBlank.png,,,,['num_0'],,,,,,0,8,8,8,,,,,,,,,,,,,,,,,['num_0'],9,0.0569501772097,1,['num_0'],0,[0.45399198112500017],,,,,,,,2018_Apr_03_1241,59.9927393376,sequenceLearningTask,001,051,
min1.png,min2.png,min3.png,min4.png,allBlank.png,,,,['num_0'],,,,,,0,8,8,8,,,,,,,,,,,,,,,,,['num_0'],9,0.0473477117321,1,['num_0'],0,[0.4469971064609126],,,,,,,,2018_Apr_03_1241,59.9927393376,sequenceLearningTask,001,051,
min1.png,min2.png,min3.png,min4.png,allBlank.png,,,,['num_4'],,,,,,0,8,8,8,,,,,,,,,,,,,,,,,['num_4'],9,0.0543733556406,1,['num_4'],0,[0.7905106832859019],,,,,,,,2018_Apr_03_1241,59.9927393376,sequenceLearningTask,001,051,
min1.png,min2.png,min3.png,min4.png,allBlank.png,,,,['num_1'],,,,,,0,8,8,8,,,,,,,,,,,,,,,,,['num_1'],9,0.0573464850659,1,['num_1'],0,[0.48675507148982433],,,,,,,,2018_Apr_03_1241,59.9927393376,sequenceLearningTask,001,051,
min1.png,min2.png,min3.png,min4.png,allBlank.png,,,,['num_0'],,,,,,0,8,8,8,,,,,,,,,,,,,,,,,['num_0'],9,0.053992637535,1,['num_0'],0,[0.473649425086478],,,,,,,,2018_Apr_03_1241,59.9927393376,sequenceLearningTask,001,051,
min1.png,min2.png,min3.png,min4.png,allBlank.png,,,,['num_7'],,,,,,0,9,9,9,,,,,,,,,,,,,,,,,['num_7'],10,0.0496767383283,1,['num_7'],0,[0.29256340207757603],,,,,,,,2018_Apr_03_1241,59.9927393376,sequenceLearningTask,001,051,
min1.png,min2.png,min3.png,min4.png,allBlank.png,,,,['num_1'],,,,,,0,9,9,9,,,,,,,,,,,,,,,,,['num_1'],10,0.0575052543609,0,"['num_7', 'num_1']",0,"[0.0003142565383313922, 0.9535675706938491]",,,,,,,,2018_Apr_03_1241,59.9927393376,sequenceLearningTask,001,051,
min1.png,min2.png,min3.png,min4.png,allBlank.png,,,,['num_4'],,,,,,0,9,9,9,,,,,,,,,,,,,,,,,['num_4'],10,0.050404943755,1,['num_4'],0,[0.5931268074364198],,,,,,,,2018_Apr_03_1241,59.9927393376,sequenceLearningTask,001,051,
min1.png,min2.png,min3.png,min4.png,allBlank.png,,,,['num_0'],,,,,,0,9,9,9,,,,,,,,,,,,,,,,,['num_0'],10,0.0583987931896,1,['num_0'],0,[0.935929409612072],,,,,,,,2018_Apr_03_1241,59.9927393376,sequenceLearningTask,001,051,
min1.png,min2.png,min3.png,min4.png,allBlank.png,,,,['num_0'],,,,,,0,9,9,9,,,,,,,,,,,,,,,,,['num_0'],10,0.0596578706281,1,['num_0'],0,[0.6515707288490376],,,,,,,,2018_Apr_03_1241,59.9927393376,sequenceLearningTask,001,051,
min1.png,min2.png,min3.png,min4.png,allBlank.png,,,,['num_4'],,,,,,0,9,9,9,,,,,,,,,,,,,,,,,['num_4'],10,0.0514441236683,1,['num_4'],0,[2.4755468617622682],,,,,,,,2018_Apr_03_1241,59.9927393376,sequenceLearningTask,001,051,
min1.png,min2.png,min3.png,min4.png,allBlank.png,,,,['num_1'],,,,,,0,9,9,9,,,,,,,,,,,,,,,,,['num_1'],10,0.051400636472,1,['num_1'],0,[0.8427843457575364],,,,,,,,2018_Apr_03_1241,59.9927393376,sequenceLearningTask,001,051,
min1.png,min2.png,min3.png,min4.png,allBlank.png,,,,['num_0'],,,,,,0,9,9,9,,,,,,,,,,,,,,,,,['num_0'],10,0.0561075101978,1,['num_0'],0,[0.48685312281122606],,,,,,,,2018_Apr_03_1241,59.9927393376,sequenceLearningTask,001,051,
min1.png,min2.png,min3.png,min4.png,allBlank.png,,,,,,,,,,0,9,9,9,,,,,0,-1,-1,0,,,,,,,,,,,,,,,,,,,,,,,2018_Apr_03_1241,59.9927393376,sequenceLearningTask,001,051,
min1.png,min2.png,min3.png,min4.png,allBlank.png,,,,,,,,,,0,9,9,9,,,,,0,-1,-1,0,,,,,,,,,,,,,,,,,['1'],,,,,,2018_Apr_03_1241,59.9927393376,sequenceLearningTask,001,051,
min1.png,min2.png,min3.png,min4.png,allBlank.png,,,,,,,,,,0,9,9,9,,,,,0,-1,-1,0,,,,,,,,,,,,,,,,,['2'],,,,,,2018_Apr_03_1241,59.9927393376,sequenceLearningTask,001,051,
min1.png,min2.png,min3.png,min4.png,allBlank.png,,,,,,,,,,0,9,9,9,,,,,0,-1,-1,0,,,,,,,,,,,,,,,,,['2'],,,,,,2018_Apr_03_1241,59.9927393376,sequenceLearningTask,001,051,
min1.png,min2.png,min3.png,min4.png,allBlank.png,,,,,,,,,,0,9,9,9,,,,,0,-1,-1,0,,,,,,,,,,,,,,,,,['2'],,,,,,2018_Apr_03_1241,59.9927393376,sequenceLearningTask,001,051,
min1.png,min2.png,min3.png,min4.png,allBlank.png,,,,,,0,0,0,0,0,9,9,9,,,,,0,-1,-1,0,,,,,,,,,,,,,,,,,,return,0.860108660558,,,,2018_Apr_03_1241,59.9927393376,sequenceLearningTask,001,051,
min1.png,min2.png,min3.png,min4.png,allBlank.png,,,,['3'],,,,,,0,9,9,9,,,,,0,-1,-1,0,0,0,0,0,,,,,['3'],1,,1,,,,,,,,,['3'],7.32923213507,2018_Apr_03_1241,59.9927393376,sequenceLearningTask,001,051,
min1.png,min2.png,min3.png,min4.png,allBlank.png,,,,['2'],,,,,,0,9,9,9,,,,,0,-1,-1,0,0,0,0,0,,,,,['2'],1,,0,,,,,,,,,['4'],7.58234116199,2018_Apr_03_1241,59.9927393376,sequenceLearningTask,001,051,
min1.png,min2.png,min3.png,min4.png,allBlank.png,,,,['4'],,,,,,0,9,9,9,,,,,0,-1,-1,0,0,0,0,0,,,,,['4'],1,,1,,,,,,,,,['4'],4.98270932624,2018_Apr_03_1241,59.9927393376,sequenceLearningTask,001,051,
min1.png,min2.png,min3.png,min4.png,allBlank.png,,,,['4'],,,,,,0,9,9,9,,,,,0,-1,-1,0,0,0,0,0,,,,,['4'],1,,0,,,,,,,,,['1'],4.43264345955,2018_Apr_03_1241,59.9927393376,sequenceLearningTask,001,051,
min1.png,min2.png,min3.png,min4.png,allBlank.png,,,,['2'],,,,,,0,9,9,9,,,,,0,-1,-1,0,0,0,0,0,,,,,['2'],1,,0,,,,,,,,,['1'],2.83309326486,2018_Apr_03_1241,59.9927393376,sequenceLearningTask,001,051,
min1.png,min2.png,min3.png,min4.png,allBlank.png,,,,['3'],,,,,,0,9,9,9,,,,,0,-1,-1,0,0,0,0,0,,,,,['3'],1,,0,,,,,,,,,['1'],3.76736113533,2018_Apr_03_1241,59.9927393376,sequenceLearningTask,001,051,
min1.png,min2.png,min3.png,min4.png,allBlank.png,,,,['4'],,,,,,0,9,9,9,,,,,0,-1,-1,0,0,0,0,0,,,,,['4'],1,,1,,,,,,,,,['4'],6.88284302886,2018_Apr_03_1241,59.9927393376,sequenceLearningTask,001,051,
min1.png,min2.png,min3.png,min4.png,allBlank.png,,,,['2'],,,,,,0,9,9,9,,,,,0,-1,-1,0,0,0,0,0,,,,,['2'],1,,0,,,,,,,,,['4'],3.29910248168,2018_Apr_03_1241,59.9927393376,sequenceLearningTask,001,051,
min1.png,min2.png,min3.png,min4.png,allBlank.png,,,,['1'],,,,,,0,9,9,9,,,,,0,-1,-1,0,0,0,0,0,,,,,['1'],1,,0,,,,,,,,,['3'],9.19908438937,2018_Apr_03_1241,59.9927393376,sequenceLearningTask,001,051,
min1.png,min2.png,min3.png,min4.png,allBlank.png,,,,['1'],,,,,,0,9,9,9,,,,,0,-1,-1,0,0,0,0,0,0,0,0,0,['1'],1,,0,,,,,,,,,['2'],33.0969583988,2018_Apr_03_1241,59.9927393376,sequenceLearningTask,001,051,
min1.png,min2.png,min3.png,min4.png,allBlank.png,,,,['3'],,,,,,0,9,9,9,,,,,0,-1,-1,0,0,0,0,0,0,0,0,0,['3'],1,,0,,,,,,,,,['2'],25.6606747326,2018_Apr_03_1241,59.9927393376,sequenceLearningTask,001,051,
