pawPatrol1,pawPatrol2,pawPatrol3,pawPatrol4,blank,randomPaw,correctKeyPress,allowableKey,correctKey,correctKeyPressNum,trials.thisRepN,trials.thisTrialN,trials.thisN,trials.thisIndex,trials_3.thisRepN,trials_3.thisTrialN,trials_3.thisN,trials_3.thisIndex,trials_2.thisRepN,trials_2.thisTrialN,trials_2.thisN,trials_2.thisIndex,trials_questions.thisRepN,trials_questions.thisTrialN,trials_questions.thisN,trials_questions.thisIndex,trials_test.thisRepN,trials_test.thisTrialN,trials_test.thisN,trials_test.thisIndex,trials_recogtest.thisRepN,trials_recogtest.thisTrialN,trials_recogtest.thisN,trials_recogtest.thisIndex,correctKey,repetitionNumber,stimulusPresent.t,trialCorrect,key_resp_9.keys,key_resp_9.corr,key_resp_9.rt,keyRespCorrect,questionsResponses,AnswerFinished.keys,AnswerFinished.rt,RecordAnswer.keys,RecordAnswer.rt,recallResponse,recallResponseTime,date,frameRate,expName,session,participant,
min1.png,min2.png,min3.png,min4.png,allBlank.png,,,,['num_7'],,,,,,0,0,0,0,,,,,,,,,,,,,,,,,['num_7'],1,0.0694784785155,1,['num_7'],0,[0.4895038076210767],,,,,,,,,2018_May_20_1504,60.1857050727,sequenceLearningTask,001,069,
min1.png,min2.png,min3.png,min4.png,allBlank.png,,,,['num_1'],,,,,,0,0,0,0,,,,,,,,,,,,,,,,,['num_1'],1,0.0837557942141,1,['num_1'],0,[0.5764530343003571],,,,,,,,,2018_May_20_1504,60.1857050727,sequenceLearningTask,001,069,
min1.png,min2.png,min3.png,min4.png,allBlank.png,,,,['num_4'],,,,,,0,0,0,0,,,,,,,,,,,,,,,,,['num_4'],1,0.0780741602648,1,['num_4'],0,[0.6992020113393664],,,,,,,,,2018_May_20_1504,60.1857050727,sequenceLearningTask,001,069,
min1.png,min2.png,min3.png,min4.png,allBlank.png,,,,['num_0'],,,,,,0,0,0,0,,,,,,,,,,,,,,,,,['num_0'],1,0.0725439107046,1,['num_0'],0,[0.2990322473924607],,,,,,,,,2018_May_20_1504,60.1857050727,sequenceLearningTask,001,069,
min1.png,min2.png,min3.png,min4.png,allBlank.png,,,,['num_0'],,,,,,0,0,0,0,,,,,,,,,,,,,,,,,['num_0'],1,0.0528737809509,1,['num_0'],0,[0.6587639071512967],,,,,,,,,2018_May_20_1504,60.1857050727,sequenceLearningTask,001,069,
min1.png,min2.png,min3.png,min4.png,allBlank.png,,,,['num_4'],,,,,,0,0,0,0,,,,,,,,,,,,,,,,,['num_4'],1,0.0636860756204,1,['num_4'],0,[0.9940861610230058],,,,,,,,,2018_May_20_1504,60.1857050727,sequenceLearningTask,001,069,
min1.png,min2.png,min3.png,min4.png,allBlank.png,,,,['num_1'],,,,,,0,0,0,0,,,,,,,,,,,,,,,,,['num_1'],1,0.0530436269473,1,['num_1'],0,[0.841549733420834],,,,,,,,,2018_May_20_1504,60.1857050727,sequenceLearningTask,001,069,
min1.png,min2.png,min3.png,min4.png,allBlank.png,,,,['num_0'],,,,,,0,0,0,0,,,,,,,,,,,,,,,,,['num_0'],1,0.0582854666281,1,['num_0'],0,[0.4861171452794224],,,,,,,,,2018_May_20_1504,60.1857050727,sequenceLearningTask,001,069,
min1.png,min2.png,min3.png,min4.png,allBlank.png,,,,['num_7'],,,,,,0,1,1,1,,,,,,,,,,,,,,,,,['num_7'],2,0.0657377652824,1,['num_7'],0,[0.4742746981792152],,,,,,,,,2018_May_20_1504,60.1857050727,sequenceLearningTask,001,069,
min1.png,min2.png,min3.png,min4.png,allBlank.png,,,,['num_1'],,,,,,0,1,1,1,,,,,,,,,,,,,,,,,['num_1'],2,0.0363913399633,1,['num_1'],0,[0.7748921744059771],,,,,,,,,2018_May_20_1504,60.1857050727,sequenceLearningTask,001,069,
min1.png,min2.png,min3.png,min4.png,allBlank.png,,,,['num_4'],,,,,,0,1,1,1,,,,,,,,,,,,,,,,,['num_4'],2,0.0515630135778,1,['num_4'],0,[0.4927702653221786],,,,,,,,,2018_May_20_1504,60.1857050727,sequenceLearningTask,001,069,
min1.png,min2.png,min3.png,min4.png,allBlank.png,,,,['num_0'],,,,,,0,1,1,1,,,,,,,,,,,,,,,,,['num_0'],2,0.0645344848745,1,['num_0'],0,[0.07906246674247086],,,,,,,,,2018_May_20_1504,60.1857050727,sequenceLearningTask,001,069,
min1.png,min2.png,min3.png,min4.png,allBlank.png,,,,['num_0'],,,,,,0,1,1,1,,,,,,,,,,,,,,,,,['num_0'],2,0.051395629067,1,['num_0'],0,[0.7429336498025805],,,,,,,,,2018_May_20_1504,60.1857050727,sequenceLearningTask,001,069,
min1.png,min2.png,min3.png,min4.png,allBlank.png,,,,['num_4'],,,,,,0,1,1,1,,,,,,,,,,,,,,,,,['num_4'],2,0.0588696710765,1,['num_4'],0,[0.9860562223475426],,,,,,,,,2018_May_20_1504,60.1857050727,sequenceLearningTask,001,069,
min1.png,min2.png,min3.png,min4.png,allBlank.png,,,,['num_1'],,,,,,0,1,1,1,,,,,,,,,,,,,,,,,['num_1'],2,0.05846679979,1,['num_1'],0,[1.3687609820626676],,,,,,,,,2018_May_20_1504,60.1857050727,sequenceLearningTask,001,069,
min1.png,min2.png,min3.png,min4.png,allBlank.png,,,,['num_0'],,,,,,0,1,1,1,,,,,,,,,,,,,,,,,['num_0'],2,0.0625197179615,1,['num_0'],0,[0.4980994896031916],,,,,,,,,2018_May_20_1504,60.1857050727,sequenceLearningTask,001,069,
min1.png,min2.png,min3.png,min4.png,allBlank.png,,,,['num_7'],,,,,,0,2,2,2,,,,,,,,,,,,,,,,,['num_7'],3,0.0508975782432,1,['num_7'],0,[0.4254899378865957],,,,,,,,,2018_May_20_1504,60.1857050727,sequenceLearningTask,001,069,
min1.png,min2.png,min3.png,min4.png,allBlank.png,,,,['num_1'],,,,,,0,2,2,2,,,,,,,,,,,,,,,,,['num_1'],3,0.0545242405497,1,['num_1'],0,[1.0064689151477069],,,,,,,,,2018_May_20_1504,60.1857050727,sequenceLearningTask,001,069,
min1.png,min2.png,min3.png,min4.png,allBlank.png,,,,['num_4'],,,,,,0,2,2,2,,,,,,,,,,,,,,,,,['num_4'],3,0.0528618835378,1,['num_4'],0,[0.8575735085178167],,,,,,,,,2018_May_20_1504,60.1857050727,sequenceLearningTask,001,069,
min1.png,min2.png,min3.png,min4.png,allBlank.png,,,,['num_0'],,,,,,0,2,2,2,,,,,,,,,,,,,,,,,['num_0'],3,0.0621828977019,1,['num_0'],0,[0.4987337451893836],,,,,,,,,2018_May_20_1504,60.1857050727,sequenceLearningTask,001,069,
min1.png,min2.png,min3.png,min4.png,allBlank.png,,,,['num_0'],,,,,,0,2,2,2,,,,,,,,,,,,,,,,,['num_0'],3,0.0532503959257,1,['num_0'],0,[0.6560500643681735],,,,,,,,,2018_May_20_1504,60.1857050727,sequenceLearningTask,001,069,
min1.png,min2.png,min3.png,min4.png,allBlank.png,,,,['num_4'],,,,,,0,2,2,2,,,,,,,,,,,,,,,,,['num_4'],3,0.0697865807451,1,['num_4'],0,[0.9408657138701528],,,,,,,,,2018_May_20_1504,60.1857050727,sequenceLearningTask,001,069,
min1.png,min2.png,min3.png,min4.png,allBlank.png,,,,['num_1'],,,,,,0,2,2,2,,,,,,,,,,,,,,,,,['num_1'],3,0.0578116211109,1,['num_1'],0,[0.6867179239634424],,,,,,,,,2018_May_20_1504,60.1857050727,sequenceLearningTask,001,069,
min1.png,min2.png,min3.png,min4.png,allBlank.png,,,,['num_0'],,,,,,0,2,2,2,,,,,,,,,,,,,,,,,['num_0'],3,0.0547999325208,1,['num_0'],0,[0.6889013058971614],,,,,,,,,2018_May_20_1504,60.1857050727,sequenceLearningTask,001,069,
min1.png,min2.png,min3.png,min4.png,allBlank.png,,,,['num_7'],,,,,,0,3,3,3,,,,,,,,,,,,,,,,,['num_7'],4,0.0529148066416,1,['num_7'],0,[0.40770944696851075],,,,,,,,,2018_May_20_1504,60.1857050727,sequenceLearningTask,001,069,
min1.png,min2.png,min3.png,min4.png,allBlank.png,,,,['num_1'],,,,,,0,3,3,3,,,,,,,,,,,,,,,,,['num_1'],4,0.051474398002,1,['num_1'],0,[0.8092396194115281],,,,,,,,,2018_May_20_1504,60.1857050727,sequenceLearningTask,001,069,
min1.png,min2.png,min3.png,min4.png,allBlank.png,,,,['num_4'],,,,,,0,3,3,3,,,,,,,,,,,,,,,,,['num_4'],4,0.0572220834438,1,['num_4'],0,[1.0532668062951416],,,,,,,,,2018_May_20_1504,60.1857050727,sequenceLearningTask,001,069,
min1.png,min2.png,min3.png,min4.png,allBlank.png,,,,['num_0'],,,,,,0,3,3,3,,,,,,,,,,,,,,,,,['num_0'],4,0.048072146019,1,['num_0'],0,[0.6461313073523343],,,,,,,,,2018_May_20_1504,60.1857050727,sequenceLearningTask,001,069,
min1.png,min2.png,min3.png,min4.png,allBlank.png,,,,['num_0'],,,,,,0,3,3,3,,,,,,,,,,,,,,,,,['num_0'],4,0.0588659788482,1,['num_0'],0,[0.7694952581077814],,,,,,,,,2018_May_20_1504,60.1857050727,sequenceLearningTask,001,069,
min1.png,min2.png,min3.png,min4.png,allBlank.png,,,,['num_4'],,,,,,0,3,3,3,,,,,,,,,,,,,,,,,['num_4'],4,0.0540188052692,1,['num_4'],0,[0.8070734681095928],,,,,,,,,2018_May_20_1504,60.1857050727,sequenceLearningTask,001,069,
min1.png,min2.png,min3.png,min4.png,allBlank.png,,,,['num_1'],,,,,,0,3,3,3,,,,,,,,,,,,,,,,,['num_1'],4,0.0525800378527,1,['num_1'],0,[0.9415016104467213],,,,,,,,,2018_May_20_1504,60.1857050727,sequenceLearningTask,001,069,
min1.png,min2.png,min3.png,min4.png,allBlank.png,,,,['num_0'],,,,,,0,3,3,3,,,,,,,,,,,,,,,,,['num_0'],4,0.0517365515698,1,['num_0'],0,[0.6595959062688053],,,,,,,,,2018_May_20_1504,60.1857050727,sequenceLearningTask,001,069,
min1.png,min2.png,min3.png,min4.png,allBlank.png,,,,['num_7'],,,,,,0,4,4,4,,,,,,,,,,,,,,,,,['num_7'],5,0.0540368563961,1,['num_7'],0,[0.6896869458723813],,,,,,,,,2018_May_20_1504,60.1857050727,sequenceLearningTask,001,069,
min1.png,min2.png,min3.png,min4.png,allBlank.png,,,,['num_1'],,,,,,0,4,4,4,,,,,,,,,,,,,,,,,['num_1'],5,0.0588503892068,1,['num_1'],0,[0.6354502947069705],,,,,,,,,2018_May_20_1504,60.1857050727,sequenceLearningTask,001,069,
min1.png,min2.png,min3.png,min4.png,allBlank.png,,,,['num_4'],,,,,,0,4,4,4,,,,,,,,,,,,,,,,,['num_4'],5,0.059477670351,1,['num_4'],0,[1.185486540896818],,,,,,,,,2018_May_20_1504,60.1857050727,sequenceLearningTask,001,069,
min1.png,min2.png,min3.png,min4.png,allBlank.png,,,,['num_0'],,,,,,0,4,4,4,,,,,,,,,,,,,,,,,['num_0'],5,0.0516668080818,0,"['num_1', 'num_0']",0,"[0.44315268541686237, 1.042389281326905]",,,,,,,,,2018_May_20_1504,60.1857050727,sequenceLearningTask,001,069,
min1.png,min2.png,min3.png,min4.png,allBlank.png,,,,['num_0'],,,,,,0,4,4,4,,,,,,,,,,,,,,,,,['num_0'],5,0.0522727561183,1,['num_0'],0,[0.7078645646106452],,,,,,,,,2018_May_20_1504,60.1857050727,sequenceLearningTask,001,069,
min1.png,min2.png,min3.png,min4.png,allBlank.png,,,,['num_4'],,,,,,0,4,4,4,,,,,,,,,,,,,,,,,['num_4'],5,0.0506752196234,0,"['num_7', 'num_4']",0,"[0.5788058517500758, 1.543513177195564]",,,,,,,,,2018_May_20_1504,60.1857050727,sequenceLearningTask,001,069,
min1.png,min2.png,min3.png,min4.png,allBlank.png,,,,['num_1'],,,,,,0,4,4,4,,,,,,,,,,,,,,,,,['num_1'],5,0.0527822938748,1,['num_1'],0,[0.6081682769581676],,,,,,,,,2018_May_20_1504,60.1857050727,sequenceLearningTask,001,069,
min1.png,min2.png,min3.png,min4.png,allBlank.png,,,,['num_0'],,,,,,0,4,4,4,,,,,,,,,,,,,,,,,['num_0'],5,0.0512446549255,1,['num_0'],0,[0.7759928912855685],,,,,,,,,2018_May_20_1504,60.1857050727,sequenceLearningTask,001,069,
min1.png,min2.png,min3.png,min4.png,allBlank.png,,,,['num_7'],,,,,,0,5,5,5,,,,,,,,,,,,,,,,,['num_7'],6,0.0565431099385,1,['num_7'],0,[0.6194749299902469],,,,,,,,,2018_May_20_1504,60.1857050727,sequenceLearningTask,001,069,
min1.png,min2.png,min3.png,min4.png,allBlank.png,,,,['num_1'],,,,,,0,5,5,5,,,,,,,,,,,,,,,,,['num_1'],6,0.0539457798004,1,['num_1'],0,[0.8242361138109118],,,,,,,,,2018_May_20_1504,60.1857050727,sequenceLearningTask,001,069,
min1.png,min2.png,min3.png,min4.png,allBlank.png,,,,['num_4'],,,,,,0,5,5,5,,,,,,,,,,,,,,,,,['num_4'],6,0.0534419855103,1,['num_4'],0,[0.7737356631550938],,,,,,,,,2018_May_20_1504,60.1857050727,sequenceLearningTask,001,069,
min1.png,min2.png,min3.png,min4.png,allBlank.png,,,,['num_0'],,,,,,0,5,5,5,,,,,,,,,,,,,,,,,['num_0'],6,0.0551511114463,1,['num_0'],0,[0.6402104939334095],,,,,,,,,2018_May_20_1504,60.1857050727,sequenceLearningTask,001,069,
min1.png,min2.png,min3.png,min4.png,allBlank.png,,,,['num_0'],,,,,,0,5,5,5,,,,,,,,,,,,,,,,,['num_0'],6,0.0593381833751,1,['num_0'],0,[0.634266706649214],,,,,,,,,2018_May_20_1504,60.1857050727,sequenceLearningTask,001,069,
min1.png,min2.png,min3.png,min4.png,allBlank.png,,,,['num_4'],,,,,,0,5,5,5,,,,,,,,,,,,,,,,,['num_4'],6,0.0573484422639,1,['num_4'],0,[1.5203780261799693],,,,,,,,,2018_May_20_1504,60.1857050727,sequenceLearningTask,001,069,
min1.png,min2.png,min3.png,min4.png,allBlank.png,,,,['num_1'],,,,,,0,5,5,5,,,,,,,,,,,,,,,,,['num_1'],6,0.0515876288991,1,['num_1'],0,[1.1260810755193233],,,,,,,,,2018_May_20_1504,60.1857050727,sequenceLearningTask,001,069,
min1.png,min2.png,min3.png,min4.png,allBlank.png,,,,['num_0'],,,,,,0,5,5,5,,,,,,,,,,,,,,,,,['num_0'],6,0.055609367555,1,['num_0'],0,[0.6394228027202189],,,,,,,,,2018_May_20_1504,60.1857050727,sequenceLearningTask,001,069,
min1.png,min2.png,min3.png,min4.png,allBlank.png,,,,['num_7'],,,,,,0,6,6,6,,,,,,,,,,,,,,,,,['num_7'],7,0.06049059215,1,['num_7'],0,[0.5975877773016691],,,,,,,,,2018_May_20_1504,60.1857050727,sequenceLearningTask,001,069,
min1.png,min2.png,min3.png,min4.png,allBlank.png,,,,['num_1'],,,,,,0,6,6,6,,,,,,,,,,,,,,,,,['num_1'],7,0.058725671377,0,"['num_4', 'num_1']",0,"[0.6687638948205858, 1.5519730641972274]",,,,,,,,,2018_May_20_1504,60.1857050727,sequenceLearningTask,001,069,
min1.png,min2.png,min3.png,min4.png,allBlank.png,,,,['num_4'],,,,,,0,6,6,6,,,,,,,,,,,,,,,,,['num_4'],7,0.0547039327212,1,['num_4'],0,[1.4394271513447165],,,,,,,,,2018_May_20_1504,60.1857050727,sequenceLearningTask,001,069,
min1.png,min2.png,min3.png,min4.png,allBlank.png,,,,['num_0'],,,,,,0,6,6,6,,,,,,,,,,,,,,,,,['num_0'],7,0.0597669007257,1,['num_0'],0,[0.33301415434107184],,,,,,,,,2018_May_20_1504,60.1857050727,sequenceLearningTask,001,069,
min1.png,min2.png,min3.png,min4.png,allBlank.png,,,,['num_0'],,,,,,0,6,6,6,,,,,,,,,,,,,,,,,['num_0'],7,0.0549537783954,1,['num_0'],0,[0.6393477260135114],,,,,,,,,2018_May_20_1504,60.1857050727,sequenceLearningTask,001,069,
min1.png,min2.png,min3.png,min4.png,allBlank.png,,,,['num_4'],,,,,,0,6,6,6,,,,,,,,,,,,,,,,,['num_4'],7,0.0513156291563,0,"['num_7', 'num_4']",0,"[0.7931120495777577, 1.326731905573979]",,,,,,,,,2018_May_20_1504,60.1857050727,sequenceLearningTask,001,069,
min1.png,min2.png,min3.png,min4.png,allBlank.png,,,,['num_1'],,,,,,0,6,6,6,,,,,,,,,,,,,,,,,['num_1'],7,0.0610218734946,1,['num_1'],0,[0.846687778364867],,,,,,,,,2018_May_20_1504,60.1857050727,sequenceLearningTask,001,069,
min1.png,min2.png,min3.png,min4.png,allBlank.png,,,,['num_0'],,,,,,0,6,6,6,,,,,,,,,,,,,,,,,['num_0'],7,0.0559802388307,1,['num_0'],0,[0.6223824133630842],,,,,,,,,2018_May_20_1504,60.1857050727,sequenceLearningTask,001,069,
min1.png,min2.png,min3.png,min4.png,allBlank.png,,,,['num_7'],,,,,,0,7,7,7,,,,,,,,,,,,,,,,,['num_7'],8,0.0546153173782,1,['num_7'],0,[0.6211840559262782],,,,,,,,,2018_May_20_1504,60.1857050727,sequenceLearningTask,001,069,
min1.png,min2.png,min3.png,min4.png,allBlank.png,,,,['num_1'],,,,,,0,7,7,7,,,,,,,,,,,,,,,,,['num_1'],8,0.0531781909522,1,['num_1'],0,[0.6576746779028326],,,,,,,,,2018_May_20_1504,60.1857050727,sequenceLearningTask,001,069,
min1.png,min2.png,min3.png,min4.png,allBlank.png,,,,['num_4'],,,,,,0,7,7,7,,,,,,,,,,,,,,,,,['num_4'],8,0.0536479339935,1,['num_4'],0,[0.3892286492045969],,,,,,,,,2018_May_20_1504,60.1857050727,sequenceLearningTask,001,069,
min1.png,min2.png,min3.png,min4.png,allBlank.png,,,,['num_0'],,,,,,0,7,7,7,,,,,,,,,,,,,,,,,['num_0'],8,0.0598522340879,1,['num_0'],0,[0.3176221731118858],,,,,,,,,2018_May_20_1504,60.1857050727,sequenceLearningTask,001,069,
min1.png,min2.png,min3.png,min4.png,allBlank.png,,,,['num_0'],,,,,,0,7,7,7,,,,,,,,,,,,,,,,,['num_0'],8,0.05151419295,1,['num_0'],0,[0.6098519673105329],,,,,,,,,2018_May_20_1504,60.1857050727,sequenceLearningTask,001,069,
min1.png,min2.png,min3.png,min4.png,allBlank.png,,,,['num_4'],,,,,,0,7,7,7,,,,,,,,,,,,,,,,,['num_4'],8,0.0511453729123,0,"['num_7', 'num_7', 'num_4']",0,"[0.41023211064748466, 1.0761197013780475, 1.1436018745880574]",,,,,,,,,2018_May_20_1504,60.1857050727,sequenceLearningTask,001,069,
min1.png,min2.png,min3.png,min4.png,allBlank.png,,,,['num_1'],,,,,,0,7,7,7,,,,,,,,,,,,,,,,,['num_1'],8,0.0600848491304,0,"['num_7', 'num_4', 'num_1']",0,"[2.316887404769659, 2.383697168668732, 3.000292102107778]",,,,,,,,,2018_May_20_1504,60.1857050727,sequenceLearningTask,001,069,
min1.png,min2.png,min3.png,min4.png,allBlank.png,,,,['num_0'],,,,,,0,7,7,7,,,,,,,,,,,,,,,,,['num_0'],8,0.0541878307704,1,['num_0'],0,[0.6076271496713161],,,,,,,,,2018_May_20_1504,60.1857050727,sequenceLearningTask,001,069,
min1.png,min2.png,min3.png,min4.png,allBlank.png,,,,['num_7'],,,,,,0,8,8,8,,,,,,,,,,,,,,,,,['num_7'],9,0.0526969609782,1,['num_7'],0,[0.3247118054423481],,,,,,,,,2018_May_20_1504,60.1857050727,sequenceLearningTask,001,069,
min1.png,min2.png,min3.png,min4.png,allBlank.png,,,,['num_1'],,,,,,0,8,8,8,,,,,,,,,,,,,,,,,['num_1'],9,0.0512684497517,1,['num_1'],0,[0.6599118032027036],,,,,,,,,2018_May_20_1504,60.1857050727,sequenceLearningTask,001,069,
min1.png,min2.png,min3.png,min4.png,allBlank.png,,,,['num_4'],,,,,,0,8,8,8,,,,,,,,,,,,,,,,,['num_4'],9,0.054015933536,1,['num_4'],0,[0.9389412035234272],,,,,,,,,2018_May_20_1504,60.1857050727,sequenceLearningTask,001,069,
min1.png,min2.png,min3.png,min4.png,allBlank.png,,,,['num_0'],,,,,,0,8,8,8,,,,,,,,,,,,,,,,,['num_0'],9,0.0507022966631,1,['num_0'],0,[0.7268446439411491],,,,,,,,,2018_May_20_1504,60.1857050727,sequenceLearningTask,001,069,
min1.png,min2.png,min3.png,min4.png,allBlank.png,,,,['num_0'],,,,,,0,8,8,8,,,,,,,,,,,,,,,,,['num_0'],9,0.0485603504349,1,['num_0'],0,[0.5787188776303083],,,,,,,,,2018_May_20_1504,60.1857050727,sequenceLearningTask,001,069,
min1.png,min2.png,min3.png,min4.png,allBlank.png,,,,['num_4'],,,,,,0,8,8,8,,,,,,,,,,,,,,,,,['num_4'],9,0.0539556259755,1,['num_4'],0,[0.7411674980539829],,,,,,,,,2018_May_20_1504,60.1857050727,sequenceLearningTask,001,069,
min1.png,min2.png,min3.png,min4.png,allBlank.png,,,,['num_1'],,,,,,0,8,8,8,,,,,,,,,,,,,,,,,['num_1'],9,0.0537316261325,1,['num_1'],0,[0.7400782688055187],,,,,,,,,2018_May_20_1504,60.1857050727,sequenceLearningTask,001,069,
min1.png,min2.png,min3.png,min4.png,allBlank.png,,,,['num_0'],,,,,,0,8,8,8,,,,,,,,,,,,,,,,,['num_0'],9,0.0589878249448,1,['num_0'],0,[0.48497704416513443],,,,,,,,,2018_May_20_1504,60.1857050727,sequenceLearningTask,001,069,
min1.png,min2.png,min3.png,min4.png,allBlank.png,,,,['num_7'],,,,,,0,9,9,9,,,,,,,,,,,,,,,,,['num_7'],10,0.0510616807733,1,['num_7'],0,[0.6441075149923563],,,,,,,,,2018_May_20_1504,60.1857050727,sequenceLearningTask,001,069,
min1.png,min2.png,min3.png,min4.png,allBlank.png,,,,['num_1'],,,,,,0,9,9,9,,,,,,,,,,,,,,,,,['num_1'],10,0.0575408523437,1,['num_1'],0,[0.45436949213035405],,,,,,,,,2018_May_20_1504,60.1857050727,sequenceLearningTask,001,069,
min1.png,min2.png,min3.png,min4.png,allBlank.png,,,,['num_4'],,,,,,0,9,9,9,,,,,,,,,,,,,,,,,['num_4'],10,0.0576786980964,0,"['num_7', 'num_4']",0,"[0.43655782169662416, 0.919757226947695]",,,,,,,,,2018_May_20_1504,60.1857050727,sequenceLearningTask,001,069,
min1.png,min2.png,min3.png,min4.png,allBlank.png,,,,['num_0'],,,,,,0,9,9,9,,,,,,,,,,,,,,,,,['num_0'],10,0.0584192101378,1,['num_0'],0,[0.43516500294208527],,,,,,,,,2018_May_20_1504,60.1857050727,sequenceLearningTask,001,069,
min1.png,min2.png,min3.png,min4.png,allBlank.png,,,,['num_0'],,,,,,0,9,9,9,,,,,,,,,,,,,,,,,['num_0'],10,0.0501796307508,1,['num_0'],0,[0.4945364168379456],,,,,,,,,2018_May_20_1504,60.1857050727,sequenceLearningTask,001,069,
min1.png,min2.png,min3.png,min4.png,allBlank.png,,,,['num_4'],,,,,,0,9,9,9,,,,,,,,,,,,,,,,,['num_4'],10,0.0505513222888,1,['num_4'],0,[0.8112375657074153],,,,,,,,,2018_May_20_1504,60.1857050727,sequenceLearningTask,001,069,
min1.png,min2.png,min3.png,min4.png,allBlank.png,,,,['num_1'],,,,,,0,9,9,9,,,,,,,,,,,,,,,,,['num_1'],10,0.0594949012157,1,['num_1'],0,[0.6016575158573687],,,,,,,,,2018_May_20_1504,60.1857050727,sequenceLearningTask,001,069,
min1.png,min2.png,min3.png,min4.png,allBlank.png,,,,['num_0'],,,,,,0,9,9,9,,,,,,,,,,,,,,,,,['num_0'],10,0.0482501969673,0,"['num_4', 'num_0']",0,"[0.00020882021635770798, 0.41300995321944356]",,,,,,,,,2018_May_20_1504,60.1857050727,sequenceLearningTask,001,069,
min1.png,min2.png,min3.png,min4.png,allBlank.png,,,,['num_7'],,,,,,0,0,0,0,,,,,,,,,,,,,,,,,['num_7'],1,0.0646727411076,1,['num_7'],0,[1.0127741382457316],,,,,,,,,2018_May_20_1504,60.1857050727,sequenceLearningTask,001,069,
min1.png,min2.png,min3.png,min4.png,allBlank.png,,,,['num_1'],,,,,,0,0,0,0,,,,,,,,,,,,,,,,,['num_1'],1,0.0613623859826,1,['num_1'],0,[0.4311892129480839],,,,,,,,,2018_May_20_1504,60.1857050727,sequenceLearningTask,001,069,
min1.png,min2.png,min3.png,min4.png,allBlank.png,,,,['num_4'],,,,,,0,0,0,0,,,,,,,,,,,,,,,,,['num_4'],1,0.0601115159225,1,['num_4'],0,[0.6175467271823436],,,,,,,,,2018_May_20_1504,60.1857050727,sequenceLearningTask,001,069,
min1.png,min2.png,min3.png,min4.png,allBlank.png,,,,['num_0'],,,,,,0,0,0,0,,,,,,,,,,,,,,,,,['num_0'],1,0.0575736728497,1,['num_0'],0,[0.5203480774071068],,,,,,,,,2018_May_20_1504,60.1857050727,sequenceLearningTask,001,069,
min1.png,min2.png,min3.png,min4.png,allBlank.png,,,,['num_0'],,,,,,0,0,0,0,,,,,,,,,,,,,,,,,['num_0'],1,0.0523757303599,0,"['num_7', 'num_0']",0,"[0.47448392887599766, 0.9248279901221395]",,,,,,,,,2018_May_20_1504,60.1857050727,sequenceLearningTask,001,069,
min1.png,min2.png,min3.png,min4.png,allBlank.png,,,,['num_4'],,,,,,0,0,0,0,,,,,,,,,,,,,,,,,['num_4'],1,0.0499474257231,0,"['num_7', 'num_4']",0,"[0.5596304906066507, 1.2108477405272424]",,,,,,,,,2018_May_20_1504,60.1857050727,sequenceLearningTask,001,069,
min1.png,min2.png,min3.png,min4.png,allBlank.png,,,,['num_1'],,,,,,0,0,0,0,,,,,,,,,,,,,,,,,['num_1'],1,0.0589164402336,1,['num_1'],0,[0.6023311561439186],,,,,,,,,2018_May_20_1504,60.1857050727,sequenceLearningTask,001,069,
min1.png,min2.png,min3.png,min4.png,allBlank.png,,,,['num_0'],,,,,,0,0,0,0,,,,,,,,,,,,,,,,,['num_0'],1,0.052079935791,1,['num_0'],0,[0.47580002970062196],,,,,,,,,2018_May_20_1504,60.1857050727,sequenceLearningTask,001,069,
min1.png,min2.png,min3.png,min4.png,allBlank.png,,,,['num_7'],,,,,,0,1,1,1,,,,,,,,,,,,,,,,,['num_7'],2,0.054412240861,1,['num_7'],0,[1.0203548467252403],,,,,,,,,2018_May_20_1504,60.1857050727,sequenceLearningTask,001,069,
min1.png,min2.png,min3.png,min4.png,allBlank.png,,,,['num_1'],,,,,,0,1,1,1,,,,,,,,,,,,,,,,,['num_1'],2,0.0517037310638,1,['num_1'],0,[1.0086867585778236],,,,,,,,,2018_May_20_1504,60.1857050727,sequenceLearningTask,001,069,
min1.png,min2.png,min3.png,min4.png,allBlank.png,,,,['num_4'],,,,,,0,1,1,1,,,,,,,,,,,,,,,,,['num_4'],2,0.0515174749307,1,['num_4'],0,[1.1104043768718839],,,,,,,,,2018_May_20_1504,60.1857050727,sequenceLearningTask,001,069,
min1.png,min2.png,min3.png,min4.png,allBlank.png,,,,['num_0'],,,,,,0,1,1,1,,,,,,,,,,,,,,,,,['num_0'],2,0.0507129633334,1,['num_0'],0,[0.4935148798394948],,,,,,,,,2018_May_20_1504,60.1857050727,sequenceLearningTask,001,069,
min1.png,min2.png,min3.png,min4.png,allBlank.png,,,,['num_0'],,,,,,0,1,1,1,,,,,,,,,,,,,,,,,['num_0'],2,0.050899629714,1,['num_0'],0,[0.6107381202746183],,,,,,,,,2018_May_20_1504,60.1857050727,sequenceLearningTask,001,069,
min1.png,min2.png,min3.png,min4.png,allBlank.png,,,,['num_4'],,,,,,0,1,1,1,,,,,,,,,,,,,,,,,['num_4'],2,0.0538641388994,1,['num_4'],0,[0.673692709300667],,,,,,,,,2018_May_20_1504,60.1857050727,sequenceLearningTask,001,069,
min1.png,min2.png,min3.png,min4.png,allBlank.png,,,,['num_1'],,,,,,0,1,1,1,,,,,,,,,,,,,,,,,['num_1'],2,0.0518128594849,1,['num_1'],0,[0.5428083576261997],,,,,,,,,2018_May_20_1504,60.1857050727,sequenceLearningTask,001,069,
min1.png,min2.png,min3.png,min4.png,allBlank.png,,,,['num_0'],,,,,,0,1,1,1,,,,,,,,,,,,,,,,,['num_0'],2,0.0516471159644,1,['num_0'],0,[0.45892087114043534],,,,,,,,,2018_May_20_1504,60.1857050727,sequenceLearningTask,001,069,
min1.png,min2.png,min3.png,min4.png,allBlank.png,,,,['num_7'],,,,,,0,2,2,2,,,,,,,,,,,,,,,,,['num_7'],3,0.0517041415442,1,['num_7'],0,[0.5240485859103501],,,,,,,,,2018_May_20_1504,60.1857050727,sequenceLearningTask,001,069,
min1.png,min2.png,min3.png,min4.png,allBlank.png,,,,['num_1'],,,,,,0,2,2,2,,,,,,,,,,,,,,,,,['num_1'],3,0.0537796260323,1,['num_1'],0,[0.6229998485650867],,,,,,,,,2018_May_20_1504,60.1857050727,sequenceLearningTask,001,069,
min1.png,min2.png,min3.png,min4.png,allBlank.png,,,,['num_4'],,,,,,0,2,2,2,,,,,,,,,,,,,,,,,['num_4'],3,0.0530821911525,0,"['num_4', 'num_1', 'num_1', 'num_4']",0,"[0.0006194864399731159, 0.4747637235559523, 1.0435002541635185]",,,,,,,,,2018_May_20_1504,60.1857050727,sequenceLearningTask,001,069,
min1.png,min2.png,min3.png,min4.png,allBlank.png,,,,['num_0'],,,,,,0,2,2,2,,,,,,,,,,,,,,,,,['num_0'],3,0.0529792169109,0,"['num_1', 'num_0']",0,"[0.00029907654970884323, 0.3572939191944897]",,,,,,,,,2018_May_20_1504,60.1857050727,sequenceLearningTask,001,069,
min1.png,min2.png,min3.png,min4.png,allBlank.png,,,,['num_0'],,,,,,0,2,2,2,,,,,,,,,,,,,,,,,['num_0'],3,0.0619613595773,1,['num_0'],0,[0.7157127601094544],,,,,,,,,2018_May_20_1504,60.1857050727,sequenceLearningTask,001,069,
min1.png,min2.png,min3.png,min4.png,allBlank.png,,,,['num_4'],,,,,,0,2,2,2,,,,,,,,,,,,,,,,,['num_4'],3,0.0581701847259,1,['num_4'],0,[0.918281126068905],,,,,,,,,2018_May_20_1504,60.1857050727,sequenceLearningTask,001,069,
min1.png,min2.png,min3.png,min4.png,allBlank.png,,,,['num_1'],,,,,,0,2,2,2,,,,,,,,,,,,,,,,,['num_1'],3,0.057155211689,0,"['num_0', 'num_1']",0,"[0.7369361186865717, 1.9705292670987546]",,,,,,,,,2018_May_20_1504,60.1857050727,sequenceLearningTask,001,069,
min1.png,min2.png,min3.png,min4.png,allBlank.png,,,,['num_0'],,,,,,0,2,2,2,,,,,,,,,,,,,,,,,['num_0'],3,0.0589829017408,1,['num_0'],0,[0.8015251674223691],,,,,,,,,2018_May_20_1504,60.1857050727,sequenceLearningTask,001,069,
min1.png,min2.png,min3.png,min4.png,allBlank.png,,,,['num_7'],,,,,,0,3,3,3,,,,,,,,,,,,,,,,,['num_7'],4,0.0565230073407,1,['num_7'],0,[0.9032222728710622],,,,,,,,,2018_May_20_1504,60.1857050727,sequenceLearningTask,001,069,
min1.png,min2.png,min3.png,min4.png,allBlank.png,,,,['num_1'],,,,,,0,3,3,3,,,,,,,,,,,,,,,,,['num_1'],4,0.0481193254236,1,['num_1'],0,[1.1304683522321284],,,,,,,,,2018_May_20_1504,60.1857050727,sequenceLearningTask,001,069,
min1.png,min2.png,min3.png,min4.png,allBlank.png,,,,['num_4'],,,,,,0,3,3,3,,,,,,,,,,,,,,,,,['num_4'],4,0.0609734633472,1,['num_4'],0,[1.7169537842273712],,,,,,,,,2018_May_20_1504,60.1857050727,sequenceLearningTask,001,069,
min1.png,min2.png,min3.png,min4.png,allBlank.png,,,,['num_0'],,,,,,0,3,3,3,,,,,,,,,,,,,,,,,['num_0'],4,0.0591794142965,1,['num_0'],0,[0.5681121211964637],,,,,,,,,2018_May_20_1504,60.1857050727,sequenceLearningTask,001,069,
min1.png,min2.png,min3.png,min4.png,allBlank.png,,,,['num_0'],,,,,,0,3,3,3,,,,,,,,,,,,,,,,,['num_0'],4,0.0453037391417,1,['num_0'],0,[0.732255098875612],,,,,,,,,2018_May_20_1504,60.1857050727,sequenceLearningTask,001,069,
min1.png,min2.png,min3.png,min4.png,allBlank.png,,,,['num_4'],,,,,,0,3,3,3,,,,,,,,,,,,,,,,,['num_4'],4,0.051449372666,1,['num_4'],0,[1.1257573836483061],,,,,,,,,2018_May_20_1504,60.1857050727,sequenceLearningTask,001,069,
min1.png,min2.png,min3.png,min4.png,allBlank.png,,,,['num_1'],,,,,,0,3,3,3,,,,,,,,,,,,,,,,,['num_1'],4,0.0587215689011,1,['num_1'],0,[0.9864061705302447],,,,,,,,,2018_May_20_1504,60.1857050727,sequenceLearningTask,001,069,
min1.png,min2.png,min3.png,min4.png,allBlank.png,,,,['num_0'],,,,,,0,3,3,3,,,,,,,,,,,,,,,,,['num_0'],4,0.054579625139,1,['num_0'],0,[0.4064306793734431],,,,,,,,,2018_May_20_1504,60.1857050727,sequenceLearningTask,001,069,
min1.png,min2.png,min3.png,min4.png,allBlank.png,,,,['num_7'],,,,,,0,4,4,4,,,,,,,,,,,,,,,,,['num_7'],5,0.055594598176,1,['num_7'],0,[0.95084970141761],,,,,,,,,2018_May_20_1504,60.1857050727,sequenceLearningTask,001,069,
min1.png,min2.png,min3.png,min4.png,allBlank.png,,,,['num_1'],,,,,,0,4,4,4,,,,,,,,,,,,,,,,,['num_1'],5,0.0558542900253,1,['num_1'],0,[0.0895215307828039],,,,,,,,,2018_May_20_1504,60.1857050727,sequenceLearningTask,001,069,
min1.png,min2.png,min3.png,min4.png,allBlank.png,,,,['num_4'],,,,,,0,4,4,4,,,,,,,,,,,,,,,,,['num_4'],5,0.0551929578651,1,['num_4'],0,[0.20534415752626956],,,,,,,,,2018_May_20_1504,60.1857050727,sequenceLearningTask,001,069,
min1.png,min2.png,min3.png,min4.png,allBlank.png,,,,['num_0'],,,,,,0,4,4,4,,,,,,,,,,,,,,,,,['num_0'],5,0.0604803357273,0,"['num_0', 'num_0']",0,"[0.0002847174182534218, 0.8349163057282567]",,,,,,,,,2018_May_20_1504,60.1857050727,sequenceLearningTask,001,069,
min1.png,min2.png,min3.png,min4.png,allBlank.png,,,,['num_0'],,,,,,0,4,4,4,,,,,,,,,,,,,,,,,['num_0'],5,0.0566005457658,1,['num_0'],0,[0.30264208908192813],,,,,,,,,2018_May_20_1504,60.1857050727,sequenceLearningTask,001,069,
min1.png,min2.png,min3.png,min4.png,allBlank.png,,,,['num_4'],,,,,,0,4,4,4,,,,,,,,,,,,,,,,,['num_4'],5,0.0523310124408,1,['num_4'],0,[0.8765039467252791],,,,,,,,,2018_May_20_1504,60.1857050727,sequenceLearningTask,001,069,
min1.png,min2.png,min3.png,min4.png,allBlank.png,,,,['num_1'],,,,,,0,4,4,4,,,,,,,,,,,,,,,,,['num_1'],5,0.0543453688733,0,"['num_7', 'num_1']",0,"[0.3238962166942656, 1.4239272731356323]",,,,,,,,,2018_May_20_1504,60.1857050727,sequenceLearningTask,001,069,
min1.png,min2.png,min3.png,min4.png,allBlank.png,,,,['num_0'],,,,,,0,4,4,4,,,,,,,,,,,,,,,,,['num_0'],5,0.0535494727083,1,['num_0'],0,[0.6740996830631047],,,,,,,,,2018_May_20_1504,60.1857050727,sequenceLearningTask,001,069,
min1.png,min2.png,min3.png,min4.png,allBlank.png,,,,['num_7'],,,,,,0,5,5,5,,,,,,,,,,,,,,,,,['num_7'],6,0.0511802446563,1,['num_7'],0,[0.7759190450888127],,,,,,,,,2018_May_20_1504,60.1857050727,sequenceLearningTask,001,069,
min1.png,min2.png,min3.png,min4.png,allBlank.png,,,,['num_1'],,,,,,0,5,5,5,,,,,,,,,,,,,,,,,['num_1'],6,0.0477263000794,1,['num_1'],0,[0.4301430603954941],,,,,,,,,2018_May_20_1504,60.1857050727,sequenceLearningTask,001,069,
min1.png,min2.png,min3.png,min4.png,allBlank.png,,,,['num_4'],,,,,,0,5,5,5,,,,,,,,,,,,,,,,,['num_4'],6,0.0531080372166,1,['num_4'],0,[0.30756105738691986],,,,,,,,,2018_May_20_1504,60.1857050727,sequenceLearningTask,001,069,
min1.png,min2.png,min3.png,min4.png,allBlank.png,,,,['num_0'],,,,,,0,5,5,5,,,,,,,,,,,,,,,,,['num_0'],6,0.0541070103645,1,['num_0'],0,[0.5901001966558397],,,,,,,,,2018_May_20_1504,60.1857050727,sequenceLearningTask,001,069,
min1.png,min2.png,min3.png,min4.png,allBlank.png,,,,['num_0'],,,,,,0,5,5,5,,,,,,,,,,,,,,,,,['num_0'],6,0.0531018835027,0,"['num_1', 'num_0']",0,"[0.3744200519286096, 0.7914763591252267]",,,,,,,,,2018_May_20_1504,60.1857050727,sequenceLearningTask,001,069,
min1.png,min2.png,min3.png,min4.png,allBlank.png,,,,['num_4'],,,,,,0,5,5,5,,,,,,,,,,,,,,,,,['num_4'],6,0.0560105978511,1,['num_4'],0,[0.8891164441592991],,,,,,,,,2018_May_20_1504,60.1857050727,sequenceLearningTask,001,069,
min1.png,min2.png,min3.png,min4.png,allBlank.png,,,,['num_1'],,,,,,0,5,5,5,,,,,,,,,,,,,,,,,['num_1'],6,0.0550784962252,1,['num_1'],0,[0.5060715822037309],,,,,,,,,2018_May_20_1504,60.1857050727,sequenceLearningTask,001,069,
min1.png,min2.png,min3.png,min4.png,allBlank.png,,,,['num_0'],,,,,,0,5,5,5,,,,,,,,,,,,,,,,,['num_0'],6,0.059209773317,1,['num_0'],0,[0.5351747260428965],,,,,,,,,2018_May_20_1504,60.1857050727,sequenceLearningTask,001,069,
min1.png,min2.png,min3.png,min4.png,allBlank.png,,,,['num_7'],,,,,,0,6,6,6,,,,,,,,,,,,,,,,,['num_7'],7,0.0519137822557,1,['num_7'],0,[0.32469498505815864],,,,,,,,,2018_May_20_1504,60.1857050727,sequenceLearningTask,001,069,
min1.png,min2.png,min3.png,min4.png,allBlank.png,,,,['num_1'],,,,,,0,6,6,6,,,,,,,,,,,,,,,,,['num_1'],7,0.0615121293813,1,['num_1'],0,[1.364438525866717],,,,,,,,,2018_May_20_1504,60.1857050727,sequenceLearningTask,001,069,
min1.png,min2.png,min3.png,min4.png,allBlank.png,,,,['num_4'],,,,,,0,6,6,6,,,,,,,,,,,,,,,,,['num_4'],7,0.0530103961937,1,['num_4'],0,[0.2587377328891307],,,,,,,,,2018_May_20_1504,60.1857050727,sequenceLearningTask,001,069,
min1.png,min2.png,min3.png,min4.png,allBlank.png,,,,['num_0'],,,,,,0,6,6,6,,,,,,,,,,,,,,,,,['num_0'],7,0.0537935749162,1,['num_0'],0,[0.3236217556986958],,,,,,,,,2018_May_20_1504,60.1857050727,sequenceLearningTask,001,069,
min1.png,min2.png,min3.png,min4.png,allBlank.png,,,,['num_0'],,,,,,0,6,6,6,,,,,,,,,,,,,,,,,['num_0'],7,0.0641566391569,1,['num_0'],0,[0.5954786515794694],,,,,,,,,2018_May_20_1504,60.1857050727,sequenceLearningTask,001,069,
min1.png,min2.png,min3.png,min4.png,allBlank.png,,,,['num_4'],,,,,,0,6,6,6,,,,,,,,,,,,,,,,,['num_4'],7,0.0506797325797,1,['num_4'],0,[1.0945803965441883],,,,,,,,,2018_May_20_1504,60.1857050727,sequenceLearningTask,001,069,
min1.png,min2.png,min3.png,min4.png,allBlank.png,,,,['num_1'],,,,,,0,6,6,6,,,,,,,,,,,,,,,,,['num_1'],7,0.0556212649681,0,"['num_1', 'num_7', 'num_1']",0,"[0.00027774320915341377, 0.3887125472538173, 0.8380596863571554]",,,,,,,,,2018_May_20_1504,60.1857050727,sequenceLearningTask,001,069,
min1.png,min2.png,min3.png,min4.png,allBlank.png,,,,['num_0'],,,,,,0,6,6,6,,,,,,,,,,,,,,,,,['num_0'],7,0.0582378769759,0,"['num_7', 'num_0']",0,"[0.0002826661802828312, 0.7190116278361529]",,,,,,,,,2018_May_20_1504,60.1857050727,sequenceLearningTask,001,069,
min1.png,min2.png,min3.png,min4.png,allBlank.png,,,,['num_7'],,,,,,0,7,7,7,,,,,,,,,,,,,,,,,['num_7'],8,0.042841383256,0,"['num_0', 'num_7']",0,"[0.4516860081348568, 0.9345900292973965]",,,,,,,,,2018_May_20_1504,60.1857050727,sequenceLearningTask,001,069,
min1.png,min2.png,min3.png,min4.png,allBlank.png,,,,['num_1'],,,,,,0,7,7,7,,,,,,,,,,,,,,,,,['num_1'],8,0.0527761401609,1,['num_1'],0,[0.9413592517375946],,,,,,,,,2018_May_20_1504,60.1857050727,sequenceLearningTask,001,069,
min1.png,min2.png,min3.png,min4.png,allBlank.png,,,,['num_4'],,,,,,0,7,7,7,,,,,,,,,,,,,,,,,['num_4'],8,0.0561894692946,1,['num_4'],0,[0.8704723645932972],,,,,,,,,2018_May_20_1504,60.1857050727,sequenceLearningTask,001,069,
min1.png,min2.png,min3.png,min4.png,allBlank.png,,,,['num_0'],,,,,,0,7,7,7,,,,,,,,,,,,,,,,,['num_0'],8,0.0558719311375,1,['num_0'],0,[0.5894072744995356],,,,,,,,,2018_May_20_1504,60.1857050727,sequenceLearningTask,001,069,
min1.png,min2.png,min3.png,min4.png,allBlank.png,,,,['num_0'],,,,,,0,7,7,7,,,,,,,,,,,,,,,,,['num_0'],8,0.0538403440733,1,['num_0'],0,[0.5233408943749964],,,,,,,,,2018_May_20_1504,60.1857050727,sequenceLearningTask,001,069,
min1.png,min2.png,min3.png,min4.png,allBlank.png,,,,['num_4'],,,,,,0,7,7,7,,,,,,,,,,,,,,,,,['num_4'],8,0.0498095797375,1,['num_4'],0,[1.2963639427907765],,,,,,,,,2018_May_20_1504,60.1857050727,sequenceLearningTask,001,069,
min1.png,min2.png,min3.png,min4.png,allBlank.png,,,,['num_1'],,,,,,0,7,7,7,,,,,,,,,,,,,,,,,['num_1'],8,0.055422290694,1,['num_1'],0,[1.4048499632626772],,,,,,,,,2018_May_20_1504,60.1857050727,sequenceLearningTask,001,069,
min1.png,min2.png,min3.png,min4.png,allBlank.png,,,,['num_0'],,,,,,0,7,7,7,,,,,,,,,,,,,,,,,['num_0'],8,0.058404030744,1,['num_0'],0,[0.8521404897328466],,,,,,,,,2018_May_20_1504,60.1857050727,sequenceLearningTask,001,069,
min1.png,min2.png,min3.png,min4.png,allBlank.png,,,,['num_7'],,,,,,0,8,8,8,,,,,,,,,,,,,,,,,['num_7'],9,0.0514739879873,1,['num_7'],0,[0.8423817325383425],,,,,,,,,2018_May_20_1504,60.1857050727,sequenceLearningTask,001,069,
min1.png,min2.png,min3.png,min4.png,allBlank.png,,,,['num_1'],,,,,,0,8,8,8,,,,,,,,,,,,,,,,,['num_1'],9,0.0544417791534,1,['num_1'],0,[0.9898367305286229],,,,,,,,,2018_May_20_1504,60.1857050727,sequenceLearningTask,001,069,
min1.png,min2.png,min3.png,min4.png,allBlank.png,,,,['num_4'],,,,,,0,8,8,8,,,,,,,,,,,,,,,,,['num_4'],9,0.0593644399196,1,['num_4'],0,[0.7855612896382809],,,,,,,,,2018_May_20_1504,60.1857050727,sequenceLearningTask,001,069,
min1.png,min2.png,min3.png,min4.png,allBlank.png,,,,['num_0'],,,,,,0,8,8,8,,,,,,,,,,,,,,,,,['num_0'],9,0.0640306905843,1,['num_0'],0,[0.6128718610852957],,,,,,,,,2018_May_20_1504,60.1857050727,sequenceLearningTask,001,069,
min1.png,min2.png,min3.png,min4.png,allBlank.png,,,,['num_0'],,,,,,0,8,8,8,,,,,,,,,,,,,,,,,['num_0'],9,0.0523982944433,1,['num_0'],0,[0.892155209556222],,,,,,,,,2018_May_20_1504,60.1857050727,sequenceLearningTask,001,069,
min1.png,min2.png,min3.png,min4.png,allBlank.png,,,,['num_4'],,,,,,0,8,8,8,,,,,,,,,,,,,,,,,['num_4'],9,0.0524426021148,1,['num_4'],0,[2.1588999070227146],,,,,,,,,2018_May_20_1504,60.1857050727,sequenceLearningTask,001,069,
min1.png,min2.png,min3.png,min4.png,allBlank.png,,,,['num_1'],,,,,,0,8,8,8,,,,,,,,,,,,,,,,,['num_1'],9,0.0591773630586,1,['num_1'],0,[1.9678076293785125],,,,,,,,,2018_May_20_1504,60.1857050727,sequenceLearningTask,001,069,
min1.png,min2.png,min3.png,min4.png,allBlank.png,,,,['num_0'],,,,,,0,8,8,8,,,,,,,,,,,,,,,,,['num_0'],9,0.0543174715713,1,['num_0'],0,[0.6224300032481551],,,,,,,,,2018_May_20_1504,60.1857050727,sequenceLearningTask,001,069,
min1.png,min2.png,min3.png,min4.png,allBlank.png,,,,['num_7'],,,,,,0,9,9,9,,,,,,,,,,,,,,,,,['num_7'],10,0.0566953148227,1,['num_7'],0,[0.6198363653384149],,,,,,,,,2018_May_20_1504,60.1857050727,sequenceLearningTask,001,069,
min1.png,min2.png,min3.png,min4.png,allBlank.png,,,,['num_1'],,,,,,0,9,9,9,,,,,,,,,,,,,,,,,['num_1'],10,0.0547437276691,1,['num_1'],0,[1.0061768130399287],,,,,,,,,2018_May_20_1504,60.1857050727,sequenceLearningTask,001,069,
min1.png,min2.png,min3.png,min4.png,allBlank.png,,,,['num_4'],,,,,,0,9,9,9,,,,,,,,,,,,,,,,,['num_4'],10,0.0508446553722,1,['num_4'],0,[0.4433721723034978],,,,,,,,,2018_May_20_1504,60.1857050727,sequenceLearningTask,001,069,
min1.png,min2.png,min3.png,min4.png,allBlank.png,,,,['num_0'],,,,,,0,9,9,9,,,,,,,,,,,,,,,,,['num_0'],10,0.0599121314008,0,"['num_0', 'num_0']",0,"[0.0006260506343096495, 0.5184087976813316]",,,,,,,,,2018_May_20_1504,60.1857050727,sequenceLearningTask,001,069,
min1.png,min2.png,min3.png,min4.png,allBlank.png,,,,['num_0'],,,,,,0,9,9,9,,,,,,,,,,,,,,,,,['num_0'],10,0.0586378765292,1,['num_0'],0,[0.28574980213306844],,,,,,,,,2018_May_20_1504,60.1857050727,sequenceLearningTask,001,069,
min1.png,min2.png,min3.png,min4.png,allBlank.png,,,,['num_4'],,,,,,0,9,9,9,,,,,,,,,,,,,,,,,['num_4'],10,0.0576220829971,1,['num_4'],0,[0.7868285700678825],,,,,,,,,2018_May_20_1504,60.1857050727,sequenceLearningTask,001,069,
min1.png,min2.png,min3.png,min4.png,allBlank.png,,,,['num_1'],,,,,,0,9,9,9,,,,,,,,,,,,,,,,,['num_1'],10,0.0496951183304,1,['num_1'],0,[0.9788041287101805],,,,,,,,,2018_May_20_1504,60.1857050727,sequenceLearningTask,001,069,
min1.png,min2.png,min3.png,min4.png,allBlank.png,,,,['num_0'],,,,,,0,9,9,9,,,,,,,,,,,,,,,,,['num_0'],10,0.0572585961781,1,['num_0'],0,[0.37102026119828224],,,,,,,,,2018_May_20_1504,60.1857050727,sequenceLearningTask,001,069,
min1.png,min2.png,min3.png,min4.png,images/allBlank.png,images/min1.png,'num_7',"['num_7', 'num_4', 'num_1', 'num_0']",['num_7'],num_7,,,,,0,9,9,9,0,0,0,0,,,,,,,,,,,,,['num_7'],,0.0593931577168,1,['num_7'],0,[0.5700214523822069],1,,,,,,,,2018_May_20_1504,60.1857050727,sequenceLearningTask,001,069,
min1.png,min2.png,min3.png,min4.png,images/allBlank.png,images/min3.png,'num_1',"['num_7', 'num_4', 'num_1', 'num_0']",['num_1'],num_1,,,,,0,9,9,9,0,1,1,2,,,,,,,,,,,,,['num_1'],,0.0548873168882,1,['num_1'],0,[0.3693419045303017],1,,,,,,,,2018_May_20_1504,60.1857050727,sequenceLearningTask,001,069,
min1.png,min2.png,min3.png,min4.png,images/allBlank.png,images/min4.png,'num_0',"['num_7', 'num_4', 'num_1', 'num_0']",['num_0'],num_0,,,,,0,9,9,9,0,2,2,3,,,,,,,,,,,,,['num_0'],,0.0516495776828,0,"['num_4', 'num_0']",0,"[0.00019733328372240067, 1.1923160711303353]",0,,,,,,,,2018_May_20_1504,60.1857050727,sequenceLearningTask,001,069,
min1.png,min2.png,min3.png,min4.png,images/allBlank.png,images/min2.png,'num_4',"['num_7', 'num_4', 'num_1', 'num_0']",['num_4'],num_4,,,,,0,9,9,9,0,3,3,1,,,,,,,,,,,,,['num_4'],,0.050589886494,1,['num_4'],0,[0.6753743484150618],1,,,,,,,,2018_May_20_1504,60.1857050727,sequenceLearningTask,001,069,
min1.png,min2.png,min3.png,min4.png,images/allBlank.png,images/min4.png,'num_0',"['num_7', 'num_4', 'num_1', 'num_0']",['num_0'],num_0,,,,,0,9,9,9,1,0,4,3,,,,,,,,,,,,,['num_0'],,0.0563785971608,1,['num_0'],0,[0.370576364453882],1,,,,,,,,2018_May_20_1504,60.1857050727,sequenceLearningTask,001,069,
min1.png,min2.png,min3.png,min4.png,images/allBlank.png,images/min2.png,'num_4',"['num_7', 'num_4', 'num_1', 'num_0']",['num_4'],num_4,,,,,0,9,9,9,1,1,5,1,,,,,,,,,,,,,['num_4'],,0.0565254688263,1,['num_4'],0,[1.3030708064325154],1,,,,,,,,2018_May_20_1504,60.1857050727,sequenceLearningTask,001,069,
min1.png,min2.png,min3.png,min4.png,images/allBlank.png,images/min3.png,'num_1',"['num_7', 'num_4', 'num_1', 'num_0']",['num_1'],num_1,,,,,0,9,9,9,1,2,6,2,,,,,,,,,,,,,['num_1'],,0.0547859838698,1,['num_1'],0,[1.0379314406309277],1,,,,,,,,2018_May_20_1504,60.1857050727,sequenceLearningTask,001,069,
min1.png,min2.png,min3.png,min4.png,images/allBlank.png,images/min1.png,'num_7',"['num_7', 'num_4', 'num_1', 'num_0']",['num_7'],num_7,,,,,0,9,9,9,1,3,7,0,,,,,,,,,,,,,['num_7'],,0.0530924475752,1,['num_7'],0,[0.7059367722831666],1,,,,,,,,2018_May_20_1504,60.1857050727,sequenceLearningTask,001,069,
min1.png,min2.png,min3.png,min4.png,images/allBlank.png,images/min2.png,'num_4',"['num_7', 'num_4', 'num_1', 'num_0']",['num_4'],num_4,,,,,0,9,9,9,2,0,8,1,,,,,,,,,,,,,['num_4'],,0.0458046614658,1,['num_4'],0,[0.48164084320887923],1,,,,,,,,2018_May_20_1504,60.1857050727,sequenceLearningTask,001,069,
min1.png,min2.png,min3.png,min4.png,images/allBlank.png,images/min4.png,'num_0',"['num_7', 'num_4', 'num_1', 'num_0']",['num_0'],num_0,,,,,0,9,9,9,2,1,9,3,,,,,,,,,,,,,['num_0'],,0.0584745947272,0,"['num_1', 'num_0']",0,"[0.8821224013809115, 1.3979945869650692]",0,,,,,,,,2018_May_20_1504,60.1857050727,sequenceLearningTask,001,069,
min1.png,min2.png,min3.png,min4.png,images/allBlank.png,images/min3.png,'num_1',"['num_7', 'num_4', 'num_1', 'num_0']",['num_1'],num_1,,,,,0,9,9,9,2,2,10,2,,,,,,,,,,,,,['num_1'],,0.064214484999,0,"['num_4', 'num_1']",0,"[0.5104047053027898, 0.9439381205011159]",0,,,,,,,,2018_May_20_1504,60.1857050727,sequenceLearningTask,001,069,
min1.png,min2.png,min3.png,min4.png,images/allBlank.png,images/min1.png,'num_7',"['num_7', 'num_4', 'num_1', 'num_0']",['num_7'],num_7,,,,,0,9,9,9,2,3,11,0,,,,,,,,,,,,,['num_7'],,0.055748854531,1,['num_7'],0,[0.5688805305399001],1,,,,,,,,2018_May_20_1504,60.1857050727,sequenceLearningTask,001,069,
min1.png,min2.png,min3.png,min4.png,images/allBlank.png,images/min3.png,'num_1',"['num_7', 'num_4', 'num_1', 'num_0']",['num_1'],num_1,,,,,0,9,9,9,3,0,12,2,,,,,,,,,,,,,['num_1'],,0.0553886496928,1,['num_1'],0,[0.8705872362479568],1,,,,,,,,2018_May_20_1504,60.1857050727,sequenceLearningTask,001,069,
min1.png,min2.png,min3.png,min4.png,images/allBlank.png,images/min2.png,'num_4',"['num_7', 'num_4', 'num_1', 'num_0']",['num_4'],num_4,,,,,0,9,9,9,3,1,13,1,,,,,,,,,,,,,['num_4'],,0.0455958412495,1,['num_4'],0,[0.8963738712482154],1,,,,,,,,2018_May_20_1504,60.1857050727,sequenceLearningTask,001,069,
min1.png,min2.png,min3.png,min4.png,images/allBlank.png,images/min1.png,'num_7',"['num_7', 'num_4', 'num_1', 'num_0']",['num_7'],num_7,,,,,0,9,9,9,3,2,14,0,,,,,,,,,,,,,['num_7'],,0.0593615681864,1,['num_7'],0,[0.6505801223684102],1,,,,,,,,2018_May_20_1504,60.1857050727,sequenceLearningTask,001,069,
min1.png,min2.png,min3.png,min4.png,images/allBlank.png,images/min4.png,'num_0',"['num_7', 'num_4', 'num_1', 'num_0']",['num_0'],num_0,,,,,0,9,9,9,3,3,15,3,,,,,,,,,,,,,['num_0'],,0.0565586995799,1,['num_0'],0,[0.787224467145279],1,,,,,,,,2018_May_20_1504,60.1857050727,sequenceLearningTask,001,069,
min1.png,min2.png,min3.png,min4.png,images/allBlank.png,images/min4.png,'num_0',"['num_7', 'num_4', 'num_1', 'num_0']",['num_0'],num_0,,,,,0,9,9,9,4,0,16,3,,,,,,,,,,,,,['num_0'],,0.0557414698415,1,['num_0'],0,[0.8338594865053892],1,,,,,,,,2018_May_20_1504,60.1857050727,sequenceLearningTask,001,069,
min1.png,min2.png,min3.png,min4.png,images/allBlank.png,images/min3.png,'num_1',"['num_7', 'num_4', 'num_1', 'num_0']",['num_1'],num_1,,,,,0,9,9,9,4,1,17,2,,,,,,,,,,,,,['num_1'],,0.0585307995789,1,['num_1'],0,[0.7668072613887489],1,,,,,,,,2018_May_20_1504,60.1857050727,sequenceLearningTask,001,069,
min1.png,min2.png,min3.png,min4.png,images/allBlank.png,images/min1.png,'num_7',"['num_7', 'num_4', 'num_1', 'num_0']",['num_7'],num_7,,,,,0,9,9,9,4,2,18,0,,,,,,,,,,,,,['num_7'],,0.052029064158,1,['num_7'],0,[8.323682473506778],1,,,,,,,,2018_May_20_1504,60.1857050727,sequenceLearningTask,001,069,
min1.png,min2.png,min3.png,min4.png,images/allBlank.png,images/min2.png,'num_4',"['num_7', 'num_4', 'num_1', 'num_0']",['num_4'],num_4,,,,,0,9,9,9,4,3,19,1,,,,,,,,,,,,,['num_4'],,0.0583059794735,1,['num_4'],0,[2.334419280756265],1,,,,,,,,2018_May_20_1504,60.1857050727,sequenceLearningTask,001,069,
min1.png,min2.png,min3.png,min4.png,images/allBlank.png,images/min2.png,'num_4',"['num_7', 'num_4', 'num_1', 'num_0']",['num_4'],num_4,,,,,0,9,9,9,5,0,20,1,,,,,,,,,,,,,['num_4'],,0.0513468084391,1,['num_4'],0,[0.9062072949018329],1,,,,,,,,2018_May_20_1504,60.1857050727,sequenceLearningTask,001,069,
min1.png,min2.png,min3.png,min4.png,images/allBlank.png,images/min1.png,'num_7',"['num_7', 'num_4', 'num_1', 'num_0']",['num_7'],num_7,,,,,0,9,9,9,5,1,21,0,,,,,,,,,,,,,['num_7'],,0.0507466041017,1,['num_7'],0,[0.5583603384438902],1,,,,,,,,2018_May_20_1504,60.1857050727,sequenceLearningTask,001,069,
min1.png,min2.png,min3.png,min4.png,images/allBlank.png,images/min3.png,'num_1',"['num_7', 'num_4', 'num_1', 'num_0']",['num_1'],num_1,,,,,0,9,9,9,5,2,22,2,,,,,,,,,,,,,['num_1'],,0.0511712192092,1,['num_1'],0,[1.0584967485629022],1,,,,,,,,2018_May_20_1504,60.1857050727,sequenceLearningTask,001,069,
min1.png,min2.png,min3.png,min4.png,images/allBlank.png,images/min4.png,'num_0',"['num_7', 'num_4', 'num_1', 'num_0']",['num_0'],num_0,,,,,0,9,9,9,5,3,23,3,,,,,,,,,,,,,['num_0'],,0.0538846517447,1,['num_0'],0,[0.8372149695642292],1,,,,,,,,2018_May_20_1504,60.1857050727,sequenceLearningTask,001,069,
min1.png,min2.png,min3.png,min4.png,images/allBlank.png,images/min1.png,'num_7',"['num_7', 'num_4', 'num_1', 'num_0']",['num_7'],num_7,,,,,0,9,9,9,6,0,24,0,,,,,,,,,,,,,['num_7'],,0.0512298857793,1,['num_7'],0,[0.9230441972613335],1,,,,,,,,2018_May_20_1504,60.1857050727,sequenceLearningTask,001,069,
min1.png,min2.png,min3.png,min4.png,images/allBlank.png,images/min2.png,'num_4',"['num_7', 'num_4', 'num_1', 'num_0']",['num_4'],num_4,,,,,0,9,9,9,6,1,25,1,,,,,,,,,,,,,['num_4'],,0.0562034179457,1,['num_4'],0,[0.8362151759210974],1,,,,,,,,2018_May_20_1504,60.1857050727,sequenceLearningTask,001,069,
min1.png,min2.png,min3.png,min4.png,images/allBlank.png,images/min4.png,'num_0',"['num_7', 'num_4', 'num_1', 'num_0']",['num_0'],num_0,,,,,0,9,9,9,6,2,26,3,,,,,,,,,,,,,['num_0'],,0.0618107956834,1,['num_0'],0,[0.5628239226061851],1,,,,,,,,2018_May_20_1504,60.1857050727,sequenceLearningTask,001,069,
min1.png,min2.png,min3.png,min4.png,images/allBlank.png,images/min3.png,'num_1',"['num_7', 'num_4', 'num_1', 'num_0']",['num_1'],num_1,,,,,0,9,9,9,6,3,27,2,,,,,,,,,,,,,['num_1'],,0.0573357243557,1,['num_1'],0,[0.3686744181904942],1,,,,,,,,2018_May_20_1504,60.1857050727,sequenceLearningTask,001,069,
min1.png,min2.png,min3.png,min4.png,images/allBlank.png,images/min2.png,'num_4',"['num_7', 'num_4', 'num_1', 'num_0']",['num_4'],num_4,,,,,0,9,9,9,7,0,28,1,,,,,,,,,,,,,['num_4'],,0.0607236176729,1,['num_4'],0,[0.39842535578645766],1,,,,,,,,2018_May_20_1504,60.1857050727,sequenceLearningTask,001,069,
min1.png,min2.png,min3.png,min4.png,images/allBlank.png,images/min3.png,'num_1',"['num_7', 'num_4', 'num_1', 'num_0']",['num_1'],num_1,,,,,0,9,9,9,7,1,29,2,,,,,,,,,,,,,['num_1'],,0.0549775732215,1,['num_1'],0,[0.903985348995775],1,,,,,,,,2018_May_20_1504,60.1857050727,sequenceLearningTask,001,069,
min1.png,min2.png,min3.png,min4.png,images/allBlank.png,images/min4.png,'num_0',"['num_7', 'num_4', 'num_1', 'num_0']",['num_0'],num_0,,,,,0,9,9,9,7,2,30,3,,,,,,,,,,,,,['num_0'],,0.0559006491676,1,['num_0'],0,[0.8039186003152281],1,,,,,,,,2018_May_20_1504,60.1857050727,sequenceLearningTask,001,069,
min1.png,min2.png,min3.png,min4.png,images/allBlank.png,images/min1.png,'num_7',"['num_7', 'num_4', 'num_1', 'num_0']",['num_7'],num_7,,,,,0,9,9,9,7,3,31,0,,,,,,,,,,,,,['num_7'],,0.0585623895749,1,['num_7'],0,[0.9507770861964673],1,,,,,,,,2018_May_20_1504,60.1857050727,sequenceLearningTask,001,069,
min1.png,min2.png,min3.png,min4.png,images/allBlank.png,images/min1.png,'num_7',"['num_7', 'num_4', 'num_1', 'num_0']",['num_7'],num_7,,,,,0,9,9,9,8,0,32,0,,,,,,,,,,,,,['num_7'],,0.0545369584579,1,['num_7'],0,[0.9047541683539748],1,,,,,,,,2018_May_20_1504,60.1857050727,sequenceLearningTask,001,069,
min1.png,min2.png,min3.png,min4.png,images/allBlank.png,images/min2.png,'num_4',"['num_7', 'num_4', 'num_1', 'num_0']",['num_4'],num_4,,,,,0,9,9,9,8,1,33,1,,,,,,,,,,,,,['num_4'],,0.0528360377066,1,['num_4'],0,[1.9559590285643935],1,,,,,,,,2018_May_20_1504,60.1857050727,sequenceLearningTask,001,069,
min1.png,min2.png,min3.png,min4.png,images/allBlank.png,images/min3.png,'num_1',"['num_7', 'num_4', 'num_1', 'num_0']",['num_1'],num_1,,,,,0,9,9,9,8,2,34,2,,,,,,,,,,,,,['num_1'],,0.056119315559,0,"['num_0', 'num_1']",0,"[0.7027572889346629, 1.5031591756269336]",0,,,,,,,,2018_May_20_1504,60.1857050727,sequenceLearningTask,001,069,
min1.png,min2.png,min3.png,min4.png,images/allBlank.png,images/min4.png,'num_0',"['num_7', 'num_4', 'num_1', 'num_0']",['num_0'],num_0,,,,,0,9,9,9,8,3,35,3,,,,,,,,,,,,,['num_0'],,0.0485410685651,1,['num_0'],0,[3.077701647998765],1,,,,,,,,2018_May_20_1504,60.1857050727,sequenceLearningTask,001,069,
min1.png,min2.png,min3.png,min4.png,images/allBlank.png,images/min2.png,'num_4',"['num_7', 'num_4', 'num_1', 'num_0']",['num_4'],num_4,,,,,0,9,9,9,9,0,36,1,,,,,,,,,,,,,['num_4'],,0.0584635178093,1,['num_4'],0,[2.833618256263435],1,,,,,,,,2018_May_20_1504,60.1857050727,sequenceLearningTask,001,069,
min1.png,min2.png,min3.png,min4.png,images/allBlank.png,images/min1.png,'num_7',"['num_7', 'num_4', 'num_1', 'num_0']",['num_7'],num_7,,,,,0,9,9,9,9,1,37,0,,,,,,,,,,,,,['num_7'],,0.0568188019097,0,"['num_4', 'num_7']",0,"[0.7681828492786735, 1.1348539877217263]",0,,,,,,,,2018_May_20_1504,60.1857050727,sequenceLearningTask,001,069,
min1.png,min2.png,min3.png,min4.png,images/allBlank.png,images/min3.png,'num_1',"['num_7', 'num_4', 'num_1', 'num_0']",['num_1'],num_1,,,,,0,9,9,9,9,2,38,2,,,,,,,,,,,,,['num_1'],,0.0579141851049,1,['num_1'],0,[0.45049667614512146],1,,,,,,,,2018_May_20_1504,60.1857050727,sequenceLearningTask,001,069,
min1.png,min2.png,min3.png,min4.png,images/allBlank.png,images/min4.png,'num_0',"['num_7', 'num_4', 'num_1', 'num_0']",['num_0'],num_0,,,,,0,9,9,9,9,3,39,3,,,,,,,,,,,,,['num_0'],,0.0586386970244,1,['num_0'],0,[0.4008384810294956],1,,,,,,,,2018_May_20_1504,60.1857050727,sequenceLearningTask,001,069,
min1.png,min2.png,min3.png,min4.png,images/allBlank.png,images/min3.png,'num_1',"['num_7', 'num_4', 'num_1', 'num_0']",['num_1'],num_1,,,,,0,9,9,9,10,0,40,2,,,,,,,,,,,,,['num_1'],,0.0473353262059,1,['num_1'],0,[1.278478016378358],1,,,,,,,,2018_May_20_1504,60.1857050727,sequenceLearningTask,001,069,
min1.png,min2.png,min3.png,min4.png,images/allBlank.png,images/min1.png,'num_7',"['num_7', 'num_4', 'num_1', 'num_0']",['num_7'],num_7,,,,,0,9,9,9,10,1,41,0,,,,,,,,,,,,,['num_7'],,0.050571014639,1,['num_7'],0,[0.6245555388741195],1,,,,,,,,2018_May_20_1504,60.1857050727,sequenceLearningTask,001,069,
min1.png,min2.png,min3.png,min4.png,images/allBlank.png,images/min2.png,'num_4',"['num_7', 'num_4', 'num_1', 'num_0']",['num_4'],num_4,,,,,0,9,9,9,10,2,42,1,,,,,,,,,,,,,['num_4'],,0.051547013456,1,['num_4'],0,[0.8241019600536674],1,,,,,,,,2018_May_20_1504,60.1857050727,sequenceLearningTask,001,069,
min1.png,min2.png,min3.png,min4.png,images/allBlank.png,images/min4.png,'num_0',"['num_7', 'num_4', 'num_1', 'num_0']",['num_0'],num_0,,,,,0,9,9,9,10,3,43,3,,,,,,,,,,,,,['num_0'],,0.0529468066525,0,"['num_1', 'num_0']",0,"[0.3209846306126565, 0.6892122800927609]",0,,,,,,,,2018_May_20_1504,60.1857050727,sequenceLearningTask,001,069,
min1.png,min2.png,min3.png,min4.png,images/allBlank.png,images/min1.png,'num_7',"['num_7', 'num_4', 'num_1', 'num_0']",['num_7'],num_7,,,,,0,9,9,9,11,0,44,0,,,,,,,,,,,,,['num_7'],,0.0609094633255,1,['num_7'],0,[1.1984473455231637],1,,,,,,,,2018_May_20_1504,60.1857050727,sequenceLearningTask,001,069,
min1.png,min2.png,min3.png,min4.png,images/allBlank.png,images/min3.png,'num_1',"['num_7', 'num_4', 'num_1', 'num_0']",['num_1'],num_1,,,,,0,9,9,9,11,1,45,2,,,,,,,,,,,,,['num_1'],,0.0475511208642,1,['num_1'],0,[0.5452813801821321],1,,,,,,,,2018_May_20_1504,60.1857050727,sequenceLearningTask,001,069,
min1.png,min2.png,min3.png,min4.png,images/allBlank.png,images/min2.png,'num_4',"['num_7', 'num_4', 'num_1', 'num_0']",['num_4'],num_4,,,,,0,9,9,9,11,2,46,1,,,,,,,,,,,,,['num_4'],,0.0542190100532,0,"['num_7', 'num_4']",0,"[0.30450670211575925, 0.6876167946029454]",0,,,,,,,,2018_May_20_1504,60.1857050727,sequenceLearningTask,001,069,
min1.png,min2.png,min3.png,min4.png,images/allBlank.png,images/min4.png,'num_0',"['num_7', 'num_4', 'num_1', 'num_0']",['num_0'],num_0,,,,,0,9,9,9,11,3,47,3,,,,,,,,,,,,,['num_0'],,0.0600146953948,1,['num_0'],0,[0.6308853775262833],1,,,,,,,,2018_May_20_1504,60.1857050727,sequenceLearningTask,001,069,
min1.png,min2.png,min3.png,min4.png,images/allBlank.png,images/min3.png,'num_1',"['num_7', 'num_4', 'num_1', 'num_0']",['num_1'],num_1,,,,,0,9,9,9,12,0,48,2,,,,,,,,,,,,,['num_1'],,0.0491182985716,1,['num_1'],0,[0.8270439051557332],1,,,,,,,,2018_May_20_1504,60.1857050727,sequenceLearningTask,001,069,
min1.png,min2.png,min3.png,min4.png,images/allBlank.png,images/min4.png,'num_0',"['num_7', 'num_4', 'num_1', 'num_0']",['num_0'],num_0,,,,,0,9,9,9,12,1,49,3,,,,,,,,,,,,,['num_0'],,0.0586949023418,1,['num_0'],0,[0.7678082857746631],1,,,,,,,,2018_May_20_1504,60.1857050727,sequenceLearningTask,001,069,
min1.png,min2.png,min3.png,min4.png,images/allBlank.png,images/min1.png,'num_7',"['num_7', 'num_4', 'num_1', 'num_0']",['num_7'],num_7,,,,,0,9,9,9,12,2,50,0,,,,,,,,,,,,,['num_7'],,0.0578440313693,1,['num_7'],0,[11.834264409029856],1,,,,,,,,2018_May_20_1504,60.1857050727,sequenceLearningTask,001,069,
min1.png,min2.png,min3.png,min4.png,images/allBlank.png,images/min2.png,'num_4',"['num_7', 'num_4', 'num_1', 'num_0']",['num_4'],num_4,,,,,0,9,9,9,12,3,51,1,,,,,,,,,,,,,['num_4'],,0.0512413729448,1,['num_4'],0,[1.0247236618306488],1,,,,,,,,2018_May_20_1504,60.1857050727,sequenceLearningTask,001,069,
min1.png,min2.png,min3.png,min4.png,images/allBlank.png,images/min2.png,'num_4',"['num_7', 'num_4', 'num_1', 'num_0']",['num_4'],num_4,,,,,0,9,9,9,13,0,52,1,,,,,,,,,,,,,['num_4'],,0.0527613710146,1,['num_4'],0,[1.0235860224347562],1,,,,,,,,2018_May_20_1504,60.1857050727,sequenceLearningTask,001,069,
min1.png,min2.png,min3.png,min4.png,images/allBlank.png,images/min3.png,'num_1',"['num_7', 'num_4', 'num_1', 'num_0']",['num_1'],num_1,,,,,0,9,9,9,13,1,53,2,,,,,,,,,,,,,['num_1'],,0.0567613660824,1,['num_1'],0,[1.1025032585021108],1,,,,,,,,2018_May_20_1504,60.1857050727,sequenceLearningTask,001,069,
min1.png,min2.png,min3.png,min4.png,images/allBlank.png,images/min4.png,'num_0',"['num_7', 'num_4', 'num_1', 'num_0']",['num_0'],num_0,,,,,0,9,9,9,13,2,54,3,,,,,,,,,,,,,['num_0'],,0.059151106514,1,['num_0'],0,[0.7353123258799314],1,,,,,,,,2018_May_20_1504,60.1857050727,sequenceLearningTask,001,069,
min1.png,min2.png,min3.png,min4.png,images/allBlank.png,images/min1.png,'num_7',"['num_7', 'num_4', 'num_1', 'num_0']",['num_7'],num_7,,,,,0,9,9,9,13,3,55,0,,,,,,,,,,,,,['num_7'],,0.0591445425525,1,['num_7'],0,[0.5991139293182641],1,,,,,,,,2018_May_20_1504,60.1857050727,sequenceLearningTask,001,069,
min1.png,min2.png,min3.png,min4.png,images/allBlank.png,images/min4.png,'num_0',"['num_7', 'num_4', 'num_1', 'num_0']",['num_0'],num_0,,,,,0,9,9,9,14,0,56,3,,,,,,,,,,,,,['num_0'],,0.0472077368759,1,['num_0'],0,[0.9126187739893794],1,,,,,,,,2018_May_20_1504,60.1857050727,sequenceLearningTask,001,069,
min1.png,min2.png,min3.png,min4.png,images/allBlank.png,images/min1.png,'num_7',"['num_7', 'num_4', 'num_1', 'num_0']",['num_7'],num_7,,,,,0,9,9,9,14,1,57,0,,,,,,,,,,,,,['num_7'],,0.0458953282796,1,['num_7'],0,[0.7979723513126373],1,,,,,,,,2018_May_20_1504,60.1857050727,sequenceLearningTask,001,069,
min1.png,min2.png,min3.png,min4.png,images/allBlank.png,images/min3.png,'num_1',"['num_7', 'num_4', 'num_1', 'num_0']",['num_1'],num_1,,,,,0,9,9,9,14,2,58,2,,,,,,,,,,,,,['num_1'],,0.0502711175941,1,['num_1'],0,[0.8096289522945881],1,,,,,,,,2018_May_20_1504,60.1857050727,sequenceLearningTask,001,069,
min1.png,min2.png,min3.png,min4.png,images/allBlank.png,images/min2.png,'num_4',"['num_7', 'num_4', 'num_1', 'num_0']",['num_4'],num_4,,,,,0,9,9,9,14,3,59,1,,,,,,,,,,,,,['num_4'],,0.0554144959897,1,['num_4'],0,[0.4524704176001251],1,,,,,,,,2018_May_20_1504,60.1857050727,sequenceLearningTask,001,069,
min1.png,min2.png,min3.png,min4.png,images/allBlank.png,images/min3.png,'num_1',"['num_7', 'num_4', 'num_1', 'num_0']",['num_1'],num_1,,,,,0,9,9,9,15,0,60,2,,,,,,,,,,,,,['num_1'],,0.0547474198975,1,['num_1'],0,[0.7528708681929857],1,,,,,,,,2018_May_20_1504,60.1857050727,sequenceLearningTask,001,069,
min1.png,min2.png,min3.png,min4.png,images/allBlank.png,images/min2.png,'num_4',"['num_7', 'num_4', 'num_1', 'num_0']",['num_4'],num_4,,,,,0,9,9,9,15,1,61,1,,,,,,,,,,,,,['num_4'],,0.0487379913684,1,['num_4'],0,[1.1948358626104891],1,,,,,,,,2018_May_20_1504,60.1857050727,sequenceLearningTask,001,069,
min1.png,min2.png,min3.png,min4.png,images/allBlank.png,images/min1.png,'num_7',"['num_7', 'num_4', 'num_1', 'num_0']",['num_7'],num_7,,,,,0,9,9,9,15,2,62,0,,,,,,,,,,,,,['num_7'],,0.0555383933242,1,['num_7'],0,[0.6033818214200437],1,,,,,,,,2018_May_20_1504,60.1857050727,sequenceLearningTask,001,069,
min1.png,min2.png,min3.png,min4.png,images/allBlank.png,images/min4.png,'num_0',"['num_7', 'num_4', 'num_1', 'num_0']",['num_0'],num_0,,,,,0,9,9,9,15,3,63,3,,,,,,,,,,,,,['num_0'],,0.0597931570373,0,"['num_0', 'num_0']",0,"[0.0005173326935619116, 0.34734439314343035]",0,,,,,,,,2018_May_20_1504,60.1857050727,sequenceLearningTask,001,069,
min1.png,min2.png,min3.png,min4.png,images/allBlank.png,images/min4.png,'num_0',"['num_7', 'num_4', 'num_1', 'num_0']",['num_0'],num_0,,,,,0,9,9,9,16,0,64,3,,,,,,,,,,,,,['num_0'],,0.0520663973875,1,['num_0'],0,[0.6575967292301357],1,,,,,,,,2018_May_20_1504,60.1857050727,sequenceLearningTask,001,069,
min1.png,min2.png,min3.png,min4.png,images/allBlank.png,images/min3.png,'num_1',"['num_7', 'num_4', 'num_1', 'num_0']",['num_1'],num_1,,,,,0,9,9,9,16,1,65,2,,,,,,,,,,,,,['num_1'],,0.0546723429579,1,['num_1'],0,[1.9541239538230002],1,,,,,,,,2018_May_20_1504,60.1857050727,sequenceLearningTask,001,069,
min1.png,min2.png,min3.png,min4.png,images/allBlank.png,images/min1.png,'num_7',"['num_7', 'num_4', 'num_1', 'num_0']",['num_7'],num_7,,,,,0,9,9,9,16,2,66,0,,,,,,,,,,,,,['num_7'],,0.0574259804562,1,['num_7'],0,[1.1022558740805835],1,,,,,,,,2018_May_20_1504,60.1857050727,sequenceLearningTask,001,069,
min1.png,min2.png,min3.png,min4.png,images/allBlank.png,images/min2.png,'num_4',"['num_7', 'num_4', 'num_1', 'num_0']",['num_4'],num_4,,,,,0,9,9,9,16,3,67,1,,,,,,,,,,,,,['num_4'],,0.0554858802352,1,['num_4'],0,[0.8697010835167021],1,,,,,,,,2018_May_20_1504,60.1857050727,sequenceLearningTask,001,069,
min1.png,min2.png,min3.png,min4.png,images/allBlank.png,images/min2.png,'num_4',"['num_7', 'num_4', 'num_1', 'num_0']",['num_4'],num_4,,,,,0,9,9,9,17,0,68,1,,,,,,,,,,,,,['num_4'],,0.0563297767658,1,['num_4'],0,[0.5697088374290615],1,,,,,,,,2018_May_20_1504,60.1857050727,sequenceLearningTask,001,069,
min1.png,min2.png,min3.png,min4.png,images/allBlank.png,images/min1.png,'num_7',"['num_7', 'num_4', 'num_1', 'num_0']",['num_7'],num_7,,,,,0,9,9,9,17,1,69,0,,,,,,,,,,,,,['num_7'],,0.0504458865616,1,['num_7'],0,[0.8927349012810737],1,,,,,,,,2018_May_20_1504,60.1857050727,sequenceLearningTask,001,069,
min1.png,min2.png,min3.png,min4.png,images/allBlank.png,images/min3.png,'num_1',"['num_7', 'num_4', 'num_1', 'num_0']",['num_1'],num_1,,,,,0,9,9,9,17,2,70,2,,,,,,,,,,,,,['num_1'],,0.0563182896003,1,['num_1'],0,[2.4691739866975695],1,,,,,,,,2018_May_20_1504,60.1857050727,sequenceLearningTask,001,069,
min1.png,min2.png,min3.png,min4.png,images/allBlank.png,images/min4.png,'num_0',"['num_7', 'num_4', 'num_1', 'num_0']",['num_0'],num_0,,,,,0,9,9,9,17,3,71,3,,,,,,,,,,,,,['num_0'],,0.0565180841368,1,['num_0'],0,[0.7199228063691407],1,,,,,,,,2018_May_20_1504,60.1857050727,sequenceLearningTask,001,069,
min1.png,min2.png,min3.png,min4.png,images/allBlank.png,images/min3.png,'num_1',"['num_7', 'num_4', 'num_1', 'num_0']",['num_1'],num_1,,,,,0,9,9,9,18,0,72,2,,,,,,,,,,,,,['num_1'],,0.0500688613392,0,"['num_4', 'num_4', 'num_1']",0,"[0.5448300985153764, 1.110335043631494, 1.4596724598668516]",0,,,,,,,,2018_May_20_1504,60.1857050727,sequenceLearningTask,001,069,
min1.png,min2.png,min3.png,min4.png,images/allBlank.png,images/min2.png,'num_4',"['num_7', 'num_4', 'num_1', 'num_0']",['num_4'],num_4,,,,,0,9,9,9,18,1,73,1,,,,,,,,,,,,,['num_4'],,0.0495646568015,1,['num_4'],0,[0.4929351881146431],1,,,,,,,,2018_May_20_1504,60.1857050727,sequenceLearningTask,001,069,
min1.png,min2.png,min3.png,min4.png,images/allBlank.png,images/min4.png,'num_0',"['num_7', 'num_4', 'num_1', 'num_0']",['num_0'],num_0,,,,,0,9,9,9,18,2,74,3,,,,,,,,,,,,,['num_0'],,0.0505476300605,1,['num_0'],0,[0.8251128306146711],1,,,,,,,,2018_May_20_1504,60.1857050727,sequenceLearningTask,001,069,
min1.png,min2.png,min3.png,min4.png,images/allBlank.png,images/min1.png,'num_7',"['num_7', 'num_4', 'num_1', 'num_0']",['num_7'],num_7,,,,,0,9,9,9,18,3,75,0,,,,,,,,,,,,,['num_7'],,0.0518530642148,1,['num_7'],0,[2.2753453021869063],1,,,,,,,,2018_May_20_1504,60.1857050727,sequenceLearningTask,001,069,
min1.png,min2.png,min3.png,min4.png,images/allBlank.png,images/min4.png,'num_0',"['num_7', 'num_4', 'num_1', 'num_0']",['num_0'],num_0,,,,,0,9,9,9,19,0,76,3,,,,,,,,,,,,,['num_0'],,0.0553394190501,1,['num_0'],0,[0.7524651251733303],1,,,,,,,,2018_May_20_1504,60.1857050727,sequenceLearningTask,001,069,
min1.png,min2.png,min3.png,min4.png,images/allBlank.png,images/min3.png,'num_1',"['num_7', 'num_4', 'num_1', 'num_0']",['num_1'],num_1,,,,,0,9,9,9,19,1,77,2,,,,,,,,,,,,,['num_1'],,0.0523429100867,0,"['num_4', 'num_1']",0,"[0.45654220739379525, 1.6914760721847415]",0,,,,,,,,2018_May_20_1504,60.1857050727,sequenceLearningTask,001,069,
min1.png,min2.png,min3.png,min4.png,images/allBlank.png,images/min2.png,'num_4',"['num_7', 'num_4', 'num_1', 'num_0']",['num_4'],num_4,,,,,0,9,9,9,19,2,78,1,,,,,,,,,,,,,['num_4'],,0.0561340847053,1,['num_4'],0,[1.7026030325796455],1,,,,,,,,2018_May_20_1504,60.1857050727,sequenceLearningTask,001,069,
min1.png,min2.png,min3.png,min4.png,images/allBlank.png,images/min1.png,'num_7',"['num_7', 'num_4', 'num_1', 'num_0']",['num_7'],num_7,,,,,0,9,9,9,19,3,79,0,,,,,,,,,,,,,['num_7'],,0.0492073239293,1,['num_7'],0,[0.4089475991204381],1,,,,,,,,2018_May_20_1504,60.1857050727,sequenceLearningTask,001,069,
min1.png,min2.png,min3.png,min4.png,allBlank.png,,,,['num_7'],,,,,,0,0,0,0,,,,,,,,,,,,,,,,,['num_7'],1,0.053657369921,1,['num_7'],0,[1.1247407696209848],,,,,,,,,2018_May_20_1504,60.1857050727,sequenceLearningTask,001,069,
min1.png,min2.png,min3.png,min4.png,allBlank.png,,,,['num_1'],,,,,,0,0,0,0,,,,,,,,,,,,,,,,,['num_1'],1,0.060250592418,1,['num_1'],0,[0.7179072191938758],,,,,,,,,2018_May_20_1504,60.1857050727,sequenceLearningTask,001,069,
min1.png,min2.png,min3.png,min4.png,allBlank.png,,,,['num_4'],,,,,,0,0,0,0,,,,,,,,,,,,,,,,,['num_4'],1,0.0484032223467,1,['num_4'],0,[0.6790957795456052],,,,,,,,,2018_May_20_1504,60.1857050727,sequenceLearningTask,001,069,
min1.png,min2.png,min3.png,min4.png,allBlank.png,,,,['num_0'],,,,,,0,0,0,0,,,,,,,,,,,,,,,,,['num_0'],1,0.055261880625,1,['num_0'],0,[0.3230830894317478],,,,,,,,,2018_May_20_1504,60.1857050727,sequenceLearningTask,001,069,
min1.png,min2.png,min3.png,min4.png,allBlank.png,,,,['num_0'],,,,,,0,0,0,0,,,,,,,,,,,,,,,,,['num_0'],1,0.0523708073888,1,['num_0'],0,[0.3759761524852365],,,,,,,,,2018_May_20_1504,60.1857050727,sequenceLearningTask,001,069,
min1.png,min2.png,min3.png,min4.png,allBlank.png,,,,['num_4'],,,,,,0,0,0,0,,,,,,,,,,,,,,,,,['num_4'],1,0.0525742941536,1,['num_4'],0,[1.240992934210226],,,,,,,,,2018_May_20_1504,60.1857050727,sequenceLearningTask,001,069,
min1.png,min2.png,min3.png,min4.png,allBlank.png,,,,['num_1'],,,,,,0,0,0,0,,,,,,,,,,,,,,,,,['num_1'],1,0.0574953139294,1,['num_1'],0,[0.35355607769452035],,,,,,,,,2018_May_20_1504,60.1857050727,sequenceLearningTask,001,069,
min1.png,min2.png,min3.png,min4.png,allBlank.png,,,,['num_0'],,,,,,0,0,0,0,,,,,,,,,,,,,,,,,['num_0'],1,0.0541529587936,1,['num_0'],0,[0.5577978775836527],,,,,,,,,2018_May_20_1504,60.1857050727,sequenceLearningTask,001,069,
min1.png,min2.png,min3.png,min4.png,allBlank.png,,,,['num_7'],,,,,,0,1,1,1,,,,,,,,,,,,,,,,,['num_7'],2,0.0533299855888,1,['num_7'],0,[0.7709680767729878],,,,,,,,,2018_May_20_1504,60.1857050727,sequenceLearningTask,001,069,
min1.png,min2.png,min3.png,min4.png,allBlank.png,,,,['num_1'],,,,,,0,1,1,1,,,,,,,,,,,,,,,,,['num_1'],2,0.0530928575899,1,['num_1'],0,[0.5080719902180135],,,,,,,,,2018_May_20_1504,60.1857050727,sequenceLearningTask,001,069,
min1.png,min2.png,min3.png,min4.png,allBlank.png,,,,['num_4'],,,,,,0,1,1,1,,,,,,,,,,,,,,,,,['num_4'],2,0.0466920449398,1,['num_4'],0,[0.3808696852065623],,,,,,,,,2018_May_20_1504,60.1857050727,sequenceLearningTask,001,069,
min1.png,min2.png,min3.png,min4.png,allBlank.png,,,,['num_0'],,,,,,0,1,1,1,,,,,,,,,,,,,,,,,['num_0'],2,0.0604401307646,1,['num_0'],0,[0.23366002016700804],,,,,,,,,2018_May_20_1504,60.1857050727,sequenceLearningTask,001,069,
min1.png,min2.png,min3.png,min4.png,allBlank.png,,,,['num_0'],,,,,,0,1,1,1,,,,,,,,,,,,,,,,,['num_0'],2,0.0506493735593,1,['num_0'],0,[0.9106782637536526],,,,,,,,,2018_May_20_1504,60.1857050727,sequenceLearningTask,001,069,
min1.png,min2.png,min3.png,min4.png,allBlank.png,,,,['num_4'],,,,,,0,1,1,1,,,,,,,,,,,,,,,,,['num_4'],2,0.0559453670867,1,['num_4'],0,[0.9054364240728319],,,,,,,,,2018_May_20_1504,60.1857050727,sequenceLearningTask,001,069,
min1.png,min2.png,min3.png,min4.png,allBlank.png,,,,['num_1'],,,,,,0,1,1,1,,,,,,,,,,,,,,,,,['num_1'],2,0.0567814686801,1,['num_1'],0,[1.0868261496070772],,,,,,,,,2018_May_20_1504,60.1857050727,sequenceLearningTask,001,069,
min1.png,min2.png,min3.png,min4.png,allBlank.png,,,,['num_0'],,,,,,0,1,1,1,,,,,,,,,,,,,,,,,['num_0'],2,0.0561225975398,1,['num_0'],0,[1.1709470716305077],,,,,,,,,2018_May_20_1504,60.1857050727,sequenceLearningTask,001,069,
min1.png,min2.png,min3.png,min4.png,allBlank.png,,,,['num_7'],,,,,,0,2,2,2,,,,,,,,,,,,,,,,,['num_7'],3,0.0588241326623,1,['num_7'],0,[0.518301720963791],,,,,,,,,2018_May_20_1504,60.1857050727,sequenceLearningTask,001,069,
min1.png,min2.png,min3.png,min4.png,allBlank.png,,,,['num_1'],,,,,,0,2,2,2,,,,,,,,,,,,,,,,,['num_1'],3,0.0530563448556,1,['num_1'],0,[0.3918690562713891],,,,,,,,,2018_May_20_1504,60.1857050727,sequenceLearningTask,001,069,
min1.png,min2.png,min3.png,min4.png,allBlank.png,,,,['num_4'],,,,,,0,2,2,2,,,,,,,,,,,,,,,,,['num_4'],3,0.0514707057737,1,['num_4'],0,[0.6596192908473313],,,,,,,,,2018_May_20_1504,60.1857050727,sequenceLearningTask,001,069,
min1.png,min2.png,min3.png,min4.png,allBlank.png,,,,['num_0'],,,,,,0,2,2,2,,,,,,,,,,,,,,,,,['num_0'],3,0.0543601380195,1,['num_0'],0,[0.30655921227298677],,,,,,,,,2018_May_20_1504,60.1857050727,sequenceLearningTask,001,069,
min1.png,min2.png,min3.png,min4.png,allBlank.png,,,,['num_0'],,,,,,0,2,2,2,,,,,,,,,,,,,,,,,['num_0'],3,0.0538821900263,0,"['num_7', 'num_0']",0,"[0.37350313016213477, 0.9407081755343825]",,,,,,,,,2018_May_20_1504,60.1857050727,sequenceLearningTask,001,069,
min1.png,min2.png,min3.png,min4.png,allBlank.png,,,,['num_4'],,,,,,0,2,2,2,,,,,,,,,,,,,,,,,['num_4'],3,0.0573558269534,1,['num_4'],0,[0.9700000369921327],,,,,,,,,2018_May_20_1504,60.1857050727,sequenceLearningTask,001,069,
min1.png,min2.png,min3.png,min4.png,allBlank.png,,,,['num_1'],,,,,,0,2,2,2,,,,,,,,,,,,,,,,,['num_1'],3,0.0609119250439,1,['num_1'],0,[0.7643297261092812],,,,,,,,,2018_May_20_1504,60.1857050727,sequenceLearningTask,001,069,
min1.png,min2.png,min3.png,min4.png,allBlank.png,,,,['num_0'],,,,,,0,2,2,2,,,,,,,,,,,,,,,,,['num_0'],3,0.0561927512754,1,['num_0'],0,[0.5879869684576988],,,,,,,,,2018_May_20_1504,60.1857050727,sequenceLearningTask,001,069,
min1.png,min2.png,min3.png,min4.png,allBlank.png,,,,['num_7'],,,,,,0,3,3,3,,,,,,,,,,,,,,,,,['num_7'],4,0.0482387098018,1,['num_7'],0,[0.6941480687819421],,,,,,,,,2018_May_20_1504,60.1857050727,sequenceLearningTask,001,069,
min1.png,min2.png,min3.png,min4.png,allBlank.png,,,,['num_1'],,,,,,0,3,3,3,,,,,,,,,,,,,,,,,['num_1'],4,0.0547720352188,1,['num_1'],0,[0.438729306217283],,,,,,,,,2018_May_20_1504,60.1857050727,sequenceLearningTask,001,069,
min1.png,min2.png,min3.png,min4.png,allBlank.png,,,,['num_4'],,,,,,0,3,3,3,,,,,,,,,,,,,,,,,['num_4'],4,0.0585455689579,1,['num_4'],0,[0.9370761800091714],,,,,,,,,2018_May_20_1504,60.1857050727,sequenceLearningTask,001,069,
min1.png,min2.png,min3.png,min4.png,allBlank.png,,,,['num_0'],,,,,,0,3,3,3,,,,,,,,,,,,,,,,,['num_0'],4,0.0524019869044,1,['num_0'],0,[0.6065875610802323],,,,,,,,,2018_May_20_1504,60.1857050727,sequenceLearningTask,001,069,
min1.png,min2.png,min3.png,min4.png,allBlank.png,,,,['num_0'],,,,,,0,3,3,3,,,,,,,,,,,,,,,,,['num_0'],4,0.0507687581703,1,['num_0'],0,[0.6939966841600835],,,,,,,,,2018_May_20_1504,60.1857050727,sequenceLearningTask,001,069,
min1.png,min2.png,min3.png,min4.png,allBlank.png,,,,['num_4'],,,,,,0,3,3,3,,,,,,,,,,,,,,,,,['num_4'],4,0.0528233195655,1,['num_4'],0,[0.7063581049442291],,,,,,,,,2018_May_20_1504,60.1857050727,sequenceLearningTask,001,069,
min1.png,min2.png,min3.png,min4.png,allBlank.png,,,,['num_1'],,,,,,0,3,3,3,,,,,,,,,,,,,,,,,['num_1'],4,0.0541115230881,1,['num_1'],0,[0.34036429901607335],,,,,,,,,2018_May_20_1504,60.1857050727,sequenceLearningTask,001,069,
min1.png,min2.png,min3.png,min4.png,allBlank.png,,,,['num_0'],,,,,,0,3,3,3,,,,,,,,,,,,,,,,,['num_0'],4,0.0613939757459,1,['num_0'],0,[1.1481758176814765],,,,,,,,,2018_May_20_1504,60.1857050727,sequenceLearningTask,001,069,
min1.png,min2.png,min3.png,min4.png,allBlank.png,,,,['num_7'],,,,,,0,4,4,4,,,,,,,,,,,,,,,,,['num_7'],5,0.0489907087758,1,['num_7'],0,[0.5104198844637722],,,,,,,,,2018_May_20_1504,60.1857050727,sequenceLearningTask,001,069,
min1.png,min2.png,min3.png,min4.png,allBlank.png,,,,['num_1'],,,,,,0,4,4,4,,,,,,,,,,,,,,,,,['num_1'],5,0.0561480333563,1,['num_1'],0,[0.6879925890825689],,,,,,,,,2018_May_20_1504,60.1857050727,sequenceLearningTask,001,069,
min1.png,min2.png,min3.png,min4.png,allBlank.png,,,,['num_4'],,,,,,0,4,4,4,,,,,,,,,,,,,,,,,['num_4'],5,0.0503195279744,1,['num_4'],0,[0.3438387562055141],,,,,,,,,2018_May_20_1504,60.1857050727,sequenceLearningTask,001,069,
min1.png,min2.png,min3.png,min4.png,allBlank.png,,,,['num_0'],,,,,,0,4,4,4,,,,,,,,,,,,,,,,,['num_0'],5,0.0566546993796,1,['num_0'],0,[0.3382182503119111],,,,,,,,,2018_May_20_1504,60.1857050727,sequenceLearningTask,001,069,
min1.png,min2.png,min3.png,min4.png,allBlank.png,,,,['num_0'],,,,,,0,4,4,4,,,,,,,,,,,,,,,,,['num_0'],5,0.0607318226248,1,['num_0'],0,[0.7996400413103402],,,,,,,,,2018_May_20_1504,60.1857050727,sequenceLearningTask,001,069,
min1.png,min2.png,min3.png,min4.png,allBlank.png,,,,['num_4'],,,,,,0,4,4,4,,,,,,,,,,,,,,,,,['num_4'],5,0.0553701883182,1,['num_4'],0,[1.0546444454230368],,,,,,,,,2018_May_20_1504,60.1857050727,sequenceLearningTask,001,069,
min1.png,min2.png,min3.png,min4.png,allBlank.png,,,,['num_1'],,,,,,0,4,4,4,,,,,,,,,,,,,,,,,['num_1'],5,0.0549816759303,1,['num_1'],0,[1.0906825549900532],,,,,,,,,2018_May_20_1504,60.1857050727,sequenceLearningTask,001,069,
min1.png,min2.png,min3.png,min4.png,allBlank.png,,,,['num_0'],,,,,,0,4,4,4,,,,,,,,,,,,,,,,,['num_0'],5,0.0550661885645,1,['num_0'],0,[0.4568687709979713],,,,,,,,,2018_May_20_1504,60.1857050727,sequenceLearningTask,001,069,
min1.png,min2.png,min3.png,min4.png,allBlank.png,,,,['num_7'],,,,,,0,5,5,5,,,,,,,,,,,,,,,,,['num_7'],6,0.0546624967828,0,"['num_1', 'num_7']",0,"[0.000298256054520607, 1.004230969119817]",,,,,,,,,2018_May_20_1504,60.1857050727,sequenceLearningTask,001,069,
min1.png,min2.png,min3.png,min4.png,allBlank.png,,,,['num_1'],,,,,,0,5,5,5,,,,,,,,,,,,,,,,,['num_1'],6,0.0536286518909,1,['num_1'],0,[1.4243912727106363],,,,,,,,,2018_May_20_1504,60.1857050727,sequenceLearningTask,001,069,
min1.png,min2.png,min3.png,min4.png,allBlank.png,,,,['num_4'],,,,,,0,5,5,5,,,,,,,,,,,,,,,,,['num_4'],6,0.0542760358658,1,['num_4'],0,[1.1070751501247287],,,,,,,,,2018_May_20_1504,60.1857050727,sequenceLearningTask,001,069,
min1.png,min2.png,min3.png,min4.png,allBlank.png,,,,['num_0'],,,,,,0,5,5,5,,,,,,,,,,,,,,,,,['num_0'],6,0.0581701847259,1,['num_0'],0,[0.6189374946989119],,,,,,,,,2018_May_20_1504,60.1857050727,sequenceLearningTask,001,069,
min1.png,min2.png,min3.png,min4.png,allBlank.png,,,,['num_0'],,,,,,0,5,5,5,,,,,,,,,,,,,,,,,['num_0'],6,0.0540384973865,1,['num_0'],0,[0.7070497963577509],,,,,,,,,2018_May_20_1504,60.1857050727,sequenceLearningTask,001,069,
min1.png,min2.png,min3.png,min4.png,allBlank.png,,,,['num_4'],,,,,,0,5,5,5,,,,,,,,,,,,,,,,,['num_4'],6,0.051120757591,1,['num_4'],0,[1.1089610967319459],,,,,,,,,2018_May_20_1504,60.1857050727,sequenceLearningTask,001,069,
min1.png,min2.png,min3.png,min4.png,allBlank.png,,,,['num_1'],,,,,,0,5,5,5,,,,,,,,,,,,,,,,,['num_1'],6,0.0563810588792,1,['num_1'],0,[0.7032508268021047],,,,,,,,,2018_May_20_1504,60.1857050727,sequenceLearningTask,001,069,
min1.png,min2.png,min3.png,min4.png,allBlank.png,,,,['num_0'],,,,,,0,5,5,5,,,,,,,,,,,,,,,,,['num_0'],6,0.0535872161854,1,['num_0'],0,[1.2752054049633443],,,,,,,,,2018_May_20_1504,60.1857050727,sequenceLearningTask,001,069,
min1.png,min2.png,min3.png,min4.png,allBlank.png,,,,['num_7'],,,,,,0,6,6,6,,,,,,,,,,,,,,,,,['num_7'],7,0.0516077314969,1,['num_7'],0,[0.39239377342164516],,,,,,,,,2018_May_20_1504,60.1857050727,sequenceLearningTask,001,069,
min1.png,min2.png,min3.png,min4.png,allBlank.png,,,,['num_1'],,,,,,0,6,6,6,,,,,,,,,,,,,,,,,['num_1'],7,0.0549537783954,1,['num_1'],0,[0.5056609162129462],,,,,,,,,2018_May_20_1504,60.1857050727,sequenceLearningTask,001,069,
min1.png,min2.png,min3.png,min4.png,allBlank.png,,,,['num_4'],,,,,,0,6,6,6,,,,,,,,,,,,,,,,,['num_4'],7,0.049115837086,0,"['num_0', 'num_4']",0,"[1.445311862276867, 2.4114255448803306]",,,,,,,,,2018_May_20_1504,60.1857050727,sequenceLearningTask,001,069,
min1.png,min2.png,min3.png,min4.png,allBlank.png,,,,['num_0'],,,,,,0,6,6,6,,,,,,,,,,,,,,,,,['num_0'],7,0.0505587069783,1,['num_0'],0,[0.29408168932422996],,,,,,,,,2018_May_20_1504,60.1857050727,sequenceLearningTask,001,069,
min1.png,min2.png,min3.png,min4.png,allBlank.png,,,,['num_0'],,,,,,0,6,6,6,,,,,,,,,,,,,,,,,['num_0'],7,0.0483642481267,1,['num_0'],0,[0.9971142599824816],,,,,,,,,2018_May_20_1504,60.1857050727,sequenceLearningTask,001,069,
min1.png,min2.png,min3.png,min4.png,allBlank.png,,,,['num_4'],,,,,,0,6,6,6,,,,,,,,,,,,,,,,,['num_4'],7,0.0494173751213,0,"['num_0', 'num_4']",0,"[0.00031507667154073715, 0.8953232057392597]",,,,,,,,,2018_May_20_1504,60.1857050727,sequenceLearningTask,001,069,
min1.png,min2.png,min3.png,min4.png,allBlank.png,,,,['num_1'],,,,,,0,6,6,6,,,,,,,,,,,,,,,,,['num_1'],7,0.0544873175677,1,['num_1'],0,[0.5905252217780799],,,,,,,,,2018_May_20_1504,60.1857050727,sequenceLearningTask,001,069,
min1.png,min2.png,min3.png,min4.png,allBlank.png,,,,['num_0'],,,,,,0,6,6,6,,,,,,,,,,,,,,,,,['num_0'],7,0.0543781896122,1,['num_0'],0,[0.5059870695695281],,,,,,,,,2018_May_20_1504,60.1857050727,sequenceLearningTask,001,069,
min1.png,min2.png,min3.png,min4.png,allBlank.png,,,,['num_7'],,,,,,0,7,7,7,,,,,,,,,,,,,,,,,['num_7'],8,0.0546694712248,1,['num_7'],0,[0.8887242395430803],,,,,,,,,2018_May_20_1504,60.1857050727,sequenceLearningTask,001,069,
min1.png,min2.png,min3.png,min4.png,allBlank.png,,,,['num_1'],,,,,,0,7,7,7,,,,,,,,,,,,,,,,,['num_1'],8,0.0544680354651,1,['num_1'],0,[0.9733309044968337],,,,,,,,,2018_May_20_1504,60.1857050727,sequenceLearningTask,001,069,
min1.png,min2.png,min3.png,min4.png,allBlank.png,,,,['num_4'],,,,,,0,7,7,7,,,,,,,,,,,,,,,,,['num_4'],8,0.0535933698993,1,['num_4'],0,[0.8405798885505646],,,,,,,,,2018_May_20_1504,60.1857050727,sequenceLearningTask,001,069,
min1.png,min2.png,min3.png,min4.png,allBlank.png,,,,['num_0'],,,,,,0,7,7,7,,,,,,,,,,,,,,,,,['num_0'],8,0.0602920283563,1,['num_0'],0,[0.4666012718807906],,,,,,,,,2018_May_20_1504,60.1857050727,sequenceLearningTask,001,069,
min1.png,min2.png,min3.png,min4.png,allBlank.png,,,,['num_0'],,,,,,0,7,7,7,,,,,,,,,,,,,,,,,['num_0'],8,0.0524266019929,0,"['num_7', 'num_0']",0,"[0.22552300454117358, 0.6087853021454066]",,,,,,,,,2018_May_20_1504,60.1857050727,sequenceLearningTask,001,069,
min1.png,min2.png,min3.png,min4.png,allBlank.png,,,,['num_4'],,,,,,0,7,7,7,,,,,,,,,,,,,,,,,['num_4'],8,0.0528639347758,0,"['num_7', 'num_4']",0,"[0.308608440682292, 1.5254602765198797]",,,,,,,,,2018_May_20_1504,60.1857050727,sequenceLearningTask,001,069,
min1.png,min2.png,min3.png,min4.png,allBlank.png,,,,['num_1'],,,,,,0,7,7,7,,,,,,,,,,,,,,,,,['num_1'],8,0.0491072214209,1,['num_1'],0,[0.7124700974673033],,,,,,,,,2018_May_20_1504,60.1857050727,sequenceLearningTask,001,069,
min1.png,min2.png,min3.png,min4.png,allBlank.png,,,,['num_0'],,,,,,0,7,7,7,,,,,,,,,,,,,,,,,['num_0'],8,0.0510862960946,1,['num_0'],0,[0.5928768087178469],,,,,,,,,2018_May_20_1504,60.1857050727,sequenceLearningTask,001,069,
min1.png,min2.png,min3.png,min4.png,allBlank.png,,,,['num_7'],,,,,,0,8,8,8,,,,,,,,,,,,,,,,,['num_7'],9,0.0554854702204,1,['num_7'],0,[0.32078196411021054],,,,,,,,,2018_May_20_1504,60.1857050727,sequenceLearningTask,001,069,
min1.png,min2.png,min3.png,min4.png,allBlank.png,,,,['num_1'],,,,,,0,8,8,8,,,,,,,,,,,,,,,,,['num_1'],9,0.0541574717499,0,"['num_4', 'num_1']",0,"[0.32352575566619635, 0.7228684436995536]",,,,,,,,,2018_May_20_1504,60.1857050727,sequenceLearningTask,001,069,
min1.png,min2.png,min3.png,min4.png,allBlank.png,,,,['num_4'],,,,,,0,8,8,8,,,,,,,,,,,,,,,,,['num_4'],9,0.054868445266,1,['num_4'],0,[0.4225824542809278],,,,,,,,,2018_May_20_1504,60.1857050727,sequenceLearningTask,001,069,
min1.png,min2.png,min3.png,min4.png,allBlank.png,,,,['num_0'],,,,,,0,8,8,8,,,,,,,,,,,,,,,,,['num_0'],9,0.0569102889858,1,['num_0'],0,[0.1713938401080668],,,,,,,,,2018_May_20_1504,60.1857050727,sequenceLearningTask,001,069,
min1.png,min2.png,min3.png,min4.png,allBlank.png,,,,['num_0'],,,,,,0,8,8,8,,,,,,,,,,,,,,,,,['num_0'],9,0.0492348112166,1,['num_0'],0,[0.4952039031777531],,,,,,,,,2018_May_20_1504,60.1857050727,sequenceLearningTask,001,069,
min1.png,min2.png,min3.png,min4.png,allBlank.png,,,,['num_4'],,,,,,0,8,8,8,,,,,,,,,,,,,,,,,['num_4'],9,0.0498588103801,1,['num_4'],0,[0.8291874921415001],,,,,,,,,2018_May_20_1504,60.1857050727,sequenceLearningTask,001,069,
min1.png,min2.png,min3.png,min4.png,allBlank.png,,,,['num_1'],,,,,,0,8,8,8,,,,,,,,,,,,,,,,,['num_1'],9,0.0571506989654,1,['num_1'],0,[0.4037385801784694],,,,,,,,,2018_May_20_1504,60.1857050727,sequenceLearningTask,001,069,
min1.png,min2.png,min3.png,min4.png,allBlank.png,,,,['num_0'],,,,,,0,8,8,8,,,,,,,,,,,,,,,,,['num_0'],9,0.0513480391819,1,['num_0'],0,[0.5420530764386058],,,,,,,,,2018_May_20_1504,60.1857050727,sequenceLearningTask,001,069,
min1.png,min2.png,min3.png,min4.png,allBlank.png,,,,['num_7'],,,,,,0,9,9,9,,,,,,,,,,,,,,,,,['num_7'],10,0.0521742948331,1,['num_7'],0,[0.5080559900961816],,,,,,,,,2018_May_20_1504,60.1857050727,sequenceLearningTask,001,069,
min1.png,min2.png,min3.png,min4.png,allBlank.png,,,,['num_1'],,,,,,0,9,9,9,,,,,,,,,,,,,,,,,['num_1'],10,0.0572204424534,1,['num_1'],0,[0.770820384612307],,,,,,,,,2018_May_20_1504,60.1857050727,sequenceLearningTask,001,069,
min1.png,min2.png,min3.png,min4.png,allBlank.png,,,,['num_4'],,,,,,0,9,9,9,,,,,,,,,,,,,,,,,['num_4'],10,0.0541061896365,0,"['num_7', 'num_4']",0,"[1.3726477464661002, 2.022845510393381]",,,,,,,,,2018_May_20_1504,60.1857050727,sequenceLearningTask,001,069,
min1.png,min2.png,min3.png,min4.png,allBlank.png,,,,['num_0'],,,,,,0,9,9,9,,,,,,,,,,,,,,,,,['num_0'],10,0.0515252701007,1,['num_0'],0,[0.4585971790365875],,,,,,,,,2018_May_20_1504,60.1857050727,sequenceLearningTask,001,069,
min1.png,min2.png,min3.png,min4.png,allBlank.png,,,,['num_0'],,,,,,0,9,9,9,,,,,,,,,,,,,,,,,['num_0'],10,0.0607338740956,1,['num_0'],0,[0.6667454359121621],,,,,,,,,2018_May_20_1504,60.1857050727,sequenceLearningTask,001,069,
min1.png,min2.png,min3.png,min4.png,allBlank.png,,,,['num_4'],,,,,,0,9,9,9,,,,,,,,,,,,,,,,,['num_4'],10,0.0585127486847,1,['num_4'],0,[0.6866268471349031],,,,,,,,,2018_May_20_1504,60.1857050727,sequenceLearningTask,001,069,
min1.png,min2.png,min3.png,min4.png,allBlank.png,,,,['num_1'],,,,,,0,9,9,9,,,,,,,,,,,,,,,,,['num_1'],10,0.0520528589841,0,"['num_0', 'num_1']",0,"[0.45914281951263547, 0.8254377534613013]",,,,,,,,,2018_May_20_1504,60.1857050727,sequenceLearningTask,001,069,
min1.png,min2.png,min3.png,min4.png,allBlank.png,,,,['num_0'],,,,,,0,9,9,9,,,,,,,,,,,,,,,,,['num_0'],10,0.0566235200968,1,['num_0'],0,[0.6203114415984601],,,,,,,,,2018_May_20_1504,60.1857050727,sequenceLearningTask,001,069,
min1.png,min2.png,min3.png,min4.png,allBlank.png,,,,,,,,,,0,9,9,9,,,,,0,-1,-1,0,,,,,,,,,,,,,,,,,,,,,,,,2018_May_20_1504,60.1857050727,sequenceLearningTask,001,069,
min1.png,min2.png,min3.png,min4.png,allBlank.png,,,,,,,,,,0,9,9,9,,,,,0,-1,-1,0,,,,,,,,,,,,,,,,,['1'],,,,,,,2018_May_20_1504,60.1857050727,sequenceLearningTask,001,069,
min1.png,min2.png,min3.png,min4.png,allBlank.png,,,,,,,,,,0,9,9,9,,,,,0,-1,-1,0,,,,,,,,,,,,,,,,,['2'],,,,,,,2018_May_20_1504,60.1857050727,sequenceLearningTask,001,069,
min1.png,min2.png,min3.png,min4.png,allBlank.png,,,,,,,,,,0,9,9,9,,,,,0,-1,-1,0,,,,,,,,,,,,,,,,,['1'],,,,,,,2018_May_20_1504,60.1857050727,sequenceLearningTask,001,069,
min1.png,min2.png,min3.png,min4.png,allBlank.png,,,,,,,,,,0,9,9,9,,,,,0,-1,-1,0,,,,,,,,,,,,,,,,,['2'],,,,,,,2018_May_20_1504,60.1857050727,sequenceLearningTask,001,069,
min1.png,min2.png,min3.png,min4.png,allBlank.png,,,,,,0,0,0,0,0,9,9,9,,,,,0,-1,-1,0,,,,,,,,,,,,,,,,,,return,3.50419096928, ,[1.3581849951297045],,,2018_May_20_1504,60.1857050727,sequenceLearningTask,001,069,
min1.png,min2.png,min3.png,min4.png,allBlank.png,,,,['3'],,,,,,0,9,9,9,,,,,0,-1,-1,0,0,0,0,0,,,,,['3'],1,,1,,,,,,,,,,['3'],7.08211641177,2018_May_20_1504,60.1857050727,sequenceLearningTask,001,069,
min1.png,min2.png,min3.png,min4.png,allBlank.png,,,,['2'],,,,,,0,9,9,9,,,,,0,-1,-1,0,0,0,0,0,,,,,['2'],1,,0,,,,,,,,,,['4'],2.81770648062,2018_May_20_1504,60.1857050727,sequenceLearningTask,001,069,
min1.png,min2.png,min3.png,min4.png,allBlank.png,,,,['4'],,,,,,0,9,9,9,,,,,0,-1,-1,0,0,0,0,0,,,,,['4'],1,,1,,,,,,,,,,['4'],2.13227101672,2018_May_20_1504,60.1857050727,sequenceLearningTask,001,069,
min1.png,min2.png,min3.png,min4.png,allBlank.png,,,,['4'],,,,,,0,9,9,9,,,,,0,-1,-1,0,0,0,0,0,,,,,['4'],1,,0,,,,,,,,,,['2'],2.89914104715,2018_May_20_1504,60.1857050727,sequenceLearningTask,001,069,
min1.png,min2.png,min3.png,min4.png,allBlank.png,,,,['2'],,,,,,0,9,9,9,,,,,0,-1,-1,0,0,0,0,0,,,,,['2'],1,,0,,,,,,,,,,['3'],2.13323388714,2018_May_20_1504,60.1857050727,sequenceLearningTask,001,069,
min1.png,min2.png,min3.png,min4.png,allBlank.png,,,,['3'],,,,,,0,9,9,9,,,,,0,-1,-1,0,0,0,0,0,,,,,['3'],1,,0,,,,,,,,,,['4'],2.38307111827,2018_May_20_1504,60.1857050727,sequenceLearningTask,001,069,
min1.png,min2.png,min3.png,min4.png,allBlank.png,,,,['4'],,,,,,0,9,9,9,,,,,0,-1,-1,0,0,0,0,0,,,,,['4'],1,,1,,,,,,,,,,['4'],2.36384201376,2018_May_20_1504,60.1857050727,sequenceLearningTask,001,069,
min1.png,min2.png,min3.png,min4.png,allBlank.png,,,,['2'],,,,,,0,9,9,9,,,,,0,-1,-1,0,0,0,0,0,,,,,['2'],1,,1,,,,,,,,,,['2'],3.79861727357,2018_May_20_1504,60.1857050727,sequenceLearningTask,001,069,
min1.png,min2.png,min3.png,min4.png,allBlank.png,,,,['1'],,,,,,0,9,9,9,,,,,0,-1,-1,0,0,0,0,0,,,,,['1'],1,,0,,,,,,,,,,['3'],2.49990297458,2018_May_20_1504,60.1857050727,sequenceLearningTask,001,069,
min1.png,min2.png,min3.png,min4.png,allBlank.png,,,,['1'],,,,,,0,9,9,9,,,,,0,-1,-1,0,0,0,0,0,0,0,0,0,['1'],1,,1,,,,,,,,,,['1'],16.717703732,2018_May_20_1504,60.1857050727,sequenceLearningTask,001,069,
min1.png,min2.png,min3.png,min4.png,allBlank.png,,,,['3'],,,,,,0,9,9,9,,,,,0,-1,-1,0,0,0,0,0,0,0,0,0,['3'],1,,0,,,,,,,,,,['2'],5.43023782945,2018_May_20_1504,60.1857050727,sequenceLearningTask,001,069,
