pawPatrol1,pawPatrol2,pawPatrol3,pawPatrol4,blank,randomPaw,correctKeyPress,allowableKey,correctKey,correctKeyPressNum,trials.thisRepN,trials.thisTrialN,trials.thisN,trials.thisIndex,trials_3.thisRepN,trials_3.thisTrialN,trials_3.thisN,trials_3.thisIndex,trials_2.thisRepN,trials_2.thisTrialN,trials_2.thisN,trials_2.thisIndex,trials_questions.thisRepN,trials_questions.thisTrialN,trials_questions.thisN,trials_questions.thisIndex,correctKey,repetitionNumber,stimulusPresent.t,trialCorrect,key_resp_9.keys,key_resp_9.corr,key_resp_9.rt,keyRespCorrect,date,frameRate,expName,session,participant,
min1.png,min2.png,min3.png,min4.png,allBlank.png,,,,['num_7'],,,,,,0,0,0,0,,,,,,,,,['num_7'],1,0.0606613582204,1,['num_7'],0,[0.8282366474886658],,2018_Apr_04_1439,60.0521560914,sequenceLearningTask,001,061,
min1.png,min2.png,min3.png,min4.png,allBlank.png,,,,['num_1'],,,,,,0,0,0,0,,,,,,,,,['num_1'],1,0.0621124357422,0,"['num_4', 'num_1']",0,"[0.5486964302399429, 1.2170696275134105]",,2018_Apr_04_1439,60.0521560914,sequenceLearningTask,001,061,
min1.png,min2.png,min3.png,min4.png,allBlank.png,,,,['num_4'],,,,,,0,0,0,0,,,,,,,,,['num_4'],1,0.0580332545796,1,['num_4'],0,[0.7025955702847568],,2018_Apr_04_1439,60.0521560914,sequenceLearningTask,001,061,
min1.png,min2.png,min3.png,min4.png,allBlank.png,,,,['num_0'],,,,,,0,0,0,0,,,,,,,,,['num_0'],1,0.0547315096192,0,"['num_1', 'num_0']",0,"[0.6403961601608898, 1.7566255411802558]",,2018_Apr_04_1439,60.0521560914,sequenceLearningTask,001,061,
min1.png,min2.png,min3.png,min4.png,allBlank.png,,,,['num_0'],,,,,,0,0,0,0,,,,,,,,,['num_0'],1,0.0515261749824,1,['num_0'],0,[0.8098871014954057],,2018_Apr_04_1439,60.0521560914,sequenceLearningTask,001,061,
min1.png,min2.png,min3.png,min4.png,allBlank.png,,,,['num_4'],,,,,,0,0,0,0,,,,,,,,,['num_4'],1,0.0559725357889,1,['num_4'],0,[1.4057404741615755],,2018_Apr_04_1439,60.0521560914,sequenceLearningTask,001,061,
min1.png,min2.png,min3.png,min4.png,allBlank.png,,,,['num_1'],,,,,,0,0,0,0,,,,,,,,,['num_1'],1,0.0514515082905,0,"['num_4', 'num_1']",0,"[0.7608917993493378, 1.1948845927690854]",,2018_Apr_04_1439,60.0521560914,sequenceLearningTask,001,061,
min1.png,min2.png,min3.png,min4.png,allBlank.png,,,,['num_0'],,,,,,0,0,0,0,,,,,,,,,['num_0'],1,0.0530502781767,1,['num_0'],0,[0.8423736789263785],,2018_Apr_04_1439,60.0521560914,sequenceLearningTask,001,061,
min1.png,min2.png,min3.png,min4.png,allBlank.png,,,,['num_7'],,,,,,0,1,1,1,,,,,,,,,['num_7'],2,0.0476020708156,1,['num_7'],0,[0.6954780289088376],,2018_Apr_04_1439,60.0521560914,sequenceLearningTask,001,061,
min1.png,min2.png,min3.png,min4.png,allBlank.png,,,,['num_1'],,,,,,0,1,1,1,,,,,,,,,['num_1'],2,0.0496402254939,1,['num_1'],0,[1.094942808180349],,2018_Apr_04_1439,60.0521560914,sequenceLearningTask,001,061,
min1.png,min2.png,min3.png,min4.png,allBlank.png,,,,['num_4'],,,,,,0,1,1,1,,,,,,,,,['num_4'],2,0.0508660721534,1,['num_4'],0,[0.8940446744818473],,2018_Apr_04_1439,60.0521560914,sequenceLearningTask,001,061,
min1.png,min2.png,min3.png,min4.png,allBlank.png,,,,['num_0'],,,,,,0,1,1,1,,,,,,,,,['num_0'],2,0.0608935634373,1,['num_0'],0,[0.6165216888184659],,2018_Apr_04_1439,60.0521560914,sequenceLearningTask,001,061,
min1.png,min2.png,min3.png,min4.png,allBlank.png,,,,['num_0'],,,,,,0,1,1,1,,,,,,,,,['num_0'],2,0.0541706888907,1,['num_0'],0,[0.7232179377315333],,2018_Apr_04_1439,60.0521560914,sequenceLearningTask,001,061,
min1.png,min2.png,min3.png,min4.png,allBlank.png,,,,['num_4'],,,,,,0,1,1,1,,,,,,,,,['num_4'],2,0.0555967407563,0,"['num_1', 'num_4']",0,"[0.822000747488346, 3.2214171164814616]",,2018_Apr_04_1439,60.0521560914,sequenceLearningTask,001,061,
min1.png,min2.png,min3.png,min4.png,allBlank.png,,,,['num_1'],,,,,,0,1,1,1,,,,,,,,,['num_1'],2,0.0541899709497,1,['num_1'],0,[1.0906806525890715],,2018_Apr_04_1439,60.0521560914,sequenceLearningTask,001,061,
min1.png,min2.png,min3.png,min4.png,allBlank.png,,,,['num_0'],,,,,,0,1,1,1,,,,,,,,,['num_0'],2,0.0533977654995,1,['num_0'],0,[0.8917386222456116],,2018_Apr_04_1439,60.0521560914,sequenceLearningTask,001,061,
min1.png,min2.png,min3.png,min4.png,allBlank.png,,,,['num_7'],,,,,,0,2,2,2,,,,,,,,,['num_7'],3,0.0520361239178,1,['num_7'],0,[1.0416517093981383],,2018_Apr_04_1439,60.0521560914,sequenceLearningTask,001,061,
min1.png,min2.png,min3.png,min4.png,allBlank.png,,,,['num_1'],,,,,,0,2,2,2,,,,,,,,,['num_1'],3,0.0586334599502,1,['num_1'],0,[1.1692952489538584],,2018_Apr_04_1439,60.0521560914,sequenceLearningTask,001,061,
min1.png,min2.png,min3.png,min4.png,allBlank.png,,,,['num_4'],,,,,,0,2,2,2,,,,,,,,,['num_4'],3,0.0612529482023,1,['num_4'],0,[1.3509310157678556],,2018_Apr_04_1439,60.0521560914,sequenceLearningTask,001,061,
min1.png,min2.png,min3.png,min4.png,allBlank.png,,,,['num_0'],,,,,,0,2,2,2,,,,,,,,,['num_0'],3,0.052114893173,1,['num_0'],0,[0.7920405300683342],,2018_Apr_04_1439,60.0521560914,sequenceLearningTask,001,061,
min1.png,min2.png,min3.png,min4.png,allBlank.png,,,,['num_0'],,,,,,0,2,2,2,,,,,,,,,['num_0'],3,0.0520037136448,1,['num_0'],0,[0.6767432519991416],,2018_Apr_04_1439,60.0521560914,sequenceLearningTask,001,061,
min1.png,min2.png,min3.png,min4.png,allBlank.png,,,,['num_4'],,,,,,0,2,2,2,,,,,,,,,['num_4'],3,0.0523027906893,1,['num_4'],0,[1.258828824138618],,2018_Apr_04_1439,60.0521560914,sequenceLearningTask,001,061,
min1.png,min2.png,min3.png,min4.png,allBlank.png,,,,['num_1'],,,,,,0,2,2,2,,,,,,,,,['num_1'],3,0.0568775618012,1,['num_1'],0,[0.6706710443686461],,2018_Apr_04_1439,60.0521560914,sequenceLearningTask,001,061,
min1.png,min2.png,min3.png,min4.png,allBlank.png,,,,['num_0'],,,,,,0,2,2,2,,,,,,,,,['num_0'],3,0.0514798160002,1,['num_0'],0,[0.7439145616081078],,2018_Apr_04_1439,60.0521560914,sequenceLearningTask,001,061,
min1.png,min2.png,min3.png,min4.png,allBlank.png,,,,['num_7'],,,,,,0,3,3,3,,,,,,,,,['num_7'],4,0.0577567416476,1,['num_7'],0,[0.7178173201245954],,2018_Apr_04_1439,60.0521560914,sequenceLearningTask,001,061,
min1.png,min2.png,min3.png,min4.png,allBlank.png,,,,['num_1'],,,,,,0,3,3,3,,,,,,,,,['num_1'],4,0.0542195094313,1,['num_1'],0,[0.8064352026412962],,2018_Apr_04_1439,60.0521560914,sequenceLearningTask,001,061,
min1.png,min2.png,min3.png,min4.png,allBlank.png,,,,['num_4'],,,,,,0,3,3,3,,,,,,,,,['num_4'],4,0.0581551007781,1,['num_4'],0,[0.9361714609840419],,2018_Apr_04_1439,60.0521560914,sequenceLearningTask,001,061,
min1.png,min2.png,min3.png,min4.png,allBlank.png,,,,['num_0'],,,,,,0,3,3,3,,,,,,,,,['num_0'],4,0.0582511008251,1,['num_0'],0,[0.435847973683849],,2018_Apr_04_1439,60.0521560914,sequenceLearningTask,001,061,
min1.png,min2.png,min3.png,min4.png,allBlank.png,,,,['num_0'],,,,,,0,3,3,3,,,,,,,,,['num_0'],4,0.0558519203478,1,['num_0'],0,[0.6889180262223817],,2018_Apr_04_1439,60.0521560914,sequenceLearningTask,001,061,
min1.png,min2.png,min3.png,min4.png,allBlank.png,,,,['num_4'],,,,,,0,3,3,3,,,,,,,,,['num_4'],4,0.0585107932275,0,"['num_7', 'num_4']",0,"[1.1522306265542284, 1.7196203977946425]",,2018_Apr_04_1439,60.0521560914,sequenceLearningTask,001,061,
min1.png,min2.png,min3.png,min4.png,allBlank.png,,,,['num_1'],,,,,,0,3,3,3,,,,,,,,,['num_1'],4,0.0619290510513,1,['num_1'],0,[0.8147117188636912],,2018_Apr_04_1439,60.0521560914,sequenceLearningTask,001,061,
min1.png,min2.png,min3.png,min4.png,allBlank.png,,,,['num_0'],,,,,,0,3,3,3,,,,,,,,,['num_0'],4,0.0531339705194,0,"['num_1', 'num_1', 'num_0', 'num_0']",0,"[0.724637835752219, 1.2910031963110669, 2.226359477484948]",,2018_Apr_04_1439,60.0521560914,sequenceLearningTask,001,061,
min1.png,min2.png,min3.png,min4.png,allBlank.png,,,,['num_7'],,,,,,0,4,4,4,,,,,,,,,['num_7'],5,0.0501436103223,1,['num_7'],0,[0.9072660132369492],,2018_Apr_04_1439,60.0521560914,sequenceLearningTask,001,061,
min1.png,min2.png,min3.png,min4.png,allBlank.png,,,,['num_1'],,,,,,0,4,4,4,,,,,,,,,['num_1'],5,0.0584759214253,1,['num_1'],0,[0.8860701071098447],,2018_Apr_04_1439,60.0521560914,sequenceLearningTask,001,061,
min1.png,min2.png,min3.png,min4.png,allBlank.png,,,,['num_4'],,,,,,0,4,4,4,,,,,,,,,['num_4'],5,0.0562781769258,1,['num_4'],0,[0.9545189556956757],,2018_Apr_04_1439,60.0521560914,sequenceLearningTask,001,061,
min1.png,min2.png,min3.png,min4.png,allBlank.png,,,,['num_0'],,,,,,0,4,4,4,,,,,,,,,['num_0'],5,0.0578018698725,1,['num_0'],0,[0.6370644665003056],,2018_Apr_04_1439,60.0521560914,sequenceLearningTask,001,061,
min1.png,min2.png,min3.png,min4.png,allBlank.png,,,,['num_0'],,,,,,0,4,4,4,,,,,,,,,['num_0'],5,0.0513846364775,1,['num_0'],0,[0.7260893235215917],,2018_Apr_04_1439,60.0521560914,sequenceLearningTask,001,061,
min1.png,min2.png,min3.png,min4.png,allBlank.png,,,,['num_4'],,,,,,0,4,4,4,,,,,,,,,['num_4'],5,0.0533973552374,1,['num_4'],0,[0.8574998389667599],,2018_Apr_04_1439,60.0521560914,sequenceLearningTask,001,061,
min1.png,min2.png,min3.png,min4.png,allBlank.png,,,,['num_1'],,,,,,0,4,4,4,,,,,,,,,['num_1'],5,0.0520472008357,1,['num_1'],0,[0.7591375422052806],,2018_Apr_04_1439,60.0521560914,sequenceLearningTask,001,061,
min1.png,min2.png,min3.png,min4.png,allBlank.png,,,,['num_0'],,,,,,0,4,4,4,,,,,,,,,['num_0'],5,0.0521891496173,1,['num_0'],0,[0.5414348887861706],,2018_Apr_04_1439,60.0521560914,sequenceLearningTask,001,061,
min1.png,min2.png,min3.png,min4.png,allBlank.png,,,,['num_7'],,,,,,0,5,5,5,,,,,,,,,['num_7'],6,0.0548816635419,1,['num_7'],0,[0.8711905112577369],,2018_Apr_04_1439,60.0521560914,sequenceLearningTask,001,061,
min1.png,min2.png,min3.png,min4.png,allBlank.png,,,,['num_1'],,,,,,0,5,5,5,,,,,,,,,['num_1'],6,0.0605694607511,0,"['num_4', 'num_1']",0,"[0.7167104478867259, 1.2311516845802544]",,2018_Apr_04_1439,60.0521560914,sequenceLearningTask,001,061,
min1.png,min2.png,min3.png,min4.png,allBlank.png,,,,['num_4'],,,,,,0,5,5,5,,,,,,,,,['num_4'],6,0.0580964340916,1,['num_4'],0,[0.8873148255661363],,2018_Apr_04_1439,60.0521560914,sequenceLearningTask,001,061,
min1.png,min2.png,min3.png,min4.png,allBlank.png,,,,['num_0'],,,,,,0,5,5,5,,,,,,,,,['num_0'],6,0.0553415611648,1,['num_0'],0,[0.538562272224226],,2018_Apr_04_1439,60.0521560914,sequenceLearningTask,001,061,
min1.png,min2.png,min3.png,min4.png,allBlank.png,,,,['num_0'],,,,,,0,5,5,5,,,,,,,,,['num_0'],6,0.0552106893156,0,"['num_1', 'num_0']",0,"[0.7564109769882634, 0.7732138556748396]",,2018_Apr_04_1439,60.0521560914,sequenceLearningTask,001,061,
min1.png,min2.png,min3.png,min4.png,allBlank.png,,,,['num_4'],,,,,,0,5,5,5,,,,,,,,,['num_4'],6,0.0534076116601,1,['num_4'],0,[1.0257173438876634],,2018_Apr_04_1439,60.0521560914,sequenceLearningTask,001,061,
min1.png,min2.png,min3.png,min4.png,allBlank.png,,,,['num_1'],,,,,,0,5,5,5,,,,,,,,,['num_1'],6,0.0595922295761,1,['num_1'],0,[0.7014907493285136],,2018_Apr_04_1439,60.0521560914,sequenceLearningTask,001,061,
min1.png,min2.png,min3.png,min4.png,allBlank.png,,,,['num_0'],,,,,,0,5,5,5,,,,,,,,,['num_0'],6,0.0524837138364,1,['num_0'],0,[0.3924469302291982],,2018_Apr_04_1439,60.0521560914,sequenceLearningTask,001,061,
min1.png,min2.png,min3.png,min4.png,allBlank.png,,,,['num_7'],,,,,,0,6,6,6,,,,,,,,,['num_7'],7,0.055025253343,1,['num_7'],0,[0.8877509283047402],,2018_Apr_04_1439,60.0521560914,sequenceLearningTask,001,061,
min1.png,min2.png,min3.png,min4.png,allBlank.png,,,,['num_1'],,,,,,0,6,6,6,,,,,,,,,['num_1'],7,0.0543122274103,1,['num_1'],0,[0.5915887555311201],,2018_Apr_04_1439,60.0521560914,sequenceLearningTask,001,061,
min1.png,min2.png,min3.png,min4.png,allBlank.png,,,,['num_4'],,,,,,0,6,6,6,,,,,,,,,['num_4'],7,0.0626043333759,1,['num_4'],0,[0.7472515886183828],,2018_Apr_04_1439,60.0521560914,sequenceLearningTask,001,061,
min1.png,min2.png,min3.png,min4.png,allBlank.png,,,,['num_0'],,,,,,0,6,6,6,,,,,,,,,['num_0'],7,0.0499532512622,1,['num_0'],0,[0.44469966962060425],,2018_Apr_04_1439,60.0521560914,sequenceLearningTask,001,061,
min1.png,min2.png,min3.png,min4.png,allBlank.png,,,,['num_0'],,,,,,0,6,6,6,,,,,,,,,['num_0'],7,0.0586211522605,1,['num_0'],0,[0.7035416219587205],,2018_Apr_04_1439,60.0521560914,sequenceLearningTask,001,061,
min1.png,min2.png,min3.png,min4.png,allBlank.png,,,,['num_4'],,,,,,0,6,6,6,,,,,,,,,['num_4'],7,0.0627458718955,0,"['num_7', 'num_4']",0,"[0.7467079986527096, 1.1456977008056128]",,2018_Apr_04_1439,60.0521560914,sequenceLearningTask,001,061,
min1.png,min2.png,min3.png,min4.png,allBlank.png,,,,['num_1'],,,,,,0,6,6,6,,,,,,,,,['num_1'],7,0.054423406953,1,['num_1'],0,[0.590789165449678],,2018_Apr_04_1439,60.0521560914,sequenceLearningTask,001,061,
min1.png,min2.png,min3.png,min4.png,allBlank.png,,,,['num_0'],,,,,,0,6,6,6,,,,,,,,,['num_0'],7,0.0619565382513,1,['num_0'],0,[0.6148511240317021],,2018_Apr_04_1439,60.0521560914,sequenceLearningTask,001,061,
min1.png,min2.png,min3.png,min4.png,allBlank.png,,,,['num_7'],,,,,,0,7,7,7,,,,,,,,,['num_7'],8,0.0535741758358,1,['num_7'],0,[0.7224839887057897],,2018_Apr_04_1439,60.0521560914,sequenceLearningTask,001,061,
min1.png,min2.png,min3.png,min4.png,allBlank.png,,,,['num_1'],,,,,,0,7,7,7,,,,,,,,,['num_1'],8,0.0579442289018,1,['num_1'],0,[0.5361552968824981],,2018_Apr_04_1439,60.0521560914,sequenceLearningTask,001,061,
min1.png,min2.png,min3.png,min4.png,allBlank.png,,,,['num_4'],,,,,,0,7,7,7,,,,,,,,,['num_4'],8,0.0556065869168,1,['num_4'],0,[0.837125676771393],,2018_Apr_04_1439,60.0521560914,sequenceLearningTask,001,061,
min1.png,min2.png,min3.png,min4.png,allBlank.png,,,,['num_0'],,,,,,0,7,7,7,,,,,,,,,['num_0'],8,0.0561821769079,1,['num_0'],0,[0.6878008975618286],,2018_Apr_04_1439,60.0521560914,sequenceLearningTask,001,061,
min1.png,min2.png,min3.png,min4.png,allBlank.png,,,,['num_0'],,,,,,0,7,7,7,,,,,,,,,['num_0'],8,0.0574449466367,1,['num_0'],0,[0.6870119741506642],,2018_Apr_04_1439,60.0521560914,sequenceLearningTask,001,061,
min1.png,min2.png,min3.png,min4.png,allBlank.png,,,,['num_4'],,,,,,0,7,7,7,,,,,,,,,['num_4'],8,0.0541235093842,1,['num_4'],0,[0.6728831478540087],,2018_Apr_04_1439,60.0521560914,sequenceLearningTask,001,061,
min1.png,min2.png,min3.png,min4.png,allBlank.png,,,,['num_1'],,,,,,0,7,7,7,,,,,,,,,['num_1'],8,0.04949089211,0,"['num_4', 'num_4', 'num_1', 'num_1']",0,"[0.5616597176122013, 0.8641492776077939, 2.911911348477588]",,2018_Apr_04_1439,60.0521560914,sequenceLearningTask,001,061,
min1.png,min2.png,min3.png,min4.png,allBlank.png,,,,['num_0'],,,,,,0,7,7,7,,,,,,,,,['num_0'],8,0.0558597152267,0,"['num_1', 'num_0']",0,"[0.8885989286500262, 1.454976186651038]",,2018_Apr_04_1439,60.0521560914,sequenceLearningTask,001,061,
min1.png,min2.png,min3.png,min4.png,allBlank.png,,,,['num_7'],,,,,,0,8,8,8,,,,,,,,,['num_7'],9,0.0523992009839,1,['num_7'],0,[0.8740171790850582],,2018_Apr_04_1439,60.0521560914,sequenceLearningTask,001,061,
min1.png,min2.png,min3.png,min4.png,allBlank.png,,,,['num_1'],,,,,,0,8,8,8,,,,,,,,,['num_1'],9,0.0570359208359,1,['num_1'],0,[0.8377045488014119],,2018_Apr_04_1439,60.0521560914,sequenceLearningTask,001,061,
min1.png,min2.png,min3.png,min4.png,allBlank.png,,,,['num_4'],,,,,,0,8,8,8,,,,,,,,,['num_4'],9,0.0583438188041,1,['num_4'],0,[0.935704178744345],,2018_Apr_04_1439,60.0521560914,sequenceLearningTask,001,061,
min1.png,min2.png,min3.png,min4.png,allBlank.png,,,,['num_0'],,,,,,0,8,8,8,,,,,,,,,['num_0'],9,0.0611483327812,1,['num_0'],0,[0.6504470360814594],,2018_Apr_04_1439,60.0521560914,sequenceLearningTask,001,061,
min1.png,min2.png,min3.png,min4.png,allBlank.png,,,,['num_0'],,,,,,0,8,8,8,,,,,,,,,['num_0'],9,0.0547918173543,1,['num_0'],0,[0.6226012810657267],,2018_Apr_04_1439,60.0521560914,sequenceLearningTask,001,061,
min1.png,min2.png,min3.png,min4.png,allBlank.png,,,,['num_4'],,,,,,0,8,8,8,,,,,,,,,['num_4'],9,0.0554392022314,1,['num_4'],0,[0.7396298418898368],,2018_Apr_04_1439,60.0521560914,sequenceLearningTask,001,061,
min1.png,min2.png,min3.png,min4.png,allBlank.png,,,,['num_1'],,,,,,0,8,8,8,,,,,,,,,['num_1'],9,0.059336639737,0,"['num_4', 'num_1']",0,"[0.7519732315849978, 1.182901408377802]",,2018_Apr_04_1439,60.0521560914,sequenceLearningTask,001,061,
min1.png,min2.png,min3.png,min4.png,allBlank.png,,,,['num_0'],,,,,,0,8,8,8,,,,,,,,,['num_0'],9,0.0523269958358,1,['num_0'],0,[0.6273089753085515],,2018_Apr_04_1439,60.0521560914,sequenceLearningTask,001,061,
min1.png,min2.png,min3.png,min4.png,allBlank.png,,,,['num_7'],,,,,,0,9,9,9,,,,,,,,,['num_7'],10,0.0580652545905,1,['num_7'],0,[0.9515011083130958],,2018_Apr_04_1439,60.0521560914,sequenceLearningTask,001,061,
min1.png,min2.png,min3.png,min4.png,allBlank.png,,,,['num_1'],,,,,,0,9,9,9,,,,,,,,,['num_1'],10,0.0508459695848,1,['num_1'],0,[0.6443912387185264],,2018_Apr_04_1439,60.0521560914,sequenceLearningTask,001,061,
min1.png,min2.png,min3.png,min4.png,allBlank.png,,,,['num_4'],,,,,,0,9,9,9,,,,,,,,,['num_4'],10,0.0506256617955,1,['num_4'],0,[0.7264421441796003],,2018_Apr_04_1439,60.0521560914,sequenceLearningTask,001,061,
min1.png,min2.png,min3.png,min4.png,allBlank.png,,,,['num_0'],,,,,,0,9,9,9,,,,,,,,,['num_0'],10,0.0528110985906,1,['num_0'],0,[0.49139917595312],,2018_Apr_04_1439,60.0521560914,sequenceLearningTask,001,061,
min1.png,min2.png,min3.png,min4.png,allBlank.png,,,,['num_0'],,,,,,0,9,9,9,,,,,,,,,['num_0'],10,0.0544734582363,1,['num_0'],0,[0.7071018285496393],,2018_Apr_04_1439,60.0521560914,sequenceLearningTask,001,061,
min1.png,min2.png,min3.png,min4.png,allBlank.png,,,,['num_4'],,,,,,0,9,9,9,,,,,,,,,['num_4'],10,0.0510929440352,1,['num_4'],0,[0.9445045926258899],,2018_Apr_04_1439,60.0521560914,sequenceLearningTask,001,061,
min1.png,min2.png,min3.png,min4.png,allBlank.png,,,,['num_1'],,,,,,0,9,9,9,,,,,,,,,['num_1'],10,0.0528061755176,1,['num_1'],0,[0.7752877026796341],,2018_Apr_04_1439,60.0521560914,sequenceLearningTask,001,061,
min1.png,min2.png,min3.png,min4.png,allBlank.png,,,,['num_0'],,,,,,0,9,9,9,,,,,,,,,['num_0'],10,0.0567499720055,0,"['num_1', 'num_0']",0,"[0.4547283916908782, 0.5053798996377736]",,2018_Apr_04_1439,60.0521560914,sequenceLearningTask,001,061,
min1.png,min2.png,min3.png,min4.png,allBlank.png,,,,['num_7'],,,,,,0,0,0,0,,,,,,,,,['num_7'],1,0.0575241261686,1,['num_7'],0,[0.7207170136243803],,2018_Apr_04_1439,60.0521560914,sequenceLearningTask,001,061,
min1.png,min2.png,min3.png,min4.png,allBlank.png,,,,['num_1'],,,,,,0,0,0,0,,,,,,,,,['num_1'],1,0.0514851493208,1,['num_1'],0,[0.9098789373965701],,2018_Apr_04_1439,60.0521560914,sequenceLearningTask,001,061,
min1.png,min2.png,min3.png,min4.png,allBlank.png,,,,['num_4'],,,,,,0,0,0,0,,,,,,,,,['num_4'],1,0.0561764333106,1,['num_4'],0,[0.6392224160954356],,2018_Apr_04_1439,60.0521560914,sequenceLearningTask,001,061,
min1.png,min2.png,min3.png,min4.png,allBlank.png,,,,['num_0'],,,,,,0,0,0,0,,,,,,,,,['num_0'],1,0.0576324339054,1,['num_0'],0,[0.7532048218272394],,2018_Apr_04_1439,60.0521560914,sequenceLearningTask,001,061,
min1.png,min2.png,min3.png,min4.png,allBlank.png,,,,['num_0'],,,,,,0,0,0,0,,,,,,,,,['num_0'],1,0.0466859678709,1,['num_0'],0,[0.5980223991937237],,2018_Apr_04_1439,60.0521560914,sequenceLearningTask,001,061,
min1.png,min2.png,min3.png,min4.png,allBlank.png,,,,['num_4'],,,,,,0,0,0,0,,,,,,,,,['num_4'],1,0.0545932531531,1,['num_4'],0,[0.7729004196589813],,2018_Apr_04_1439,60.0521560914,sequenceLearningTask,001,061,
min1.png,min2.png,min3.png,min4.png,allBlank.png,,,,['num_1'],,,,,,0,0,0,0,,,,,,,,,['num_1'],1,0.0607594095491,0,"['num_4', 'num_1', 'num_1']",0,"[0.5590656652493635, 1.8508261952083558]",,2018_Apr_04_1439,60.0521560914,sequenceLearningTask,001,061,
min1.png,min2.png,min3.png,min4.png,allBlank.png,,,,['num_0'],,,,,,0,0,0,0,,,,,,,,,['num_0'],1,0.0539343811106,1,['num_0'],0,[1.2579685160890222],,2018_Apr_04_1439,60.0521560914,sequenceLearningTask,001,061,
min1.png,min2.png,min3.png,min4.png,allBlank.png,,,,['num_7'],,,,,,0,1,1,1,,,,,,,,,['num_7'],2,0.0590490498726,1,['num_7'],0,[0.6837151522922795],,2018_Apr_04_1439,60.0521560914,sequenceLearningTask,001,061,
min1.png,min2.png,min3.png,min4.png,allBlank.png,,,,['num_1'],,,,,,0,1,1,1,,,,,,,,,['num_1'],2,0.052732739583,1,['num_1'],0,[0.5584757162869209],,2018_Apr_04_1439,60.0521560914,sequenceLearningTask,001,061,
min1.png,min2.png,min3.png,min4.png,allBlank.png,,,,['num_4'],,,,,,0,1,1,1,,,,,,,,,['num_4'],2,0.0506650464231,1,['num_4'],0,[0.8104175632470287],,2018_Apr_04_1439,60.0521560914,sequenceLearningTask,001,061,
min1.png,min2.png,min3.png,min4.png,allBlank.png,,,,['num_0'],,,,,,0,1,1,1,,,,,,,,,['num_0'],2,0.0549263815046,1,['num_0'],0,[0.5893036263732938],,2018_Apr_04_1439,60.0521560914,sequenceLearningTask,001,061,
min1.png,min2.png,min3.png,min4.png,allBlank.png,,,,['num_0'],,,,,,0,1,1,1,,,,,,,,,['num_0'],2,0.0501284308266,1,['num_0'],0,[0.595068141570664],,2018_Apr_04_1439,60.0521560914,sequenceLearningTask,001,061,
min1.png,min2.png,min3.png,min4.png,allBlank.png,,,,['num_4'],,,,,,0,1,1,1,,,,,,,,,['num_4'],2,0.0596566398599,1,['num_4'],0,[1.0688947974849725],,2018_Apr_04_1439,60.0521560914,sequenceLearningTask,001,061,
min1.png,min2.png,min3.png,min4.png,allBlank.png,,,,['num_1'],,,,,,0,1,1,1,,,,,,,,,['num_1'],2,0.0540968427085,1,['num_1'],0,[0.7571916952583706],,2018_Apr_04_1439,60.0521560914,sequenceLearningTask,001,061,
min1.png,min2.png,min3.png,min4.png,allBlank.png,,,,['num_0'],,,,,,0,1,1,1,,,,,,,,,['num_0'],2,0.0544188941276,1,['num_0'],0,[0.5567231001914479],,2018_Apr_04_1439,60.0521560914,sequenceLearningTask,001,061,
min1.png,min2.png,min3.png,min4.png,allBlank.png,,,,['num_7'],,,,,,0,2,2,2,,,,,,,,,['num_7'],3,0.0518802264123,1,['num_7'],0,[0.8748417947936105],,2018_Apr_04_1439,60.0521560914,sequenceLearningTask,001,061,
min1.png,min2.png,min3.png,min4.png,allBlank.png,,,,['num_1'],,,,,,0,2,2,2,,,,,,,,,['num_1'],3,0.0570991003478,1,['num_1'],0,[0.7036113655776717],,2018_Apr_04_1439,60.0521560914,sequenceLearningTask,001,061,
min1.png,min2.png,min3.png,min4.png,allBlank.png,,,,['num_4'],,,,,,0,2,2,2,,,,,,,,,['num_4'],3,0.0518789956404,1,['num_4'],0,[0.7764265749428887],,2018_Apr_04_1439,60.0521560914,sequenceLearningTask,001,061,
min1.png,min2.png,min3.png,min4.png,allBlank.png,,,,['num_0'],,,,,,0,2,2,2,,,,,,,,,['num_0'],3,0.0585460752918,1,['num_0'],0,[0.5353762196464231],,2018_Apr_04_1439,60.0521560914,sequenceLearningTask,001,061,
min1.png,min2.png,min3.png,min4.png,allBlank.png,,,,['num_0'],,,,,,0,2,2,2,,,,,,,,,['num_0'],3,0.049147917598,1,['num_0'],0,[0.5626480257051298],,2018_Apr_04_1439,60.0521560914,sequenceLearningTask,001,061,
min1.png,min2.png,min3.png,min4.png,allBlank.png,,,,['num_4'],,,,,,0,2,2,2,,,,,,,,,['num_4'],3,0.051030585033,1,['num_4'],0,[0.9934715870622313],,2018_Apr_04_1439,60.0521560914,sequenceLearningTask,001,061,
min1.png,min2.png,min3.png,min4.png,allBlank.png,,,,['num_1'],,,,,,0,2,2,2,,,,,,,,,['num_1'],3,0.0526129446662,1,['num_1'],0,[0.47546686172427144],,2018_Apr_04_1439,60.0521560914,sequenceLearningTask,001,061,
min1.png,min2.png,min3.png,min4.png,allBlank.png,,,,['num_0'],,,,,,0,2,2,2,,,,,,,,,['num_0'],3,0.0609226916567,0,"['num_1', 'num_0']",0,"[0.5012990774557693, 0.5518353033112362]",,2018_Apr_04_1439,60.0521560914,sequenceLearningTask,001,061,
min1.png,min2.png,min3.png,min4.png,allBlank.png,,,,['num_7'],,,,,,0,3,3,3,,,,,,,,,['num_7'],4,0.0546273044602,1,['num_7'],0,[0.7383834824140649],,2018_Apr_04_1439,60.0521560914,sequenceLearningTask,001,061,
min1.png,min2.png,min3.png,min4.png,allBlank.png,,,,['num_1'],,,,,,0,3,3,3,,,,,,,,,['num_1'],4,0.0530326371372,1,['num_1'],0,[1.190997001438518],,2018_Apr_04_1439,60.0521560914,sequenceLearningTask,001,061,
min1.png,min2.png,min3.png,min4.png,allBlank.png,,,,['num_4'],,,,,,0,3,3,3,,,,,,,,,['num_4'],4,0.0595257680106,1,['num_4'],0,[0.8019954059564043],,2018_Apr_04_1439,60.0521560914,sequenceLearningTask,001,061,
min1.png,min2.png,min3.png,min4.png,allBlank.png,,,,['num_0'],,,,,,0,3,3,3,,,,,,,,,['num_0'],4,0.0542621761124,1,['num_0'],0,[0.5235226763179526],,2018_Apr_04_1439,60.0521560914,sequenceLearningTask,001,061,
min1.png,min2.png,min3.png,min4.png,allBlank.png,,,,['num_0'],,,,,,0,3,3,3,,,,,,,,,['num_0'],4,0.0526605344203,1,['num_0'],0,[0.6257015900337137],,2018_Apr_04_1439,60.0521560914,sequenceLearningTask,001,061,
min1.png,min2.png,min3.png,min4.png,allBlank.png,,,,['num_4'],,,,,,0,3,3,3,,,,,,,,,['num_4'],4,0.0582154084987,1,['num_4'],0,[0.854575940335053],,2018_Apr_04_1439,60.0521560914,sequenceLearningTask,001,061,
min1.png,min2.png,min3.png,min4.png,allBlank.png,,,,['num_1'],,,,,,0,3,3,3,,,,,,,,,['num_1'],4,0.0575454595091,1,['num_1'],0,[0.7046415198565228],,2018_Apr_04_1439,60.0521560914,sequenceLearningTask,001,061,
min1.png,min2.png,min3.png,min4.png,allBlank.png,,,,['num_0'],,,,,,0,3,3,3,,,,,,,,,['num_0'],4,0.0548660737986,1,['num_0'],0,[0.43983525737712625],,2018_Apr_04_1439,60.0521560914,sequenceLearningTask,001,061,
min1.png,min2.png,min3.png,min4.png,allBlank.png,,,,['num_7'],,,,,,0,4,4,4,,,,,,,,,['num_7'],5,0.0517879186809,1,['num_7'],0,[0.8407416782574728],,2018_Apr_04_1439,60.0521560914,sequenceLearningTask,001,061,
min1.png,min2.png,min3.png,min4.png,allBlank.png,,,,['num_1'],,,,,,0,4,4,4,,,,,,,,,['num_1'],5,0.0525842267089,1,['num_1'],0,[0.7928019662795123],,2018_Apr_04_1439,60.0521560914,sequenceLearningTask,001,061,
min1.png,min2.png,min3.png,min4.png,allBlank.png,,,,['num_4'],,,,,,0,4,4,4,,,,,,,,,['num_4'],5,0.0538843297982,1,['num_4'],0,[0.7404126114415703],,2018_Apr_04_1439,60.0521560914,sequenceLearningTask,001,061,
min1.png,min2.png,min3.png,min4.png,allBlank.png,,,,['num_0'],,,,,,0,4,4,4,,,,,,,,,['num_0'],5,0.0537169451127,1,['num_0'],0,[0.774794574273983],,2018_Apr_04_1439,60.0521560914,sequenceLearningTask,001,061,
min1.png,min2.png,min3.png,min4.png,allBlank.png,,,,['num_0'],,,,,,0,4,4,4,,,,,,,,,['num_0'],5,0.0568373566493,1,['num_0'],0,[0.6552749355032574],,2018_Apr_04_1439,60.0521560914,sequenceLearningTask,001,061,
min1.png,min2.png,min3.png,min4.png,allBlank.png,,,,['num_4'],,,,,,0,4,4,4,,,,,,,,,['num_4'],5,0.0531696628459,1,['num_4'],0,[0.707704905726132],,2018_Apr_04_1439,60.0521560914,sequenceLearningTask,001,061,
min1.png,min2.png,min3.png,min4.png,allBlank.png,,,,['num_1'],,,,,,0,4,4,4,,,,,,,,,['num_1'],5,0.0610547942779,1,['num_1'],0,[0.7170743454626063],,2018_Apr_04_1439,60.0521560914,sequenceLearningTask,001,061,
min1.png,min2.png,min3.png,min4.png,allBlank.png,,,,['num_0'],,,,,,0,4,4,4,,,,,,,,,['num_0'],5,0.0586781779275,0,"['num_1', 'num_0']",0,"[0.5021327188296709, 1.0839393164933426]",,2018_Apr_04_1439,60.0521560914,sequenceLearningTask,001,061,
min1.png,min2.png,min3.png,min4.png,allBlank.png,,,,['num_7'],,,,,,0,5,5,5,,,,,,,,,['num_7'],6,0.0521259700909,1,['num_7'],0,[0.5734090557671152],,2018_Apr_04_1439,60.0521560914,sequenceLearningTask,001,061,
min1.png,min2.png,min3.png,min4.png,allBlank.png,,,,['num_1'],,,,,,0,5,5,5,,,,,,,,,['num_1'],6,0.0512094569131,1,['num_1'],0,[0.4602516759914579],,2018_Apr_04_1439,60.0521560914,sequenceLearningTask,001,061,
min1.png,min2.png,min3.png,min4.png,allBlank.png,,,,['num_4'],,,,,,0,5,5,5,,,,,,,,,['num_4'],6,0.0539852529182,0,"['num_7', 'num_4']",0,"[0.6910878732742276, 1.1076759416173445]",,2018_Apr_04_1439,60.0521560914,sequenceLearningTask,001,061,
min1.png,min2.png,min3.png,min4.png,allBlank.png,,,,['num_0'],,,,,,0,5,5,5,,,,,,,,,['num_0'],6,0.05925212687,1,['num_0'],0,[0.7351691221265355],,2018_Apr_04_1439,60.0521560914,sequenceLearningTask,001,061,
min1.png,min2.png,min3.png,min4.png,allBlank.png,,,,['num_0'],,,,,,0,5,5,5,,,,,,,,,['num_0'],6,0.0530158166221,1,['num_0'],0,[0.5586188958404819],,2018_Apr_04_1439,60.0521560914,sequenceLearningTask,001,061,
min1.png,min2.png,min3.png,min4.png,allBlank.png,,,,['num_4'],,,,,,0,5,5,5,,,,,,,,,['num_4'],6,0.0541768427502,1,['num_4'],0,[0.7734173429489601],,2018_Apr_04_1439,60.0521560914,sequenceLearningTask,001,061,
min1.png,min2.png,min3.png,min4.png,allBlank.png,,,,['num_1'],,,,,,0,5,5,5,,,,,,,,,['num_1'],6,0.0562404333323,0,"['num_0', 'num_4', 'num_1']",0,"[0.7392351750604575, 1.4383480772667099, 1.9723679886519676]",,2018_Apr_04_1439,60.0521560914,sequenceLearningTask,001,061,
min1.png,min2.png,min3.png,min4.png,allBlank.png,,,,['num_0'],,,,,,0,5,5,5,,,,,,,,,['num_0'],6,0.0545423813601,1,['num_0'],0,[0.6230882556264987],,2018_Apr_04_1439,60.0521560914,sequenceLearningTask,001,061,
min1.png,min2.png,min3.png,min4.png,allBlank.png,,,,['num_7'],,,,,,0,6,6,6,,,,,,,,,['num_7'],7,0.0615048457403,1,['num_7'],0,[0.680100791840232],,2018_Apr_04_1439,60.0521560914,sequenceLearningTask,001,061,
min1.png,min2.png,min3.png,min4.png,allBlank.png,,,,['num_1'],,,,,,0,6,6,6,,,,,,,,,['num_1'],7,0.0545058685093,1,['num_1'],0,[0.6058656844543293],,2018_Apr_04_1439,60.0521560914,sequenceLearningTask,001,061,
min1.png,min2.png,min3.png,min4.png,allBlank.png,,,,['num_4'],,,,,,0,6,6,6,,,,,,,,,['num_4'],7,0.0527918165317,1,['num_4'],0,[0.8257398259447655],,2018_Apr_04_1439,60.0521560914,sequenceLearningTask,001,061,
min1.png,min2.png,min3.png,min4.png,allBlank.png,,,,['num_0'],,,,,,0,6,6,6,,,,,,,,,['num_0'],7,0.054068945261,1,['num_0'],0,[0.4734730147465598],,2018_Apr_04_1439,60.0521560914,sequenceLearningTask,001,061,
min1.png,min2.png,min3.png,min4.png,allBlank.png,,,,['num_0'],,,,,,0,6,6,6,,,,,,,,,['num_0'],7,0.0503319180862,1,['num_0'],0,[0.5939132693019928],,2018_Apr_04_1439,60.0521560914,sequenceLearningTask,001,061,
min1.png,min2.png,min3.png,min4.png,allBlank.png,,,,['num_4'],,,,,,0,6,6,6,,,,,,,,,['num_4'],7,0.0579097673472,1,['num_4'],0,[0.7516696417151252],,2018_Apr_04_1439,60.0521560914,sequenceLearningTask,001,061,
min1.png,min2.png,min3.png,min4.png,allBlank.png,,,,['num_1'],,,,,,0,6,6,6,,,,,,,,,['num_1'],7,0.0488217636157,0,"['num_4', 'num_1']",0,"[0.8121074100927217, 0.8460475265892455]",,2018_Apr_04_1439,60.0521560914,sequenceLearningTask,001,061,
min1.png,min2.png,min3.png,min4.png,allBlank.png,,,,['num_0'],,,,,,0,6,6,6,,,,,,,,,['num_0'],7,0.0513177646353,1,['num_0'],0,[0.5101232862070901],,2018_Apr_04_1439,60.0521560914,sequenceLearningTask,001,061,
min1.png,min2.png,min3.png,min4.png,allBlank.png,,,,['num_7'],,,,,,0,7,7,7,,,,,,,,,['num_7'],8,0.0528492524463,1,['num_7'],0,[0.7402960985928075],,2018_Apr_04_1439,60.0521560914,sequenceLearningTask,001,061,
min1.png,min2.png,min3.png,min4.png,allBlank.png,,,,['num_1'],,,,,,0,7,7,7,,,,,,,,,['num_1'],8,0.0529489447945,0,"['num_4', 'num_1']",0,"[0.6244605638785288, 1.2748140614567092]",,2018_Apr_04_1439,60.0521560914,sequenceLearningTask,001,061,
min1.png,min2.png,min3.png,min4.png,allBlank.png,,,,['num_4'],,,,,,0,7,7,7,,,,,,,,,['num_4'],8,0.0521628932038,1,['num_4'],0,[0.7428011252486613],,2018_Apr_04_1439,60.0521560914,sequenceLearningTask,001,061,
min1.png,min2.png,min3.png,min4.png,allBlank.png,,,,['num_0'],,,,,,0,7,7,7,,,,,,,,,['num_0'],8,0.0577587929292,1,['num_0'],0,[0.4532059295306681],,2018_Apr_04_1439,60.0521560914,sequenceLearningTask,001,061,
min1.png,min2.png,min3.png,min4.png,allBlank.png,,,,['num_0'],,,,,,0,7,7,7,,,,,,,,,['num_0'],8,0.0587782805233,1,['num_0'],0,[0.5189692385465605],,2018_Apr_04_1439,60.0521560914,sequenceLearningTask,001,061,
min1.png,min2.png,min3.png,min4.png,allBlank.png,,,,['num_4'],,,,,,0,7,7,7,,,,,,,,,['num_4'],8,0.0562506897404,0,"['num_1', 'num_7', 'num_4']",0,"[0.7389943544549169, 1.0889382929017302, 1.1883500259864377]",,2018_Apr_04_1439,60.0521560914,sequenceLearningTask,001,061,
min1.png,min2.png,min3.png,min4.png,allBlank.png,,,,['num_1'],,,,,,0,7,7,7,,,,,,,,,['num_1'],8,0.0527594062733,1,['num_1'],0,[0.6910669501812663],,2018_Apr_04_1439,60.0521560914,sequenceLearningTask,001,061,
min1.png,min2.png,min3.png,min4.png,allBlank.png,,,,['num_0'],,,,,,0,7,7,7,,,,,,,,,['num_0'],8,0.0548644327646,1,['num_0'],0,[0.8900861087604426],,2018_Apr_04_1439,60.0521560914,sequenceLearningTask,001,061,
min1.png,min2.png,min3.png,min4.png,allBlank.png,,,,['num_7'],,,,,,0,8,8,8,,,,,,,,,['num_7'],9,0.0531397141021,1,['num_7'],0,[0.5394709905522177],,2018_Apr_04_1439,60.0521560914,sequenceLearningTask,001,061,
min1.png,min2.png,min3.png,min4.png,allBlank.png,,,,['num_1'],,,,,,0,8,8,8,,,,,,,,,['num_1'],9,0.0550609456695,1,['num_1'],0,[0.6075272235902958],,2018_Apr_04_1439,60.0521560914,sequenceLearningTask,001,061,
min1.png,min2.png,min3.png,min4.png,allBlank.png,,,,['num_4'],,,,,,0,8,8,8,,,,,,,,,['num_4'],9,0.0616377688712,1,['num_4'],0,[0.515467698656721],,2018_Apr_04_1439,60.0521560914,sequenceLearningTask,001,061,
min1.png,min2.png,min3.png,min4.png,allBlank.png,,,,['num_0'],,,,,,0,8,8,8,,,,,,,,,['num_0'],9,0.0597280244983,1,['num_0'],0,[0.450822749058716],,2018_Apr_04_1439,60.0521560914,sequenceLearningTask,001,061,
min1.png,min2.png,min3.png,min4.png,allBlank.png,,,,['num_0'],,,,,,0,8,8,8,,,,,,,,,['num_0'],9,0.0618863843556,1,['num_0'],0,[0.5156982628395781],,2018_Apr_04_1439,60.0521560914,sequenceLearningTask,001,061,
min1.png,min2.png,min3.png,min4.png,allBlank.png,,,,['num_4'],,,,,,0,8,8,8,,,,,,,,,['num_4'],9,0.0572357157944,0,"['num_7', 'num_4']",0,"[0.9541722888825461, 1.3043221761327004]",,2018_Apr_04_1439,60.0521560914,sequenceLearningTask,001,061,
min1.png,min2.png,min3.png,min4.png,allBlank.png,,,,['num_1'],,,,,,0,8,8,8,,,,,,,,,['num_1'],9,0.0550527405285,1,['num_1'],0,[0.5562414589658147],,2018_Apr_04_1439,60.0521560914,sequenceLearningTask,001,061,
min1.png,min2.png,min3.png,min4.png,allBlank.png,,,,['num_0'],,,,,,0,8,8,8,,,,,,,,,['num_0'],9,0.0529202268372,1,['num_0'],0,[0.5753745950205484],,2018_Apr_04_1439,60.0521560914,sequenceLearningTask,001,061,
min1.png,min2.png,min3.png,min4.png,allBlank.png,,,,['num_7'],,,,,,0,9,9,9,,,,,,,,,['num_7'],10,0.0538584836322,1,['num_7'],0,[0.9071265259990469],,2018_Apr_04_1439,60.0521560914,sequenceLearningTask,001,061,
min1.png,min2.png,min3.png,min4.png,allBlank.png,,,,['num_1'],,,,,,0,9,9,9,,,,,,,,,['num_1'],10,0.058201870037,1,['num_1'],0,[0.7189073718473082],,2018_Apr_04_1439,60.0521560914,sequenceLearningTask,001,061,
min1.png,min2.png,min3.png,min4.png,allBlank.png,,,,['num_4'],,,,,,0,9,9,9,,,,,,,,,['num_4'],10,0.0648357189202,0,"['num_1', 'num_4']",0,"[0.8458292700815946, 0.9968918961531017]",,2018_Apr_04_1439,60.0521560914,sequenceLearningTask,001,061,
min1.png,min2.png,min3.png,min4.png,allBlank.png,,,,['num_0'],,,,,,0,9,9,9,,,,,,,,,['num_0'],10,0.0583323316241,1,['num_0'],0,[0.5859091634483775],,2018_Apr_04_1439,60.0521560914,sequenceLearningTask,001,061,
min1.png,min2.png,min3.png,min4.png,allBlank.png,,,,['num_0'],,,,,,0,9,9,9,,,,,,,,,['num_0'],10,0.0534014578006,0,"['num_1', 'num_0']",0,"[0.8739113328920212, 1.3083947931881994]",,2018_Apr_04_1439,60.0521560914,sequenceLearningTask,001,061,
min1.png,min2.png,min3.png,min4.png,allBlank.png,,,,['num_4'],,,,,,0,9,9,9,,,,,,,,,['num_4'],10,0.0662010528031,0,"['num_7', 'num_4', 'num_4']",0,"[1.060759409549064, 1.7769160110474331]",,2018_Apr_04_1439,60.0521560914,sequenceLearningTask,001,061,
min1.png,min2.png,min3.png,min4.png,allBlank.png,,,,['num_1'],,,,,,0,9,9,9,,,,,,,,,['num_1'],10,0.0545066890336,1,['num_1'],0,[0.6737803789874306],,2018_Apr_04_1439,60.0521560914,sequenceLearningTask,001,061,
min1.png,min2.png,min3.png,min4.png,allBlank.png,,,,['num_0'],,,,,,0,9,9,9,,,,,,,,,['num_0'],10,0.0532270987605,1,['num_0'],0,[0.5571038182970369],,2018_Apr_04_1439,60.0521560914,sequenceLearningTask,001,061,
min1.png,min2.png,min3.png,min4.png,images/allBlank.png,images/min3.png,'num_1',"['num_7', 'num_4', 'num_1', 'num_0']",['num_1'],num_1,,,,,0,9,9,9,0,0,0,2,,,,,['num_1'],,0.0613169482385,1,['num_1'],0,[0.9501013128610794],1,2018_Apr_04_1439,60.0521560914,sequenceLearningTask,001,061,
min1.png,min2.png,min3.png,min4.png,images/allBlank.png,images/min2.png,'num_4',"['num_7', 'num_4', 'num_1', 'num_0']",['num_4'],num_4,,,,,0,9,9,9,0,1,1,1,,,,,['num_4'],,0.057473254361,1,['num_4'],0,[0.5343924243643414],1,2018_Apr_04_1439,60.0521560914,sequenceLearningTask,001,061,
min1.png,min2.png,min3.png,min4.png,images/allBlank.png,images/min1.png,'num_7',"['num_7', 'num_4', 'num_1', 'num_0']",['num_7'],num_7,,,,,0,9,9,9,0,2,2,0,,,,,['num_7'],,0.0500328410417,1,['num_7'],0,[0.7601594913576264],1,2018_Apr_04_1439,60.0521560914,sequenceLearningTask,001,061,
min1.png,min2.png,min3.png,min4.png,images/allBlank.png,images/min4.png,'num_0',"['num_7', 'num_4', 'num_1', 'num_0']",['num_0'],num_0,,,,,0,9,9,9,0,3,3,3,,,,,['num_0'],,0.0517961238074,1,['num_0'],0,[0.3587217881868128],1,2018_Apr_04_1439,60.0521560914,sequenceLearningTask,001,061,
min1.png,min2.png,min3.png,min4.png,images/allBlank.png,images/min2.png,'num_4',"['num_7', 'num_4', 'num_1', 'num_0']",['num_4'],num_4,,,,,0,9,9,9,1,0,4,1,,,,,['num_4'],,0.0566461770795,1,['num_4'],0,[0.6687194538390031],1,2018_Apr_04_1439,60.0521560914,sequenceLearningTask,001,061,
min1.png,min2.png,min3.png,min4.png,images/allBlank.png,images/min3.png,'num_1',"['num_7', 'num_4', 'num_1', 'num_0']",['num_1'],num_1,,,,,0,9,9,9,1,1,5,2,,,,,['num_1'],,0.0560833050549,1,['num_1'],0,[0.5864318303356413],1,2018_Apr_04_1439,60.0521560914,sequenceLearningTask,001,061,
min1.png,min2.png,min3.png,min4.png,images/allBlank.png,images/min4.png,'num_0',"['num_7', 'num_4', 'num_1', 'num_0']",['num_0'],num_0,,,,,0,9,9,9,1,2,6,3,,,,,['num_0'],,0.0525756113202,1,['num_0'],0,[0.4565487001236761],1,2018_Apr_04_1439,60.0521560914,sequenceLearningTask,001,061,
min1.png,min2.png,min3.png,min4.png,images/allBlank.png,images/min1.png,'num_7',"['num_7', 'num_4', 'num_1', 'num_0']",['num_7'],num_7,,,,,0,9,9,9,1,3,7,0,,,,,['num_7'],,0.0531175602518,1,['num_7'],0,[0.42238950660976116],1,2018_Apr_04_1439,60.0521560914,sequenceLearningTask,001,061,
min1.png,min2.png,min3.png,min4.png,images/allBlank.png,images/min1.png,'num_7',"['num_7', 'num_4', 'num_1', 'num_0']",['num_7'],num_7,,,,,0,9,9,9,2,0,8,0,,,,,['num_7'],,0.0549612533068,1,['num_7'],0,[0.6548298071138561],1,2018_Apr_04_1439,60.0521560914,sequenceLearningTask,001,061,
min1.png,min2.png,min3.png,min4.png,images/allBlank.png,images/min2.png,'num_4',"['num_7', 'num_4', 'num_1', 'num_0']",['num_4'],num_4,,,,,0,9,9,9,2,1,9,1,,,,,['num_4'],,0.0601128451672,1,['num_4'],0,[0.7977078144467669],1,2018_Apr_04_1439,60.0521560914,sequenceLearningTask,001,061,
min1.png,min2.png,min3.png,min4.png,images/allBlank.png,images/min3.png,'num_1',"['num_7', 'num_4', 'num_1', 'num_0']",['num_1'],num_1,,,,,0,9,9,9,2,2,10,2,,,,,['num_1'],,0.0548615609732,1,['num_1'],0,[0.4199173004744807],1,2018_Apr_04_1439,60.0521560914,sequenceLearningTask,001,061,
min1.png,min2.png,min3.png,min4.png,images/allBlank.png,images/min4.png,'num_0',"['num_7', 'num_4', 'num_1', 'num_0']",['num_0'],num_0,,,,,0,9,9,9,2,3,11,3,,,,,['num_0'],,0.057073664444,1,['num_0'],0,[0.38472918346815277],1,2018_Apr_04_1439,60.0521560914,sequenceLearningTask,001,061,
min1.png,min2.png,min3.png,min4.png,images/allBlank.png,images/min3.png,'num_1',"['num_7', 'num_4', 'num_1', 'num_0']",['num_1'],num_1,,,,,0,9,9,9,3,0,12,2,,,,,['num_1'],,0.0543536633195,0,"['num_4', 'num_1']",0,"[0.7371506613853853, 1.3027217652124818]",0,2018_Apr_04_1439,60.0521560914,sequenceLearningTask,001,061,
min1.png,min2.png,min3.png,min4.png,images/allBlank.png,images/min4.png,'num_0',"['num_7', 'num_4', 'num_1', 'num_0']",['num_0'],num_0,,,,,0,9,9,9,3,1,13,3,,,,,['num_0'],,0.0491745842737,1,['num_0'],0,[0.9774182471446693],1,2018_Apr_04_1439,60.0521560914,sequenceLearningTask,001,061,
min1.png,min2.png,min3.png,min4.png,images/allBlank.png,images/min2.png,'num_4',"['num_7', 'num_4', 'num_1', 'num_0']",['num_4'],num_4,,,,,0,9,9,9,3,2,14,1,,,,,['num_4'],,0.0580623827991,1,['num_4'],0,[0.9850461477035424],1,2018_Apr_04_1439,60.0521560914,sequenceLearningTask,001,061,
min1.png,min2.png,min3.png,min4.png,images/allBlank.png,images/min1.png,'num_7',"['num_7', 'num_4', 'num_1', 'num_0']",['num_7'],num_7,,,,,0,9,9,9,3,3,15,0,,,,,['num_7'],,0.0537259707635,1,['num_7'],0,[0.7049151609971887],1,2018_Apr_04_1439,60.0521560914,sequenceLearningTask,001,061,
min1.png,min2.png,min3.png,min4.png,images/allBlank.png,images/min3.png,'num_1',"['num_7', 'num_4', 'num_1', 'num_0']",['num_1'],num_1,,,,,0,9,9,9,4,0,16,2,,,,,['num_1'],,0.0604984863603,1,['num_1'],0,[0.8307666998007335],1,2018_Apr_04_1439,60.0521560914,sequenceLearningTask,001,061,
min1.png,min2.png,min3.png,min4.png,images/allBlank.png,images/min2.png,'num_4',"['num_7', 'num_4', 'num_1', 'num_0']",['num_4'],num_4,,,,,0,9,9,9,4,1,17,1,,,,,['num_4'],,0.051521662157,1,['num_4'],0,[0.6910800783807645],1,2018_Apr_04_1439,60.0521560914,sequenceLearningTask,001,061,
min1.png,min2.png,min3.png,min4.png,images/allBlank.png,images/min1.png,'num_7',"['num_7', 'num_4', 'num_1', 'num_0']",['num_7'],num_7,,,,,0,9,9,9,4,2,18,0,,,,,['num_7'],,0.0540673042269,1,['num_7'],0,[0.7888704774959479],1,2018_Apr_04_1439,60.0521560914,sequenceLearningTask,001,061,
min1.png,min2.png,min3.png,min4.png,images/allBlank.png,images/min4.png,'num_0',"['num_7', 'num_4', 'num_1', 'num_0']",['num_0'],num_0,,,,,0,9,9,9,4,3,19,3,,,,,['num_0'],,0.0560750999284,1,['num_0'],0,[0.38662662015121896],1,2018_Apr_04_1439,60.0521560914,sequenceLearningTask,001,061,
min1.png,min2.png,min3.png,min4.png,images/allBlank.png,images/min1.png,'num_7',"['num_7', 'num_4', 'num_1', 'num_0']",['num_7'],num_7,,,,,0,9,9,9,5,0,20,0,,,,,['num_7'],,0.0604431017127,1,['num_7'],0,[0.7149488061404554],1,2018_Apr_04_1439,60.0521560914,sequenceLearningTask,001,061,
min1.png,min2.png,min3.png,min4.png,images/allBlank.png,images/min2.png,'num_4',"['num_7', 'num_4', 'num_1', 'num_0']",['num_4'],num_4,,,,,0,9,9,9,5,1,21,1,,,,,['num_4'],,0.053311611613,0,"['num_1', 'num_4']",0,"[0.8056253561662743, 1.0561468948435504]",0,2018_Apr_04_1439,60.0521560914,sequenceLearningTask,001,061,
min1.png,min2.png,min3.png,min4.png,images/allBlank.png,images/min3.png,'num_1',"['num_7', 'num_4', 'num_1', 'num_0']",['num_1'],num_1,,,,,0,9,9,9,5,2,22,2,,,,,['num_1'],,0.0507089438761,0,"['num_4', 'num_1']",0,"[0.8082226905535208, 0.8252922360115917]",0,2018_Apr_04_1439,60.0521560914,sequenceLearningTask,001,061,
min1.png,min2.png,min3.png,min4.png,images/allBlank.png,images/min4.png,'num_0',"['num_7', 'num_4', 'num_1', 'num_0']",['num_0'],num_0,,,,,0,9,9,9,5,3,23,3,,,,,['num_0'],,0.059939716899,1,['num_0'],0,[0.5485914045420941],1,2018_Apr_04_1439,60.0521560914,sequenceLearningTask,001,061,
min1.png,min2.png,min3.png,min4.png,images/allBlank.png,images/min3.png,'num_1',"['num_7', 'num_4', 'num_1', 'num_0']",['num_1'],num_1,,,,,0,9,9,9,6,0,24,2,,,,,['num_1'],,0.0512402261375,1,['num_1'],0,[1.1581543212960241],1,2018_Apr_04_1439,60.0521560914,sequenceLearningTask,001,061,
min1.png,min2.png,min3.png,min4.png,images/allBlank.png,images/min2.png,'num_4',"['num_7', 'num_4', 'num_1', 'num_0']",['num_4'],num_4,,,,,0,9,9,9,6,1,25,1,,,,,['num_4'],,0.0586744856118,0,"['num_4', 'num_4']",0,"[0.00021251289581414312, 1.1503549334738636]",0,2018_Apr_04_1439,60.0521560914,sequenceLearningTask,001,061,
min1.png,min2.png,min3.png,min4.png,images/allBlank.png,images/min1.png,'num_7',"['num_7', 'num_4', 'num_1', 'num_0']",['num_7'],num_7,,,,,0,9,9,9,6,2,26,0,,,,,['num_7'],,0.0569764336251,1,['num_7'],0,[0.4842795832955744],1,2018_Apr_04_1439,60.0521560914,sequenceLearningTask,001,061,
min1.png,min2.png,min3.png,min4.png,images/allBlank.png,images/min4.png,'num_0',"['num_7', 'num_4', 'num_1', 'num_0']",['num_0'],num_0,,,,,0,9,9,9,6,3,27,3,,,,,['num_0'],,0.053922893916,1,['num_0'],0,[0.9047117557784077],1,2018_Apr_04_1439,60.0521560914,sequenceLearningTask,001,061,
min1.png,min2.png,min3.png,min4.png,images/allBlank.png,images/min2.png,'num_4',"['num_7', 'num_4', 'num_1', 'num_0']",['num_4'],num_4,,,,,0,9,9,9,7,0,28,1,,,,,['num_4'],,0.0539495605917,1,['num_4'],0,[1.0394112982176011],1,2018_Apr_04_1439,60.0521560914,sequenceLearningTask,001,061,
min1.png,min2.png,min3.png,min4.png,images/allBlank.png,images/min4.png,'num_0',"['num_7', 'num_4', 'num_1', 'num_0']",['num_0'],num_0,,,,,0,9,9,9,7,1,29,3,,,,,['num_0'],,0.0511298671336,1,['num_0'],0,[1.0574424850929063],1,2018_Apr_04_1439,60.0521560914,sequenceLearningTask,001,061,
min1.png,min2.png,min3.png,min4.png,images/allBlank.png,images/min3.png,'num_1',"['num_7', 'num_4', 'num_1', 'num_0']",['num_1'],num_1,,,,,0,9,9,9,7,2,30,2,,,,,['num_1'],,0.0564517154708,1,['num_1'],0,[0.6353557478287257],1,2018_Apr_04_1439,60.0521560914,sequenceLearningTask,001,061,
min1.png,min2.png,min3.png,min4.png,images/allBlank.png,images/min1.png,'num_7',"['num_7', 'num_4', 'num_1', 'num_0']",['num_7'],num_7,,,,,0,9,9,9,7,3,31,0,,,,,['num_7'],,0.0611458712374,1,['num_7'],0,[0.8473902963596629],1,2018_Apr_04_1439,60.0521560914,sequenceLearningTask,001,061,
min1.png,min2.png,min3.png,min4.png,images/allBlank.png,images/min1.png,'num_7',"['num_7', 'num_4', 'num_1', 'num_0']",['num_7'],num_7,,,,,0,9,9,9,8,0,32,0,,,,,['num_7'],,0.0506030976831,1,['num_7'],0,[0.6754333027492976],1,2018_Apr_04_1439,60.0521560914,sequenceLearningTask,001,061,
min1.png,min2.png,min3.png,min4.png,images/allBlank.png,images/min2.png,'num_4',"['num_7', 'num_4', 'num_1', 'num_0']",['num_4'],num_4,,,,,0,9,9,9,8,1,33,1,,,,,['num_4'],,0.0531774577103,1,['num_4'],0,[0.8718990243651206],1,2018_Apr_04_1439,60.0521560914,sequenceLearningTask,001,061,
min1.png,min2.png,min3.png,min4.png,images/allBlank.png,images/min4.png,'num_0',"['num_7', 'num_4', 'num_1', 'num_0']",['num_0'],num_0,,,,,0,9,9,9,8,2,34,3,,,,,['num_0'],,0.0512849441293,1,['num_0'],0,[0.8914961606060388],1,2018_Apr_04_1439,60.0521560914,sequenceLearningTask,001,061,
min1.png,min2.png,min3.png,min4.png,images/allBlank.png,images/min3.png,'num_1',"['num_7', 'num_4', 'num_1', 'num_0']",['num_1'],num_1,,,,,0,9,9,9,8,3,35,2,,,,,['num_1'],,0.0592385883938,1,['num_1'],0,[0.6673057096631965],1,2018_Apr_04_1439,60.0521560914,sequenceLearningTask,001,061,
min1.png,min2.png,min3.png,min4.png,images/allBlank.png,images/min3.png,'num_1',"['num_7', 'num_4', 'num_1', 'num_0']",['num_1'],num_1,,,,,0,9,9,9,9,0,36,2,,,,,['num_1'],,0.0587852548779,0,"['num_4', 'num_1']",0,"[0.8661406630271813, 0.9323277671064716]",0,2018_Apr_04_1439,60.0521560914,sequenceLearningTask,001,061,
min1.png,min2.png,min3.png,min4.png,images/allBlank.png,images/min1.png,'num_7',"['num_7', 'num_4', 'num_1', 'num_0']",['num_7'],num_7,,,,,0,9,9,9,9,1,37,0,,,,,['num_7'],,0.0468779679504,1,['num_7'],0,[0.8473898861120688],1,2018_Apr_04_1439,60.0521560914,sequenceLearningTask,001,061,
min1.png,min2.png,min3.png,min4.png,images/allBlank.png,images/min2.png,'num_4',"['num_7', 'num_4', 'num_1', 'num_0']",['num_4'],num_4,,,,,0,9,9,9,9,2,38,1,,,,,['num_4'],,0.0502482257434,1,['num_4'],0,[0.7419773300352972],1,2018_Apr_04_1439,60.0521560914,sequenceLearningTask,001,061,
min1.png,min2.png,min3.png,min4.png,images/allBlank.png,images/min4.png,'num_0',"['num_7', 'num_4', 'num_1', 'num_0']",['num_0'],num_0,,,,,0,9,9,9,9,3,39,3,,,,,['num_0'],,0.041262786166,1,['num_0'],0,[0.8176733610889642],1,2018_Apr_04_1439,60.0521560914,sequenceLearningTask,001,061,
min1.png,min2.png,min3.png,min4.png,images/allBlank.png,images/min3.png,'num_1',"['num_7', 'num_4', 'num_1', 'num_0']",['num_1'],num_1,,,,,0,9,9,9,10,0,40,2,,,,,['num_1'],,0.052278995805,1,['num_1'],0,[0.4240383278229274],1,2018_Apr_04_1439,60.0521560914,sequenceLearningTask,001,061,
min1.png,min2.png,min3.png,min4.png,images/allBlank.png,images/min2.png,'num_4',"['num_7', 'num_4', 'num_1', 'num_0']",['num_4'],num_4,,,,,0,9,9,9,10,1,41,1,,,,,['num_4'],,0.0549669969041,1,['num_4'],0,[1.2386314825125737],1,2018_Apr_04_1439,60.0521560914,sequenceLearningTask,001,061,
min1.png,min2.png,min3.png,min4.png,images/allBlank.png,images/min4.png,'num_0',"['num_7', 'num_4', 'num_1', 'num_0']",['num_0'],num_0,,,,,0,9,9,9,10,2,42,3,,,,,['num_0'],,0.0553280226886,1,['num_0'],0,[0.7523490266175941],1,2018_Apr_04_1439,60.0521560914,sequenceLearningTask,001,061,
min1.png,min2.png,min3.png,min4.png,images/allBlank.png,images/min1.png,'num_7',"['num_7', 'num_4', 'num_1', 'num_0']",['num_7'],num_7,,,,,0,9,9,9,10,3,43,0,,,,,['num_7'],,0.0569456643861,1,['num_7'],0,[0.9182346331217559],1,2018_Apr_04_1439,60.0521560914,sequenceLearningTask,001,061,
min1.png,min2.png,min3.png,min4.png,images/allBlank.png,images/min4.png,'num_0',"['num_7', 'num_4', 'num_1', 'num_0']",['num_0'],num_0,,,,,0,9,9,9,11,0,44,3,,,,,['num_0'],,0.0512074056169,1,['num_0'],0,[0.8255109027813887],1,2018_Apr_04_1439,60.0521560914,sequenceLearningTask,001,061,
min1.png,min2.png,min3.png,min4.png,images/allBlank.png,images/min2.png,'num_4',"['num_7', 'num_4', 'num_1', 'num_0']",['num_4'],num_4,,,,,0,9,9,9,11,1,45,1,,,,,['num_4'],,0.054623612159,1,['num_4'],0,[0.8374099845823366],1,2018_Apr_04_1439,60.0521560914,sequenceLearningTask,001,061,
min1.png,min2.png,min3.png,min4.png,images/allBlank.png,images/min1.png,'num_7',"['num_7', 'num_4', 'num_1', 'num_0']",['num_7'],num_7,,,,,0,9,9,9,11,2,46,0,,,,,['num_7'],,0.0440394026955,1,['num_7'],0,[0.7007141336216591],1,2018_Apr_04_1439,60.0521560914,sequenceLearningTask,001,061,
min1.png,min2.png,min3.png,min4.png,images/allBlank.png,images/min3.png,'num_1',"['num_7', 'num_4', 'num_1', 'num_0']",['num_1'],num_1,,,,,0,9,9,9,11,3,47,2,,,,,['num_1'],,0.0547228942451,1,['num_1'],0,[0.7203215262852609],1,2018_Apr_04_1439,60.0521560914,sequenceLearningTask,001,061,
min1.png,min2.png,min3.png,min4.png,images/allBlank.png,images/min2.png,'num_4',"['num_7', 'num_4', 'num_1', 'num_0']",['num_4'],num_4,,,,,0,9,9,9,12,0,48,1,,,,,['num_4'],,0.0497136614285,1,['num_4'],0,[0.8098752040532418],1,2018_Apr_04_1439,60.0521560914,sequenceLearningTask,001,061,
min1.png,min2.png,min3.png,min4.png,images/allBlank.png,images/min3.png,'num_1',"['num_7', 'num_4', 'num_1', 'num_0']",['num_1'],num_1,,,,,0,9,9,9,12,1,49,2,,,,,['num_1'],,0.0548361250694,1,['num_1'],0,[0.4699579363950761],1,2018_Apr_04_1439,60.0521560914,sequenceLearningTask,001,061,
min1.png,min2.png,min3.png,min4.png,images/allBlank.png,images/min4.png,'num_0',"['num_7', 'num_4', 'num_1', 'num_0']",['num_0'],num_0,,,,,0,9,9,9,12,2,50,3,,,,,['num_0'],,0.0588812549249,1,['num_0'],0,[0.9155970935680671],1,2018_Apr_04_1439,60.0521560914,sequenceLearningTask,001,061,
min1.png,min2.png,min3.png,min4.png,images/allBlank.png,images/min1.png,'num_7',"['num_7', 'num_4', 'num_1', 'num_0']",['num_7'],num_7,,,,,0,9,9,9,12,3,51,0,,,,,['num_7'],,0.0536238168715,1,['num_7'],0,[0.6236047686543316],1,2018_Apr_04_1439,60.0521560914,sequenceLearningTask,001,061,
min1.png,min2.png,min3.png,min4.png,images/allBlank.png,images/min1.png,'num_7',"['num_7', 'num_4', 'num_1', 'num_0']",['num_7'],num_7,,,,,0,9,9,9,13,0,52,0,,,,,['num_7'],,0.0495044305717,1,['num_7'],0,[0.6592724756046664],1,2018_Apr_04_1439,60.0521560914,sequenceLearningTask,001,061,
min1.png,min2.png,min3.png,min4.png,images/allBlank.png,images/min4.png,'num_0',"['num_7', 'num_4', 'num_1', 'num_0']",['num_0'],num_0,,,,,0,9,9,9,13,1,53,3,,,,,['num_0'],,0.0531922269438,1,['num_0'],0,[0.7902600165252807],1,2018_Apr_04_1439,60.0521560914,sequenceLearningTask,001,061,
min1.png,min2.png,min3.png,min4.png,images/allBlank.png,images/min3.png,'num_1',"['num_7', 'num_4', 'num_1', 'num_0']",['num_1'],num_1,,,,,0,9,9,9,13,2,54,2,,,,,['num_1'],,0.0548221763311,1,['num_1'],0,[0.7033857244678074],1,2018_Apr_04_1439,60.0521560914,sequenceLearningTask,001,061,
min1.png,min2.png,min3.png,min4.png,images/allBlank.png,images/min2.png,'num_4',"['num_7', 'num_4', 'num_1', 'num_0']",['num_4'],num_4,,,,,0,9,9,9,13,3,55,1,,,,,['num_4'],,0.0512865851342,1,['num_4'],0,[0.6421602634509327],1,2018_Apr_04_1439,60.0521560914,sequenceLearningTask,001,061,
min1.png,min2.png,min3.png,min4.png,images/allBlank.png,images/min3.png,'num_1',"['num_7', 'num_4', 'num_1', 'num_0']",['num_1'],num_1,,,,,0,9,9,9,14,0,56,2,,,,,['num_1'],,0.0562511000026,1,['num_1'],0,[0.6872720768296858],1,2018_Apr_04_1439,60.0521560914,sequenceLearningTask,001,061,
min1.png,min2.png,min3.png,min4.png,images/allBlank.png,images/min2.png,'num_4',"['num_7', 'num_4', 'num_1', 'num_0']",['num_4'],num_4,,,,,0,9,9,9,14,1,57,1,,,,,['num_4'],,0.0579089468374,1,['num_4'],0,[0.6001298872288316],1,2018_Apr_04_1439,60.0521560914,sequenceLearningTask,001,061,
min1.png,min2.png,min3.png,min4.png,images/allBlank.png,images/min4.png,'num_0',"['num_7', 'num_4', 'num_1', 'num_0']",['num_0'],num_0,,,,,0,9,9,9,14,2,58,3,,,,,['num_0'],,0.0582970495452,1,['num_0'],0,[0.5346225782996044],1,2018_Apr_04_1439,60.0521560914,sequenceLearningTask,001,061,
min1.png,min2.png,min3.png,min4.png,images/allBlank.png,images/min1.png,'num_7',"['num_7', 'num_4', 'num_1', 'num_0']",['num_7'],num_7,,,,,0,9,9,9,14,3,59,0,,,,,['num_7'],,0.050377046311,1,['num_7'],0,[0.4079866289248457],1,2018_Apr_04_1439,60.0521560914,sequenceLearningTask,001,061,
min1.png,min2.png,min3.png,min4.png,images/allBlank.png,images/min2.png,'num_4',"['num_7', 'num_4', 'num_1', 'num_0']",['num_4'],num_4,,,,,0,9,9,9,15,0,60,1,,,,,['num_4'],,0.0590305883088,1,['num_4'],0,[1.0335721163428389],1,2018_Apr_04_1439,60.0521560914,sequenceLearningTask,001,061,
min1.png,min2.png,min3.png,min4.png,images/allBlank.png,images/min1.png,'num_7',"['num_7', 'num_4', 'num_1', 'num_0']",['num_7'],num_7,,,,,0,9,9,9,15,1,61,0,,,,,['num_7'],,0.0220709834102,1,['num_7'],0,[0.7881820669426816],1,2018_Apr_04_1439,60.0521560914,sequenceLearningTask,001,061,
min1.png,min2.png,min3.png,min4.png,images/allBlank.png,images/min4.png,'num_0',"['num_7', 'num_4', 'num_1', 'num_0']",['num_0'],num_0,,,,,0,9,9,9,15,2,62,3,,,,,['num_0'],,0.064700334231,1,['num_0'],0,[0.8596873270435026],1,2018_Apr_04_1439,60.0521560914,sequenceLearningTask,001,061,
min1.png,min2.png,min3.png,min4.png,images/allBlank.png,images/min3.png,'num_1',"['num_7', 'num_4', 'num_1', 'num_0']",['num_1'],num_1,,,,,0,9,9,9,15,3,63,2,,,,,['num_1'],,0.0549259712425,1,['num_1'],0,[0.7059178280760534],1,2018_Apr_04_1439,60.0521560914,sequenceLearningTask,001,061,
min1.png,min2.png,min3.png,min4.png,images/allBlank.png,images/min4.png,'num_0',"['num_7', 'num_4', 'num_1', 'num_0']",['num_0'],num_0,,,,,0,9,9,9,16,0,64,3,,,,,['num_0'],,0.0577460749628,1,['num_0'],0,[0.8173816686612554],1,2018_Apr_04_1439,60.0521560914,sequenceLearningTask,001,061,
min1.png,min2.png,min3.png,min4.png,images/allBlank.png,images/min1.png,'num_7',"['num_7', 'num_4', 'num_1', 'num_0']",['num_7'],num_7,,,,,0,9,9,9,16,1,65,0,,,,,['num_7'],,0.059486383383,1,['num_7'],0,[0.8648352266027359],1,2018_Apr_04_1439,60.0521560914,sequenceLearningTask,001,061,
min1.png,min2.png,min3.png,min4.png,images/allBlank.png,images/min3.png,'num_1',"['num_7', 'num_4', 'num_1', 'num_0']",['num_1'],num_1,,,,,0,9,9,9,16,2,66,2,,,,,['num_1'],,0.0486449430318,0,"['num_4', 'num_1']",0,"[0.7435514845274156, 1.145822418795433]",0,2018_Apr_04_1439,60.0521560914,sequenceLearningTask,001,061,
min1.png,min2.png,min3.png,min4.png,images/allBlank.png,images/min2.png,'num_4',"['num_7', 'num_4', 'num_1', 'num_0']",['num_4'],num_4,,,,,0,9,9,9,16,3,67,1,,,,,['num_4'],,0.0540738683339,1,['num_4'],0,[0.7050406995113008],1,2018_Apr_04_1439,60.0521560914,sequenceLearningTask,001,061,
min1.png,min2.png,min3.png,min4.png,images/allBlank.png,images/min4.png,'num_0',"['num_7', 'num_4', 'num_1', 'num_0']",['num_0'],num_0,,,,,0,9,9,9,17,0,68,3,,,,,['num_0'],,0.0605522299593,1,['num_0'],0,[0.5972182963014347],1,2018_Apr_04_1439,60.0521560914,sequenceLearningTask,001,061,
min1.png,min2.png,min3.png,min4.png,images/allBlank.png,images/min1.png,'num_7',"['num_7', 'num_4', 'num_1', 'num_0']",['num_7'],num_7,,,,,0,9,9,9,17,1,69,0,,,,,['num_7'],,0.0544152018119,1,['num_7'],0,[0.8036516117572319],1,2018_Apr_04_1439,60.0521560914,sequenceLearningTask,001,061,
min1.png,min2.png,min3.png,min4.png,images/allBlank.png,images/min3.png,'num_1',"['num_7', 'num_4', 'num_1', 'num_0']",['num_1'],num_1,,,,,0,9,9,9,17,2,70,2,,,,,['num_1'],,0.0595548962301,1,['num_1'],0,[0.6484909327264177],1,2018_Apr_04_1439,60.0521560914,sequenceLearningTask,001,061,
min1.png,min2.png,min3.png,min4.png,images/allBlank.png,images/min2.png,'num_4',"['num_7', 'num_4', 'num_1', 'num_0']",['num_4'],num_4,,,,,0,9,9,9,17,3,71,1,,,,,['num_4'],,0.0486535584205,1,['num_4'],0,[0.543732325633755],1,2018_Apr_04_1439,60.0521560914,sequenceLearningTask,001,061,
min1.png,min2.png,min3.png,min4.png,images/allBlank.png,images/min4.png,'num_0',"['num_7', 'num_4', 'num_1', 'num_0']",['num_0'],num_0,,,,,0,9,9,9,18,0,72,3,,,,,['num_0'],,0.0513292518299,1,['num_0'],0,[0.6251013846631395],1,2018_Apr_04_1439,60.0521560914,sequenceLearningTask,001,061,
min1.png,min2.png,min3.png,min4.png,images/allBlank.png,images/min1.png,'num_7',"['num_7', 'num_4', 'num_1', 'num_0']",['num_7'],num_7,,,,,0,9,9,9,18,1,73,0,,,,,['num_7'],,0.0590178703715,1,['num_7'],0,[0.8161513091909001],1,2018_Apr_04_1439,60.0521560914,sequenceLearningTask,001,061,
min1.png,min2.png,min3.png,min4.png,images/allBlank.png,images/min2.png,'num_4',"['num_7', 'num_4', 'num_1', 'num_0']",['num_4'],num_4,,,,,0,9,9,9,18,2,74,1,,,,,['num_4'],,0.057401869708,1,['num_4'],0,[0.6847539219452301],1,2018_Apr_04_1439,60.0521560914,sequenceLearningTask,001,061,
min1.png,min2.png,min3.png,min4.png,images/allBlank.png,images/min3.png,'num_1',"['num_7', 'num_4', 'num_1', 'num_0']",['num_1'],num_1,,,,,0,9,9,9,18,3,75,2,,,,,['num_1'],,0.0491269945051,1,['num_1'],0,[0.4938898436521413],1,2018_Apr_04_1439,60.0521560914,sequenceLearningTask,001,061,
min1.png,min2.png,min3.png,min4.png,images/allBlank.png,images/min4.png,'num_0',"['num_7', 'num_4', 'num_1', 'num_0']",['num_0'],num_0,,,,,0,9,9,9,19,0,76,3,,,,,['num_0'],,0.048969045718,0,"['num_4', 'num_0']",0,"[0.00021128213847987354, 0.46066808643809054]",0,2018_Apr_04_1439,60.0521560914,sequenceLearningTask,001,061,
min1.png,min2.png,min3.png,min4.png,images/allBlank.png,images/min1.png,'num_7',"['num_7', 'num_4', 'num_1', 'num_0']",['num_7'],num_7,,,,,0,9,9,9,19,1,77,0,,,,,['num_7'],,0.0515754057706,1,['num_7'],0,[0.7918436069157906],1,2018_Apr_04_1439,60.0521560914,sequenceLearningTask,001,061,
min1.png,min2.png,min3.png,min4.png,images/allBlank.png,images/min3.png,'num_1',"['num_7', 'num_4', 'num_1', 'num_0']",['num_1'],num_1,,,,,0,9,9,9,19,2,78,2,,,,,['num_1'],,0.0518777648686,1,['num_1'],0,[0.8071523311373312],1,2018_Apr_04_1439,60.0521560914,sequenceLearningTask,001,061,
min1.png,min2.png,min3.png,min4.png,images/allBlank.png,images/min2.png,'num_4',"['num_7', 'num_4', 'num_1', 'num_0']",['num_4'],num_4,,,,,0,9,9,9,19,3,79,1,,,,,['num_4'],,0.0553107919259,1,['num_4'],0,[0.5358898608683376],1,2018_Apr_04_1439,60.0521560914,sequenceLearningTask,001,061,
min1.png,min2.png,min3.png,min4.png,allBlank.png,,,,['num_7'],,,,,,0,0,0,0,,,,,,,,,['num_7'],1,0.0591466909391,0,"['num_4', 'num_7']",0,"[0.8178046432003612, 1.4998660512210336]",,2018_Apr_04_1439,60.0521560914,sequenceLearningTask,001,061,
min1.png,min2.png,min3.png,min4.png,allBlank.png,,,,['num_1'],,,,,,0,0,0,0,,,,,,,,,['num_1'],1,0.0567967412499,1,['num_1'],0,[0.5873101896722801],,2018_Apr_04_1439,60.0521560914,sequenceLearningTask,001,061,
min1.png,min2.png,min3.png,min4.png,allBlank.png,,,,['num_4'],,,,,,0,0,0,0,,,,,,,,,['num_4'],1,0.0510609440244,1,['num_4'],0,[0.609736865531886],,2018_Apr_04_1439,60.0521560914,sequenceLearningTask,001,061,
min1.png,min2.png,min3.png,min4.png,allBlank.png,,,,['num_0'],,,,,,0,0,0,0,,,,,,,,,['num_0'],1,0.0556061766547,1,['num_0'],0,[0.3895086726115551],,2018_Apr_04_1439,60.0521560914,sequenceLearningTask,001,061,
min1.png,min2.png,min3.png,min4.png,allBlank.png,,,,['num_0'],,,,,,0,0,0,0,,,,,,,,,['num_0'],1,0.0501760205807,1,['num_0'],0,[0.5449044286797289],,2018_Apr_04_1439,60.0521560914,sequenceLearningTask,001,061,
min1.png,min2.png,min3.png,min4.png,allBlank.png,,,,['num_4'],,,,,,0,0,0,0,,,,,,,,,['num_4'],1,0.0540385862696,1,['num_4'],0,[0.8919556479813764],,2018_Apr_04_1439,60.0521560914,sequenceLearningTask,001,061,
min1.png,min2.png,min3.png,min4.png,allBlank.png,,,,['num_1'],,,,,,0,0,0,0,,,,,,,,,['num_1'],1,0.0535036116926,1,['num_1'],0,[0.6243584099865984],,2018_Apr_04_1439,60.0521560914,sequenceLearningTask,001,061,
min1.png,min2.png,min3.png,min4.png,allBlank.png,,,,['num_0'],,,,,,0,0,0,0,,,,,,,,,['num_0'],1,0.0607536659372,1,['num_0'],0,[0.5834189060115023],,2018_Apr_04_1439,60.0521560914,sequenceLearningTask,001,061,
min1.png,min2.png,min3.png,min4.png,allBlank.png,,,,['num_7'],,,,,,0,1,1,1,,,,,,,,,['num_7'],2,0.0533842270379,1,['num_7'],0,[0.5886529594572494],,2018_Apr_04_1439,60.0521560914,sequenceLearningTask,001,061,
min1.png,min2.png,min3.png,min4.png,allBlank.png,,,,['num_1'],,,,,,0,1,1,1,,,,,,,,,['num_1'],2,0.0505432002246,1,['num_1'],0,[0.5604671017354121],,2018_Apr_04_1439,60.0521560914,sequenceLearningTask,001,061,
min1.png,min2.png,min3.png,min4.png,allBlank.png,,,,['num_4'],,,,,,0,1,1,1,,,,,,,,,['num_4'],2,0.0597813578643,1,['num_4'],0,[0.7180314740689937],,2018_Apr_04_1439,60.0521560914,sequenceLearningTask,001,061,
min1.png,min2.png,min3.png,min4.png,allBlank.png,,,,['num_0'],,,,,,0,1,1,1,,,,,,,,,['num_0'],2,0.0562244333269,1,['num_0'],0,[0.4368116663827095],,2018_Apr_04_1439,60.0521560914,sequenceLearningTask,001,061,
min1.png,min2.png,min3.png,min4.png,allBlank.png,,,,['num_0'],,,,,,0,1,1,1,,,,,,,,,['num_0'],2,0.0219323166966,1,['num_0'],0,[0.6751654051913647],,2018_Apr_04_1439,60.0521560914,sequenceLearningTask,001,061,
min1.png,min2.png,min3.png,min4.png,allBlank.png,,,,['num_4'],,,,,,0,1,1,1,,,,,,,,,['num_4'],2,0.0602588965121,1,['num_4'],0,[0.8840848755207844],,2018_Apr_04_1439,60.0521560914,sequenceLearningTask,001,061,
min1.png,min2.png,min3.png,min4.png,allBlank.png,,,,['num_1'],,,,,,0,1,1,1,,,,,,,,,['num_1'],2,0.0547881250386,1,['num_1'],0,[0.7046899301349185],,2018_Apr_04_1439,60.0521560914,sequenceLearningTask,001,061,
min1.png,min2.png,min3.png,min4.png,allBlank.png,,,,['num_0'],,,,,,0,1,1,1,,,,,,,,,['num_0'],2,0.0584082290879,1,['num_0'],0,[0.6029315294144908],,2018_Apr_04_1439,60.0521560914,sequenceLearningTask,001,061,
min1.png,min2.png,min3.png,min4.png,allBlank.png,,,,['num_7'],,,,,,0,2,2,2,,,,,,,,,['num_7'],3,0.0556640228315,1,['num_7'],0,[0.9031105243630009],,2018_Apr_04_1439,60.0521560914,sequenceLearningTask,001,061,
min1.png,min2.png,min3.png,min4.png,allBlank.png,,,,['num_1'],,,,,,0,2,2,2,,,,,,,,,['num_1'],3,0.0553140739794,1,['num_1'],0,[0.8891560570918955],,2018_Apr_04_1439,60.0521560914,sequenceLearningTask,001,061,
min1.png,min2.png,min3.png,min4.png,allBlank.png,,,,['num_4'],,,,,,0,2,2,2,,,,,,,,,['num_4'],3,0.0549809456425,1,['num_4'],0,[0.5389901698363246],,2018_Apr_04_1439,60.0521560914,sequenceLearningTask,001,061,
min1.png,min2.png,min3.png,min4.png,allBlank.png,,,,['num_0'],,,,,,0,2,2,2,,,,,,,,,['num_0'],3,0.0538843297982,1,['num_0'],0,[0.6389610826445278],,2018_Apr_04_1439,60.0521560914,sequenceLearningTask,001,061,
min1.png,min2.png,min3.png,min4.png,allBlank.png,,,,['num_0'],,,,,,0,2,2,2,,,,,,,,,['num_0'],3,0.056114484556,1,['num_0'],0,[0.6711777112504933],,2018_Apr_04_1439,60.0521560914,sequenceLearningTask,001,061,
min1.png,min2.png,min3.png,min4.png,allBlank.png,,,,['num_4'],,,,,,0,2,2,2,,,,,,,,,['num_4'],3,0.0603885375895,0,"['num_7', 'num_7', 'num_4']",0,"[0.7327051211177604, 1.6329344135156134, 2.2661896476784023]",,2018_Apr_04_1439,60.0521560914,sequenceLearningTask,001,061,
min1.png,min2.png,min3.png,min4.png,allBlank.png,,,,['num_1'],,,,,,0,2,2,2,,,,,,,,,['num_1'],3,0.0619015638513,1,['num_1'],0,[0.6650923754204996],,2018_Apr_04_1439,60.0521560914,sequenceLearningTask,001,061,
min1.png,min2.png,min3.png,min4.png,allBlank.png,,,,['num_0'],,,,,,0,2,2,2,,,,,,,,,['num_0'],3,0.0573649466096,1,['num_0'],0,[0.48784020014863927],,2018_Apr_04_1439,60.0521560914,sequenceLearningTask,001,061,
min1.png,min2.png,min3.png,min4.png,allBlank.png,,,,['num_7'],,,,,,0,3,3,3,,,,,,,,,['num_7'],4,0.0580796135619,1,['num_7'],0,[0.6855904351104982],,2018_Apr_04_1439,60.0521560914,sequenceLearningTask,001,061,
min1.png,min2.png,min3.png,min4.png,allBlank.png,,,,['num_1'],,,,,,0,3,3,3,,,,,,,,,['num_1'],4,0.0518621751253,0,"['num_4', 'num_1']",0,"[1.693628592256573, 2.3769142059172736]",,2018_Apr_04_1439,60.0521560914,sequenceLearningTask,001,061,
min1.png,min2.png,min3.png,min4.png,allBlank.png,,,,['num_4'],,,,,,0,3,3,3,,,,,,,,,['num_4'],4,0.054345458193,1,['num_4'],0,[0.7396778419206385],,2018_Apr_04_1439,60.0521560914,sequenceLearningTask,001,061,
min1.png,min2.png,min3.png,min4.png,allBlank.png,,,,['num_0'],,,,,,0,3,3,3,,,,,,,,,['num_0'],4,0.0500426871877,1,['num_0'],0,[0.5112207225611201],,2018_Apr_04_1439,60.0521560914,sequenceLearningTask,001,061,
min1.png,min2.png,min3.png,min4.png,allBlank.png,,,,['num_0'],,,,,,0,3,3,3,,,,,,,,,['num_0'],4,0.0550166379544,1,['num_0'],0,[0.5744822869746713],,2018_Apr_04_1439,60.0521560914,sequenceLearningTask,001,061,
min1.png,min2.png,min3.png,min4.png,allBlank.png,,,,['num_4'],,,,,,0,3,3,3,,,,,,,,,['num_4'],4,0.0579561263439,1,['num_4'],0,[1.4196477619116195],,2018_Apr_04_1439,60.0521560914,sequenceLearningTask,001,061,
min1.png,min2.png,min3.png,min4.png,allBlank.png,,,,['num_1'],,,,,,0,3,3,3,,,,,,,,,['num_1'],4,0.0581415623019,1,['num_1'],0,[0.8357767531415448],,2018_Apr_04_1439,60.0521560914,sequenceLearningTask,001,061,
min1.png,min2.png,min3.png,min4.png,allBlank.png,,,,['num_0'],,,,,,0,3,3,3,,,,,,,,,['num_0'],4,0.0503241232072,1,['num_0'],0,[0.5608872044685995],,2018_Apr_04_1439,60.0521560914,sequenceLearningTask,001,061,
min1.png,min2.png,min3.png,min4.png,allBlank.png,,,,['num_7'],,,,,,0,4,4,4,,,,,,,,,['num_7'],5,0.0572365362896,1,['num_7'],0,[0.7849631938443054],,2018_Apr_04_1439,60.0521560914,sequenceLearningTask,001,061,
min1.png,min2.png,min3.png,min4.png,allBlank.png,,,,['num_1'],,,,,,0,4,4,4,,,,,,,,,['num_1'],5,0.0554145868373,1,['num_1'],0,[0.5229528299387312],,2018_Apr_04_1439,60.0521560914,sequenceLearningTask,001,061,
min1.png,min2.png,min3.png,min4.png,allBlank.png,,,,['num_4'],,,,,,0,4,4,4,,,,,,,,,['num_4'],5,0.0573071004328,1,['num_4'],0,[0.7202928083133884],,2018_Apr_04_1439,60.0521560914,sequenceLearningTask,001,061,
min1.png,min2.png,min3.png,min4.png,allBlank.png,,,,['num_0'],,,,,,0,4,4,4,,,,,,,,,['num_0'],5,0.059191819164,1,['num_0'],0,[0.4030524730478646],,2018_Apr_04_1439,60.0521560914,sequenceLearningTask,001,061,
min1.png,min2.png,min3.png,min4.png,allBlank.png,,,,['num_0'],,,,,,0,4,4,4,,,,,,,,,['num_0'],5,0.057387510722,1,['num_0'],0,[0.587727420614101],,2018_Apr_04_1439,60.0521560914,sequenceLearningTask,001,061,
min1.png,min2.png,min3.png,min4.png,allBlank.png,,,,['num_4'],,,,,,0,4,4,4,,,,,,,,,['num_4'],5,0.0521961239865,1,['num_4'],0,[0.942795873968862],,2018_Apr_04_1439,60.0521560914,sequenceLearningTask,001,061,
min1.png,min2.png,min3.png,min4.png,allBlank.png,,,,['num_1'],,,,,,0,4,4,4,,,,,,,,,['num_1'],5,0.0517325340334,1,['num_1'],0,[0.6272215906647034],,2018_Apr_04_1439,60.0521560914,sequenceLearningTask,001,061,
min1.png,min2.png,min3.png,min4.png,allBlank.png,,,,['num_0'],,,,,,0,4,4,4,,,,,,,,,['num_0'],5,0.0544459710509,1,['num_0'],0,[0.4228301221883157],,2018_Apr_04_1439,60.0521560914,sequenceLearningTask,001,061,
min1.png,min2.png,min3.png,min4.png,allBlank.png,,,,['num_7'],,,,,,0,5,5,5,,,,,,,,,['num_7'],6,0.0505276104668,1,['num_7'],0,[0.508120003330987],,2018_Apr_04_1439,60.0521560914,sequenceLearningTask,001,061,
min1.png,min2.png,min3.png,min4.png,allBlank.png,,,,['num_1'],,,,,,0,5,5,5,,,,,,,,,['num_1'],6,0.0555302791909,1,['num_1'],0,[0.8209874137392035],,2018_Apr_04_1439,60.0521560914,sequenceLearningTask,001,061,
min1.png,min2.png,min3.png,min4.png,allBlank.png,,,,['num_4'],,,,,,0,5,5,5,,,,,,,,,['num_4'],6,0.0552792021626,1,['num_4'],0,[0.9052971919154515],,2018_Apr_04_1439,60.0521560914,sequenceLearningTask,001,061,
min1.png,min2.png,min3.png,min4.png,allBlank.png,,,,['num_0'],,,,,,0,5,5,5,,,,,,,,,['num_0'],6,0.0555897663871,1,['num_0'],0,[0.48869271330477204],,2018_Apr_04_1439,60.0521560914,sequenceLearningTask,001,061,
min1.png,min2.png,min3.png,min4.png,allBlank.png,,,,['num_0'],,,,,,0,5,5,5,,,,,,,,,['num_0'],6,0.0579196135077,0,"['num_1', 'num_0']",0,"[0.7684811357903527, 1.402662319043884]",,2018_Apr_04_1439,60.0521560914,sequenceLearningTask,001,061,
min1.png,min2.png,min3.png,min4.png,allBlank.png,,,,['num_4'],,,,,,0,5,5,5,,,,,,,,,['num_4'],6,0.0590309985855,1,['num_4'],0,[0.7017442878859583],,2018_Apr_04_1439,60.0521560914,sequenceLearningTask,001,061,
min1.png,min2.png,min3.png,min4.png,allBlank.png,,,,['num_1'],,,,,,0,5,5,5,,,,,,,,,['num_1'],6,0.0567979720217,1,['num_1'],0,[0.4723415271146223],,2018_Apr_04_1439,60.0521560914,sequenceLearningTask,001,061,
min1.png,min2.png,min3.png,min4.png,allBlank.png,,,,['num_0'],,,,,,0,5,5,5,,,,,,,,,['num_0'],6,0.052147303446,1,['num_0'],0,[0.44333269468916114],,2018_Apr_04_1439,60.0521560914,sequenceLearningTask,001,061,
min1.png,min2.png,min3.png,min4.png,allBlank.png,,,,['num_7'],,,,,,0,6,6,6,,,,,,,,,['num_7'],7,0.0505107899517,1,['num_7'],0,[0.8745599485264393],,2018_Apr_04_1439,60.0521560914,sequenceLearningTask,001,061,
min1.png,min2.png,min3.png,min4.png,allBlank.png,,,,['num_1'],,,,,,0,6,6,6,,,,,,,,,['num_1'],7,0.0531421756459,1,['num_1'],0,[0.5405036063602893],,2018_Apr_04_1439,60.0521560914,sequenceLearningTask,001,061,
min1.png,min2.png,min3.png,min4.png,allBlank.png,,,,['num_4'],,,,,,0,6,6,6,,,,,,,,,['num_4'],7,0.0532976628892,1,['num_4'],0,[0.4080986289627617],,2018_Apr_04_1439,60.0521560914,sequenceLearningTask,001,061,
min1.png,min2.png,min3.png,min4.png,allBlank.png,,,,['num_0'],,,,,,0,6,6,6,,,,,,,,,['num_0'],7,0.0522490470757,1,['num_0'],0,[0.4761322979029501],,2018_Apr_04_1439,60.0521560914,sequenceLearningTask,001,061,
min1.png,min2.png,min3.png,min4.png,allBlank.png,,,,['num_0'],,,,,,0,6,6,6,,,,,,,,,['num_0'],7,0.0485423788923,0,"['num_1', 'num_0']",0,"[0.346885885897791, 0.861873174100765]",,2018_Apr_04_1439,60.0521560914,sequenceLearningTask,001,061,
min1.png,min2.png,min3.png,min4.png,allBlank.png,,,,['num_4'],,,,,,0,6,6,6,,,,,,,,,['num_4'],7,0.0594703833776,1,['num_4'],0,[0.784823296329705],,2018_Apr_04_1439,60.0521560914,sequenceLearningTask,001,061,
min1.png,min2.png,min3.png,min4.png,allBlank.png,,,,['num_1'],,,,,,0,6,6,6,,,,,,,,,['num_1'],7,0.0577690493374,1,['num_1'],0,[0.43655115345609374],,2018_Apr_04_1439,60.0521560914,sequenceLearningTask,001,061,
min1.png,min2.png,min3.png,min4.png,allBlank.png,,,,['num_0'],,,,,,0,6,6,6,,,,,,,,,['num_0'],7,0.0549739712733,1,['num_0'],0,[0.45580244340817444],,2018_Apr_04_1439,60.0521560914,sequenceLearningTask,001,061,
min1.png,min2.png,min3.png,min4.png,allBlank.png,,,,['num_7'],,,,,,0,7,7,7,,,,,,,,,['num_7'],8,0.0552890483232,0,"['num_4', 'num_7']",0,"[0.9703770134947263, 1.4035296014480991]",,2018_Apr_04_1439,60.0521560914,sequenceLearningTask,001,061,
min1.png,min2.png,min3.png,min4.png,allBlank.png,,,,['num_1'],,,,,,0,7,7,7,,,,,,,,,['num_1'],8,0.0552701765264,1,['num_1'],0,[0.5880322412413079],,2018_Apr_04_1439,60.0521560914,sequenceLearningTask,001,061,
min1.png,min2.png,min3.png,min4.png,allBlank.png,,,,['num_4'],,,,,,0,7,7,7,,,,,,,,,['num_4'],8,0.0572254593717,1,['num_4'],0,[0.38573185056156944],,2018_Apr_04_1439,60.0521560914,sequenceLearningTask,001,061,
min1.png,min2.png,min3.png,min4.png,allBlank.png,,,,['num_0'],,,,,,0,7,7,7,,,,,,,,,['num_0'],8,0.0515836109116,1,['num_0'],0,[0.35924322431674227],,2018_Apr_04_1439,60.0521560914,sequenceLearningTask,001,061,
min1.png,min2.png,min3.png,min4.png,allBlank.png,,,,['num_0'],,,,,,0,7,7,7,,,,,,,,,['num_0'],8,0.0567335617379,1,['num_0'],0,[0.5042816427885555],,2018_Apr_04_1439,60.0521560914,sequenceLearningTask,001,061,
min1.png,min2.png,min3.png,min4.png,allBlank.png,,,,['num_4'],,,,,,0,7,7,7,,,,,,,,,['num_4'],8,0.0608915121556,1,['num_4'],0,[0.9504496206936892],,2018_Apr_04_1439,60.0521560914,sequenceLearningTask,001,061,
min1.png,min2.png,min3.png,min4.png,allBlank.png,,,,['num_1'],,,,,,0,7,7,7,,,,,,,,,['num_1'],8,0.0550273046247,1,['num_1'],0,[0.5054685150535079],,2018_Apr_04_1439,60.0521560914,sequenceLearningTask,001,061,
min1.png,min2.png,min3.png,min4.png,allBlank.png,,,,['num_0'],,,,,,0,7,7,7,,,,,,,,,['num_0'],8,0.0584094598598,1,['num_0'],0,[0.7355703530629398],,2018_Apr_04_1439,60.0521560914,sequenceLearningTask,001,061,
min1.png,min2.png,min3.png,min4.png,allBlank.png,,,,['num_7'],,,,,,0,8,8,8,,,,,,,,,['num_7'],9,0.051178277412,1,['num_7'],0,[0.5921118326514261],,2018_Apr_04_1439,60.0521560914,sequenceLearningTask,001,061,
min1.png,min2.png,min3.png,min4.png,allBlank.png,,,,['num_1'],,,,,,0,8,8,8,,,,,,,,,['num_1'],9,0.0525243292359,1,['num_1'],0,[0.5578143827005988],,2018_Apr_04_1439,60.0521560914,sequenceLearningTask,001,061,
min1.png,min2.png,min3.png,min4.png,allBlank.png,,,,['num_4'],,,,,,0,8,8,8,,,,,,,,,['num_4'],9,0.0606621787301,1,['num_4'],0,[0.7510915901802946],,2018_Apr_04_1439,60.0521560914,sequenceLearningTask,001,061,
min1.png,min2.png,min3.png,min4.png,allBlank.png,,,,['num_0'],,,,,,0,8,8,8,,,,,,,,,['num_0'],9,0.0494625844003,1,['num_0'],0,[0.5114980559883406],,2018_Apr_04_1439,60.0521560914,sequenceLearningTask,001,061,
min1.png,min2.png,min3.png,min4.png,allBlank.png,,,,['num_0'],,,,,,0,8,8,8,,,,,,,,,['num_0'],9,0.0550613559171,1,['num_0'],0,[0.655116166206426],,2018_Apr_04_1439,60.0521560914,sequenceLearningTask,001,061,
min1.png,min2.png,min3.png,min4.png,allBlank.png,,,,['num_4'],,,,,,0,8,8,8,,,,,,,,,['num_4'],9,0.0596389988204,1,['num_4'],0,[0.8676664072409039],,2018_Apr_04_1439,60.0521560914,sequenceLearningTask,001,061,
min1.png,min2.png,min3.png,min4.png,allBlank.png,,,,['num_1'],,,,,,0,8,8,8,,,,,,,,,['num_1'],9,0.0507548926107,1,['num_1'],0,[0.5616748970933259],,2018_Apr_04_1439,60.0521560914,sequenceLearningTask,001,061,
min1.png,min2.png,min3.png,min4.png,allBlank.png,,,,['num_0'],,,,,,0,8,8,8,,,,,,,,,['num_0'],9,0.0500008410309,1,['num_0'],0,[0.6123555332742399],,2018_Apr_04_1439,60.0521560914,sequenceLearningTask,001,061,
min1.png,min2.png,min3.png,min4.png,allBlank.png,,,,['num_7'],,,,,,0,9,9,9,,,,,,,,,['num_7'],10,0.0514670980483,1,['num_7'],0,[0.49007486771733966],,2018_Apr_04_1439,60.0521560914,sequenceLearningTask,001,061,
min1.png,min2.png,min3.png,min4.png,allBlank.png,,,,['num_1'],,,,,,0,9,9,9,,,,,,,,,['num_1'],10,0.0499741743552,1,['num_1'],0,[0.6950169005285716],,2018_Apr_04_1439,60.0521560914,sequenceLearningTask,001,061,
min1.png,min2.png,min3.png,min4.png,allBlank.png,,,,['num_4'],,,,,,0,9,9,9,,,,,,,,,['num_4'],10,0.0630539745907,1,['num_4'],0,[0.9452746442111675],,2018_Apr_04_1439,60.0521560914,sequenceLearningTask,001,061,
min1.png,min2.png,min3.png,min4.png,allBlank.png,,,,['num_0'],,,,,,0,9,9,9,,,,,,,,,['num_0'],10,0.0520574572583,1,['num_0'],0,[0.44275136112992186],,2018_Apr_04_1439,60.0521560914,sequenceLearningTask,001,061,
min1.png,min2.png,min3.png,min4.png,allBlank.png,,,,['num_0'],,,,,,0,9,9,9,,,,,,,,,['num_0'],10,0.0552229970199,1,['num_0'],0,[0.5559354075521696],,2018_Apr_04_1439,60.0521560914,sequenceLearningTask,001,061,
min1.png,min2.png,min3.png,min4.png,allBlank.png,,,,['num_4'],,,,,,0,9,9,9,,,,,,,,,['num_4'],10,0.0536106886575,1,['num_4'],0,[1.4075107312819455],,2018_Apr_04_1439,60.0521560914,sequenceLearningTask,001,061,
min1.png,min2.png,min3.png,min4.png,allBlank.png,,,,['num_1'],,,,,,0,9,9,9,,,,,,,,,['num_1'],10,0.08589747113,1,['num_1'],0,[0.44178684792132117],,2018_Apr_04_1439,60.0521560914,sequenceLearningTask,001,061,
min1.png,min2.png,min3.png,min4.png,allBlank.png,,,,['num_0'],,,,,,0,9,9,9,,,,,,,,,['num_0'],10,0.0500221743714,1,['num_0'],0,[0.5118816458998481],,2018_Apr_04_1439,60.0521560914,sequenceLearningTask,001,061,
min1.png,min2.png,min3.png,min4.png,allBlank.png,,,,,,,,,,0,9,9,9,,,,,0,-1,-1,0,,,,,,,,,2018_Apr_04_1439,60.0521560914,sequenceLearningTask,001,061,
