pawPatrol1,pawPatrol2,pawPatrol3,pawPatrol4,blank,randomPaw,correctKeyPress,allowableKey,correctKey,correctKeyPressNum,trials.thisRepN,trials.thisTrialN,trials.thisN,trials.thisIndex,trials_3.thisRepN,trials_3.thisTrialN,trials_3.thisN,trials_3.thisIndex,trials_2.thisRepN,trials_2.thisTrialN,trials_2.thisN,trials_2.thisIndex,trials_questions.thisRepN,trials_questions.thisTrialN,trials_questions.thisN,trials_questions.thisIndex,correctKey,repetitionNumber,stimulusPresent.t,trialCorrect,key_resp_9.keys,key_resp_9.corr,key_resp_9.rt,keyRespCorrect,date,frameRate,expName,session,participant,
min1.png,min2.png,min3.png,min4.png,allBlank.png,,,,['num_7'],,,,,,0,0,0,0,,,,,,,,,['num_7'],1,0.049081846154,1,['num_7'],0,[0.4815318974351612],,2018_May_26_1207,60.2750769048,sequenceLearningTask,001,077,
min1.png,min2.png,min3.png,min4.png,allBlank.png,,,,['num_1'],,,,,,0,0,0,0,,,,,,,,,['num_1'],1,0.0870371282053,1,['num_1'],0,[0.7574293333336755],,2018_May_26_1207,60.2750769048,sequenceLearningTask,001,077,
min1.png,min2.png,min3.png,min4.png,allBlank.png,,,,['num_4'],,,,,,0,0,0,0,,,,,,,,,['num_4'],1,0.0774256410259,1,['num_4'],0,[0.8014843076925899],,2018_May_26_1207,60.2750769048,sequenceLearningTask,001,077,
min1.png,min2.png,min3.png,min4.png,allBlank.png,,,,['num_0'],,,,,,0,0,0,0,,,,,,,,,['num_0'],1,0.0762769230769,1,['num_0'],0,[0.4010527179489145],,2018_May_26_1207,60.2750769048,sequenceLearningTask,001,077,
min1.png,min2.png,min3.png,min4.png,allBlank.png,,,,['num_0'],,,,,,0,0,0,0,,,,,,,,,['num_0'],1,0.0559856410255,1,['num_0'],0,[0.5715359999994689],,2018_May_26_1207,60.2750769048,sequenceLearningTask,001,077,
min1.png,min2.png,min3.png,min4.png,allBlank.png,,,,['num_4'],,,,,,0,0,0,0,,,,,,,,,['num_4'],1,0.0585948717944,1,['num_4'],0,[0.7027835897442856],,2018_May_26_1207,60.2750769048,sequenceLearningTask,001,077,
min1.png,min2.png,min3.png,min4.png,allBlank.png,,,,['num_1'],,,,,,0,0,0,0,,,,,,,,,['num_1'],1,0.0547310769234,1,['num_1'],0,[0.42280451282022113],,2018_May_26_1207,60.2750769048,sequenceLearningTask,001,077,
min1.png,min2.png,min3.png,min4.png,allBlank.png,,,,['num_0'],,,,,,0,0,0,0,,,,,,,,,['num_0'],1,0.0604488205126,1,['num_0'],0,[0.5169813333332058],,2018_May_26_1207,60.2750769048,sequenceLearningTask,001,077,
min1.png,min2.png,min3.png,min4.png,allBlank.png,,,,['num_7'],,,,,,0,1,1,1,,,,,,,,,['num_7'],2,0.0540635897432,1,['num_7'],0,[0.6382527179484896],,2018_May_26_1207,60.2750769048,sequenceLearningTask,001,077,
min1.png,min2.png,min3.png,min4.png,allBlank.png,,,,['num_1'],,,,,,0,1,1,1,,,,,,,,,['num_1'],2,0.0539536410261,1,['num_1'],0,[0.6070527179490455],,2018_May_26_1207,60.2750769048,sequenceLearningTask,001,077,
min1.png,min2.png,min3.png,min4.png,allBlank.png,,,,['num_4'],,,,,,0,1,1,1,,,,,,,,,['num_4'],2,0.0543556923076,1,['num_4'],0,[0.4239548717951038],,2018_May_26_1207,60.2750769048,sequenceLearningTask,001,077,
min1.png,min2.png,min3.png,min4.png,allBlank.png,,,,['num_0'],,,,,,0,1,1,1,,,,,,,,,['num_0'],2,0.0573107692308,1,['num_0'],0,[0.3687343589745069],,2018_May_26_1207,60.2750769048,sequenceLearningTask,001,077,
min1.png,min2.png,min3.png,min4.png,allBlank.png,,,,['num_0'],,,,,,0,1,1,1,,,,,,,,,['num_0'],2,0.047024820512,1,['num_0'],0,[0.5149583589745816],,2018_May_26_1207,60.2750769048,sequenceLearningTask,001,077,
min1.png,min2.png,min3.png,min4.png,allBlank.png,,,,['num_4'],,,,,,0,1,1,1,,,,,,,,,['num_4'],2,0.0583786666666,1,['num_4'],0,[0.6872393846160776],,2018_May_26_1207,60.2750769048,sequenceLearningTask,001,077,
min1.png,min2.png,min3.png,min4.png,allBlank.png,,,,['num_1'],,,,,,0,1,1,1,,,,,,,,,['num_1'],2,0.0490654358973,1,['num_1'],0,[0.44591753846179927],,2018_May_26_1207,60.2750769048,sequenceLearningTask,001,077,
min1.png,min2.png,min3.png,min4.png,allBlank.png,,,,['num_0'],,,,,,0,1,1,1,,,,,,,,,['num_0'],2,0.0565288205125,1,['num_0'],0,[0.4878067692307013],,2018_May_26_1207,60.2750769048,sequenceLearningTask,001,077,
min1.png,min2.png,min3.png,min4.png,allBlank.png,,,,['num_7'],,,,,,0,2,2,2,,,,,,,,,['num_7'],3,0.0583848205124,1,['num_7'],0,[0.6338289230761802],,2018_May_26_1207,60.2750769048,sequenceLearningTask,001,077,
min1.png,min2.png,min3.png,min4.png,allBlank.png,,,,['num_1'],,,,,,0,2,2,2,,,,,,,,,['num_1'],3,0.0526974358982,1,['num_1'],0,[0.5431310769236006],,2018_May_26_1207,60.2750769048,sequenceLearningTask,001,077,
min1.png,min2.png,min3.png,min4.png,allBlank.png,,,,['num_4'],,,,,,0,2,2,2,,,,,,,,,['num_4'],3,0.0590051282052,1,['num_4'],0,[0.6513936410256065],,2018_May_26_1207,60.2750769048,sequenceLearningTask,001,077,
min1.png,min2.png,min3.png,min4.png,allBlank.png,,,,['num_0'],,,,,,0,2,2,2,,,,,,,,,['num_0'],3,0.0530695384614,1,['num_0'],0,[0.6245165128202643],,2018_May_26_1207,60.2750769048,sequenceLearningTask,001,077,
min1.png,min2.png,min3.png,min4.png,allBlank.png,,,,['num_0'],,,,,,0,2,2,2,,,,,,,,,['num_0'],3,0.0555643076923,1,['num_0'],0,[0.48945435897439893],,2018_May_26_1207,60.2750769048,sequenceLearningTask,001,077,
min1.png,min2.png,min3.png,min4.png,allBlank.png,,,,['num_4'],,,,,,0,2,2,2,,,,,,,,,['num_4'],3,0.0588406153847,1,['num_4'],0,[0.601586871795007],,2018_May_26_1207,60.2750769048,sequenceLearningTask,001,077,
min1.png,min2.png,min3.png,min4.png,allBlank.png,,,,['num_1'],,,,,,0,2,2,2,,,,,,,,,['num_1'],3,0.0581866666662,1,['num_1'],0,[0.6368176410251181],,2018_May_26_1207,60.2750769048,sequenceLearningTask,001,077,
min1.png,min2.png,min3.png,min4.png,allBlank.png,,,,['num_0'],,,,,,0,2,2,2,,,,,,,,,['num_0'],3,0.0495897435903,1,['num_0'],0,[0.6122646153844471],,2018_May_26_1207,60.2750769048,sequenceLearningTask,001,077,
min1.png,min2.png,min3.png,min4.png,allBlank.png,,,,['num_7'],,,,,,0,3,3,3,,,,,,,,,['num_7'],4,0.059186461538,1,['num_7'],0,[0.6162937435901767],,2018_May_26_1207,60.2750769048,sequenceLearningTask,001,077,
min1.png,min2.png,min3.png,min4.png,allBlank.png,,,,['num_1'],,,,,,0,3,3,3,,,,,,,,,['num_1'],4,0.0557788717942,1,['num_1'],0,[0.7048406153844553],,2018_May_26_1207,60.2750769048,sequenceLearningTask,001,077,
min1.png,min2.png,min3.png,min4.png,allBlank.png,,,,['num_4'],,,,,,0,3,3,3,,,,,,,,,['num_4'],4,0.0248951794865,1,['num_4'],0,[0.43859651282036793],,2018_May_26_1207,60.2750769048,sequenceLearningTask,001,077,
min1.png,min2.png,min3.png,min4.png,allBlank.png,,,,['num_0'],,,,,,0,3,3,3,,,,,,,,,['num_0'],4,0.0601850256407,1,['num_0'],0,[0.3680750769235601],,2018_May_26_1207,60.2750769048,sequenceLearningTask,001,077,
min1.png,min2.png,min3.png,min4.png,allBlank.png,,,,['num_0'],,,,,,0,3,3,3,,,,,,,,,['num_0'],4,0.0580771282048,1,['num_0'],0,[0.5369308717954482],,2018_May_26_1207,60.2750769048,sequenceLearningTask,001,077,
min1.png,min2.png,min3.png,min4.png,allBlank.png,,,,['num_4'],,,,,,0,3,3,3,,,,,,,,,['num_4'],4,0.0598900512823,1,['num_4'],0,[0.7020771282050191],,2018_May_26_1207,60.2750769048,sequenceLearningTask,001,077,
min1.png,min2.png,min3.png,min4.png,allBlank.png,,,,['num_1'],,,,,,0,3,3,3,,,,,,,,,['num_1'],4,0.0598724102565,1,['num_1'],0,[0.35173210256380116],,2018_May_26_1207,60.2750769048,sequenceLearningTask,001,077,
min1.png,min2.png,min3.png,min4.png,allBlank.png,,,,['num_0'],,,,,,0,3,3,3,,,,,,,,,['num_0'],4,0.0587483076924,1,['num_0'],0,[0.4348988717956672],,2018_May_26_1207,60.2750769048,sequenceLearningTask,001,077,
min1.png,min2.png,min3.png,min4.png,allBlank.png,,,,['num_7'],,,,,,0,4,4,4,,,,,,,,,['num_7'],5,0.052535384616,1,['num_7'],0,[0.47274994871804665],,2018_May_26_1207,60.2750769048,sequenceLearningTask,001,077,
min1.png,min2.png,min3.png,min4.png,allBlank.png,,,,['num_1'],,,,,,0,4,4,4,,,,,,,,,['num_1'],5,0.0599335384613,1,['num_1'],0,[0.5673234871792374],,2018_May_26_1207,60.2750769048,sequenceLearningTask,001,077,
min1.png,min2.png,min3.png,min4.png,allBlank.png,,,,['num_4'],,,,,,0,4,4,4,,,,,,,,,['num_4'],5,0.0464352820509,0,"['num_7', 'num_4']",0,"[0.5981645128204036, 1.5824090256410273]",,2018_May_26_1207,60.2750769048,sequenceLearningTask,001,077,
min1.png,min2.png,min3.png,min4.png,allBlank.png,,,,['num_0'],,,,,,0,4,4,4,,,,,,,,,['num_0'],5,0.0506789743586,1,['num_0'],0,[0.3611413333337623],,2018_May_26_1207,60.2750769048,sequenceLearningTask,001,077,
min1.png,min2.png,min3.png,min4.png,allBlank.png,,,,['num_0'],,,,,,0,4,4,4,,,,,,,,,['num_0'],5,0.0526305641024,1,['num_0'],0,[0.4589961025649245],,2018_May_26_1207,60.2750769048,sequenceLearningTask,001,077,
min1.png,min2.png,min3.png,min4.png,allBlank.png,,,,['num_4'],,,,,,0,4,4,4,,,,,,,,,['num_4'],5,0.0595003076924,1,['num_4'],0,[0.7694227692309141],,2018_May_26_1207,60.2750769048,sequenceLearningTask,001,077,
min1.png,min2.png,min3.png,min4.png,allBlank.png,,,,['num_1'],,,,,,0,4,4,4,,,,,,,,,['num_1'],5,0.0512824615389,1,['num_1'],0,[0.3433275897432395],,2018_May_26_1207,60.2750769048,sequenceLearningTask,001,077,
min1.png,min2.png,min3.png,min4.png,allBlank.png,,,,['num_0'],,,,,,0,4,4,4,,,,,,,,,['num_0'],5,0.0529505641025,1,['num_0'],0,[0.4095626666667158],,2018_May_26_1207,60.2750769048,sequenceLearningTask,001,077,
min1.png,min2.png,min3.png,min4.png,allBlank.png,,,,['num_7'],,,,,,0,5,5,5,,,,,,,,,['num_7'],6,0.0593989743584,1,['num_7'],0,[0.6823154871790393],,2018_May_26_1207,60.2750769048,sequenceLearningTask,001,077,
min1.png,min2.png,min3.png,min4.png,allBlank.png,,,,['num_1'],,,,,,0,5,5,5,,,,,,,,,['num_1'],6,0.0497009230767,1,['num_1'],0,[0.7124734358967544],,2018_May_26_1207,60.2750769048,sequenceLearningTask,001,077,
min1.png,min2.png,min3.png,min4.png,allBlank.png,,,,['num_4'],,,,,,0,5,5,5,,,,,,,,,['num_4'],6,0.0506625641028,1,['num_4'],0,[0.3103277948712275],,2018_May_26_1207,60.2750769048,sequenceLearningTask,001,077,
min1.png,min2.png,min3.png,min4.png,allBlank.png,,,,['num_0'],,,,,,0,5,5,5,,,,,,,,,['num_0'],6,0.0538297435896,1,['num_0'],0,[0.40768492307779525],,2018_May_26_1207,60.2750769048,sequenceLearningTask,001,077,
min1.png,min2.png,min3.png,min4.png,allBlank.png,,,,['num_0'],,,,,,0,5,5,5,,,,,,,,,['num_0'],6,0.0491938461537,1,['num_0'],0,[0.46284389743505017],,2018_May_26_1207,60.2750769048,sequenceLearningTask,001,077,
min1.png,min2.png,min3.png,min4.png,allBlank.png,,,,['num_4'],,,,,,0,5,5,5,,,,,,,,,['num_4'],6,0.0488278974362,1,['num_4'],0,[0.6628828717948636],,2018_May_26_1207,60.2750769048,sequenceLearningTask,001,077,
min1.png,min2.png,min3.png,min4.png,allBlank.png,,,,['num_1'],,,,,,0,5,5,5,,,,,,,,,['num_1'],6,0.0580660512815,1,['num_1'],0,[0.303906051281956],,2018_May_26_1207,60.2750769048,sequenceLearningTask,001,077,
min1.png,min2.png,min3.png,min4.png,allBlank.png,,,,['num_0'],,,,,,0,5,5,5,,,,,,,,,['num_0'],6,0.0494100512824,1,['num_0'],0,[0.4789230769229107],,2018_May_26_1207,60.2750769048,sequenceLearningTask,001,077,
min1.png,min2.png,min3.png,min4.png,allBlank.png,,,,['num_7'],,,,,,0,6,6,6,,,,,,,,,['num_7'],7,0.0492631794868,1,['num_7'],0,[0.49385887179505517],,2018_May_26_1207,60.2750769048,sequenceLearningTask,001,077,
min1.png,min2.png,min3.png,min4.png,allBlank.png,,,,['num_1'],,,,,,0,6,6,6,,,,,,,,,['num_1'],7,0.0608841025642,1,['num_1'],0,[0.5002441025644657],,2018_May_26_1207,60.2750769048,sequenceLearningTask,001,077,
min1.png,min2.png,min3.png,min4.png,allBlank.png,,,,['num_4'],,,,,,0,6,6,6,,,,,,,,,['num_4'],7,0.0573403076924,1,['num_4'],0,[0.3197661538461034],,2018_May_26_1207,60.2750769048,sequenceLearningTask,001,077,
min1.png,min2.png,min3.png,min4.png,allBlank.png,,,,['num_0'],,,,,,0,6,6,6,,,,,,,,,['num_0'],7,0.0496578461534,1,['num_0'],0,[0.4123819487176661],,2018_May_26_1207,60.2750769048,sequenceLearningTask,001,077,
min1.png,min2.png,min3.png,min4.png,allBlank.png,,,,['num_0'],,,,,,0,6,6,6,,,,,,,,,['num_0'],7,0.0586207179485,1,['num_0'],0,[0.4528217435890838],,2018_May_26_1207,60.2750769048,sequenceLearningTask,001,077,
min1.png,min2.png,min3.png,min4.png,allBlank.png,,,,['num_4'],,,,,,0,6,6,6,,,,,,,,,['num_4'],7,0.0532094358978,1,['num_4'],0,[0.759094974358959],,2018_May_26_1207,60.2750769048,sequenceLearningTask,001,077,
min1.png,min2.png,min3.png,min4.png,allBlank.png,,,,['num_1'],,,,,,0,6,6,6,,,,,,,,,['num_1'],7,0.046897230769,1,['num_1'],0,[0.3146342564104998],,2018_May_26_1207,60.2750769048,sequenceLearningTask,001,077,
min1.png,min2.png,min3.png,min4.png,allBlank.png,,,,['num_0'],,,,,,0,6,6,6,,,,,,,,,['num_0'],7,0.0598162051274,1,['num_0'],0,[0.4156451282051421],,2018_May_26_1207,60.2750769048,sequenceLearningTask,001,077,
min1.png,min2.png,min3.png,min4.png,allBlank.png,,,,['num_7'],,,,,,0,7,7,7,,,,,,,,,['num_7'],8,0.0528168205128,1,['num_7'],0,[0.4904701538462177],,2018_May_26_1207,60.2750769048,sequenceLearningTask,001,077,
min1.png,min2.png,min3.png,min4.png,allBlank.png,,,,['num_1'],,,,,,0,7,7,7,,,,,,,,,['num_1'],8,0.0628689230771,1,['num_1'],0,[0.6808069743592569],,2018_May_26_1207,60.2750769048,sequenceLearningTask,001,077,
min1.png,min2.png,min3.png,min4.png,allBlank.png,,,,['num_4'],,,,,,0,7,7,7,,,,,,,,,['num_4'],8,0.054626051282,1,['num_4'],0,[0.3564004102563558],,2018_May_26_1207,60.2750769048,sequenceLearningTask,001,077,
min1.png,min2.png,min3.png,min4.png,allBlank.png,,,,['num_0'],,,,,,0,7,7,7,,,,,,,,,['num_0'],8,0.048722461539,1,['num_0'],0,[0.3460381538461661],,2018_May_26_1207,60.2750769048,sequenceLearningTask,001,077,
min1.png,min2.png,min3.png,min4.png,allBlank.png,,,,['num_0'],,,,,,0,7,7,7,,,,,,,,,['num_0'],8,0.0494227692307,1,['num_0'],0,[0.6627835897434124],,2018_May_26_1207,60.2750769048,sequenceLearningTask,001,077,
min1.png,min2.png,min3.png,min4.png,allBlank.png,,,,['num_4'],,,,,,0,7,7,7,,,,,,,,,['num_4'],8,0.0508676923073,1,['num_4'],0,[0.5613854358971366],,2018_May_26_1207,60.2750769048,sequenceLearningTask,001,077,
min1.png,min2.png,min3.png,min4.png,allBlank.png,,,,['num_1'],,,,,,0,7,7,7,,,,,,,,,['num_1'],8,0.0503532307694,1,['num_1'],0,[0.32739938461509155],,2018_May_26_1207,60.2750769048,sequenceLearningTask,001,077,
min1.png,min2.png,min3.png,min4.png,allBlank.png,,,,['num_0'],,,,,,0,7,7,7,,,,,,,,,['num_0'],8,0.0489936410258,1,['num_0'],0,[0.4297226666667484],,2018_May_26_1207,60.2750769048,sequenceLearningTask,001,077,
min1.png,min2.png,min3.png,min4.png,allBlank.png,,,,['num_7'],,,,,,0,8,8,8,,,,,,,,,['num_7'],9,0.0488713846153,1,['num_7'],0,[0.8107663589744334],,2018_May_26_1207,60.2750769048,sequenceLearningTask,001,077,
min1.png,min2.png,min3.png,min4.png,allBlank.png,,,,['num_1'],,,,,,0,8,8,8,,,,,,,,,['num_1'],9,0.0500685128209,1,['num_1'],0,[0.5625263589745373],,2018_May_26_1207,60.2750769048,sequenceLearningTask,001,077,
min1.png,min2.png,min3.png,min4.png,allBlank.png,,,,['num_4'],,,,,,0,8,8,8,,,,,,,,,['num_4'],9,0.0559483076922,0,"['num_7', 'num_4']",0,"[0.5251934358966537, 0.8877091282047331]",,2018_May_26_1207,60.2750769048,sequenceLearningTask,001,077,
min1.png,min2.png,min3.png,min4.png,allBlank.png,,,,['num_0'],,,,,,0,8,8,8,,,,,,,,,['num_0'],9,0.0514994871792,1,['num_0'],0,[0.343075692308048],,2018_May_26_1207,60.2750769048,sequenceLearningTask,001,077,
min1.png,min2.png,min3.png,min4.png,allBlank.png,,,,['num_0'],,,,,,0,8,8,8,,,,,,,,,['num_0'],9,0.0550030769227,1,['num_0'],0,[0.6567442051282342],,2018_May_26_1207,60.2750769048,sequenceLearningTask,001,077,
min1.png,min2.png,min3.png,min4.png,allBlank.png,,,,['num_4'],,,,,,0,8,8,8,,,,,,,,,['num_4'],9,0.0555860512823,1,['num_4'],0,[1.022073025640566],,2018_May_26_1207,60.2750769048,sequenceLearningTask,001,077,
min1.png,min2.png,min3.png,min4.png,allBlank.png,,,,['num_1'],,,,,,0,8,8,8,,,,,,,,,['num_1'],9,0.0515671794874,1,['num_1'],0,[0.7278297435896093],,2018_May_26_1207,60.2750769048,sequenceLearningTask,001,077,
min1.png,min2.png,min3.png,min4.png,allBlank.png,,,,['num_0'],,,,,,0,8,8,8,,,,,,,,,['num_0'],9,0.0545292307697,1,['num_0'],0,[0.4069993846160287],,2018_May_26_1207,60.2750769048,sequenceLearningTask,001,077,
min1.png,min2.png,min3.png,min4.png,allBlank.png,,,,['num_7'],,,,,,0,9,9,9,,,,,,,,,['num_7'],10,0.0504032820509,1,['num_7'],0,[0.49181415384555294],,2018_May_26_1207,60.2750769048,sequenceLearningTask,001,077,
min1.png,min2.png,min3.png,min4.png,allBlank.png,,,,['num_1'],,,,,,0,9,9,9,,,,,,,,,['num_1'],10,0.0491245128205,1,['num_1'],0,[0.42825723076930444],,2018_May_26_1207,60.2750769048,sequenceLearningTask,001,077,
min1.png,min2.png,min3.png,min4.png,allBlank.png,,,,['num_4'],,,,,,0,9,9,9,,,,,,,,,['num_4'],10,0.048912410256,1,['num_4'],0,[0.3626703589743556],,2018_May_26_1207,60.2750769048,sequenceLearningTask,001,077,
min1.png,min2.png,min3.png,min4.png,allBlank.png,,,,['num_0'],,,,,,0,9,9,9,,,,,,,,,['num_0'],10,0.0590670769234,1,['num_0'],0,[0.31880902564080316],,2018_May_26_1207,60.2750769048,sequenceLearningTask,001,077,
min1.png,min2.png,min3.png,min4.png,allBlank.png,,,,['num_0'],,,,,,0,9,9,9,,,,,,,,,['num_0'],10,0.0543273846151,1,['num_0'],0,[0.4072328205129452],,2018_May_26_1207,60.2750769048,sequenceLearningTask,001,077,
min1.png,min2.png,min3.png,min4.png,allBlank.png,,,,['num_4'],,,,,,0,9,9,9,,,,,,,,,['num_4'],10,0.0222687179485,1,['num_4'],0,[0.6922367179486173],,2018_May_26_1207,60.2750769048,sequenceLearningTask,001,077,
min1.png,min2.png,min3.png,min4.png,allBlank.png,,,,['num_1'],,,,,,0,9,9,9,,,,,,,,,['num_1'],10,0.0567339487179,1,['num_1'],0,[0.3376209230773384],,2018_May_26_1207,60.2750769048,sequenceLearningTask,001,077,
min1.png,min2.png,min3.png,min4.png,allBlank.png,,,,['num_0'],,,,,,0,9,9,9,,,,,,,,,['num_0'],10,0.0572701538458,1,['num_0'],0,[0.43770502564166236],,2018_May_26_1207,60.2750769048,sequenceLearningTask,001,077,
min1.png,min2.png,min3.png,min4.png,allBlank.png,,,,['num_7'],,,,,,0,0,0,0,,,,,,,,,['num_7'],1,0.0495310769229,1,['num_7'],0,[0.618046769231114],,2018_May_26_1207,60.2750769048,sequenceLearningTask,001,077,
min1.png,min2.png,min3.png,min4.png,allBlank.png,,,,['num_1'],,,,,,0,0,0,0,,,,,,,,,['num_1'],1,0.0658937435901,1,['num_1'],0,[0.5448964102570244],,2018_May_26_1207,60.2750769048,sequenceLearningTask,001,077,
min1.png,min2.png,min3.png,min4.png,allBlank.png,,,,['num_4'],,,,,,0,0,0,0,,,,,,,,,['num_4'],1,0.0558683076924,1,['num_4'],0,[0.3064980512817783],,2018_May_26_1207,60.2750769048,sequenceLearningTask,001,077,
min1.png,min2.png,min3.png,min4.png,allBlank.png,,,,['num_0'],,,,,,0,0,0,0,,,,,,,,,['num_0'],1,0.0538699487179,1,['num_0'],0,[0.2907323076924513],,2018_May_26_1207,60.2750769048,sequenceLearningTask,001,077,
min1.png,min2.png,min3.png,min4.png,allBlank.png,,,,['num_0'],,,,,,0,0,0,0,,,,,,,,,['num_0'],1,0.0621702564094,1,['num_0'],0,[0.4816270769233597],,2018_May_26_1207,60.2750769048,sequenceLearningTask,001,077,
min1.png,min2.png,min3.png,min4.png,allBlank.png,,,,['num_4'],,,,,,0,0,0,0,,,,,,,,,['num_4'],1,0.0500024615385,1,['num_4'],0,[0.5446157948717882],,2018_May_26_1207,60.2750769048,sequenceLearningTask,001,077,
min1.png,min2.png,min3.png,min4.png,allBlank.png,,,,['num_1'],,,,,,0,0,0,0,,,,,,,,,['num_1'],1,0.0520266666672,1,['num_1'],0,[0.29164841025612986],,2018_May_26_1207,60.2750769048,sequenceLearningTask,001,077,
min1.png,min2.png,min3.png,min4.png,allBlank.png,,,,['num_0'],,,,,,0,0,0,0,,,,,,,,,['num_0'],1,0.062606769231,1,['num_0'],0,[0.43147364102605934],,2018_May_26_1207,60.2750769048,sequenceLearningTask,001,077,
min1.png,min2.png,min3.png,min4.png,allBlank.png,,,,['num_7'],,,,,,0,1,1,1,,,,,,,,,['num_7'],2,0.0455651282055,1,['num_7'],0,[0.28067733333318756],,2018_May_26_1207,60.2750769048,sequenceLearningTask,001,077,
min1.png,min2.png,min3.png,min4.png,allBlank.png,,,,['num_1'],,,,,,0,1,1,1,,,,,,,,,['num_1'],2,0.0583565128209,1,['num_1'],0,[0.3531679999996413],,2018_May_26_1207,60.2750769048,sequenceLearningTask,001,077,
min1.png,min2.png,min3.png,min4.png,allBlank.png,,,,['num_4'],,,,,,0,1,1,1,,,,,,,,,['num_4'],2,0.055070769231,1,['num_4'],0,[0.30586584615411994],,2018_May_26_1207,60.2750769048,sequenceLearningTask,001,077,
min1.png,min2.png,min3.png,min4.png,allBlank.png,,,,['num_0'],,,,,,0,1,1,1,,,,,,,,,['num_0'],2,0.0544451282049,1,['num_0'],0,[0.30668389743550506],,2018_May_26_1207,60.2750769048,sequenceLearningTask,001,077,
min1.png,min2.png,min3.png,min4.png,allBlank.png,,,,['num_0'],,,,,,0,1,1,1,,,,,,,,,['num_0'],2,0.056333948718,1,['num_0'],0,[0.5216553846148599],,2018_May_26_1207,60.2750769048,sequenceLearningTask,001,077,
min1.png,min2.png,min3.png,min4.png,allBlank.png,,,,['num_4'],,,,,,0,1,1,1,,,,,,,,,['num_4'],2,0.0540053333334,1,['num_4'],0,[0.5747175384622096],,2018_May_26_1207,60.2750769048,sequenceLearningTask,001,077,
min1.png,min2.png,min3.png,min4.png,allBlank.png,,,,['num_1'],,,,,,0,1,1,1,,,,,,,,,['num_1'],2,0.058398358975,1,['num_1'],0,[0.2355643076925844],,2018_May_26_1207,60.2750769048,sequenceLearningTask,001,077,
min1.png,min2.png,min3.png,min4.png,allBlank.png,,,,['num_0'],,,,,,0,1,1,1,,,,,,,,,['num_0'],2,0.0524475897437,1,['num_0'],0,[0.4414428717955161],,2018_May_26_1207,60.2750769048,sequenceLearningTask,001,077,
min1.png,min2.png,min3.png,min4.png,allBlank.png,,,,['num_7'],,,,,,0,2,2,2,,,,,,,,,['num_7'],3,0.0587860512824,1,['num_7'],0,[0.41601723076837516],,2018_May_26_1207,60.2750769048,sequenceLearningTask,001,077,
min1.png,min2.png,min3.png,min4.png,allBlank.png,,,,['num_1'],,,,,,0,2,2,2,,,,,,,,,['num_1'],3,0.0631105641023,1,['num_1'],0,[0.465224205128834],,2018_May_26_1207,60.2750769048,sequenceLearningTask,001,077,
min1.png,min2.png,min3.png,min4.png,allBlank.png,,,,['num_4'],,,,,,0,2,2,2,,,,,,,,,['num_4'],3,0.0558769230765,1,['num_4'],0,[0.28831507692302694],,2018_May_26_1207,60.2750769048,sequenceLearningTask,001,077,
min1.png,min2.png,min3.png,min4.png,allBlank.png,,,,['num_0'],,,,,,0,2,2,2,,,,,,,,,['num_0'],3,0.0481776410252,1,['num_0'],0,[0.3131187692306412],,2018_May_26_1207,60.2750769048,sequenceLearningTask,001,077,
min1.png,min2.png,min3.png,min4.png,allBlank.png,,,,['num_0'],,,,,,0,2,2,2,,,,,,,,,['num_0'],3,0.0563031794873,1,['num_0'],0,[0.48802748718026123],,2018_May_26_1207,60.2750769048,sequenceLearningTask,001,077,
min1.png,min2.png,min3.png,min4.png,allBlank.png,,,,['num_4'],,,,,,0,2,2,2,,,,,,,,,['num_4'],3,0.0478096410261,1,['num_4'],0,[0.54761312820483],,2018_May_26_1207,60.2750769048,sequenceLearningTask,001,077,
min1.png,min2.png,min3.png,min4.png,allBlank.png,,,,['num_1'],,,,,,0,2,2,2,,,,,,,,,['num_1'],3,0.0581698461547,1,['num_1'],0,[0.2872098461539281],,2018_May_26_1207,60.2750769048,sequenceLearningTask,001,077,
min1.png,min2.png,min3.png,min4.png,allBlank.png,,,,['num_0'],,,,,,0,2,2,2,,,,,,,,,['num_0'],3,0.0572036923077,1,['num_0'],0,[0.6879495384619077],,2018_May_26_1207,60.2750769048,sequenceLearningTask,001,077,
min1.png,min2.png,min3.png,min4.png,allBlank.png,,,,['num_7'],,,,,,0,3,3,3,,,,,,,,,['num_7'],4,0.0523737435897,1,['num_7'],0,[0.5221788717944946],,2018_May_26_1207,60.2750769048,sequenceLearningTask,001,077,
min1.png,min2.png,min3.png,min4.png,allBlank.png,,,,['num_1'],,,,,,0,3,3,3,,,,,,,,,['num_1'],4,0.0539343589744,1,['num_1'],0,[0.37378051282030356],,2018_May_26_1207,60.2750769048,sequenceLearningTask,001,077,
min1.png,min2.png,min3.png,min4.png,allBlank.png,,,,['num_4'],,,,,,0,3,3,3,,,,,,,,,['num_4'],4,0.0570806153846,1,['num_4'],0,[0.5377136410261301],,2018_May_26_1207,60.2750769048,sequenceLearningTask,001,077,
min1.png,min2.png,min3.png,min4.png,allBlank.png,,,,['num_0'],,,,,,0,3,3,3,,,,,,,,,['num_0'],4,0.0532443076918,1,['num_0'],0,[0.24137846153826104],,2018_May_26_1207,60.2750769048,sequenceLearningTask,001,077,
min1.png,min2.png,min3.png,min4.png,allBlank.png,,,,['num_0'],,,,,,0,3,3,3,,,,,,,,,['num_0'],4,0.0669694358976,1,['num_0'],0,[0.4262678974355367],,2018_May_26_1207,60.2750769048,sequenceLearningTask,001,077,
min1.png,min2.png,min3.png,min4.png,allBlank.png,,,,['num_4'],,,,,,0,3,3,3,,,,,,,,,['num_4'],4,0.0557780512827,1,['num_4'],0,[0.48977517948787863],,2018_May_26_1207,60.2750769048,sequenceLearningTask,001,077,
min1.png,min2.png,min3.png,min4.png,allBlank.png,,,,['num_1'],,,,,,0,3,3,3,,,,,,,,,['num_1'],4,0.059085128205,1,['num_1'],0,[0.3022982564107224],,2018_May_26_1207,60.2750769048,sequenceLearningTask,001,077,
min1.png,min2.png,min3.png,min4.png,allBlank.png,,,,['num_0'],,,,,,0,3,3,3,,,,,,,,,['num_0'],4,0.0467942564101,1,['num_0'],0,[0.4661485128208369],,2018_May_26_1207,60.2750769048,sequenceLearningTask,001,077,
min1.png,min2.png,min3.png,min4.png,allBlank.png,,,,['num_7'],,,,,,0,4,4,4,,,,,,,,,['num_7'],5,0.0478781538459,1,['num_7'],0,[0.462529641025867],,2018_May_26_1207,60.2750769048,sequenceLearningTask,001,077,
min1.png,min2.png,min3.png,min4.png,allBlank.png,,,,['num_1'],,,,,,0,4,4,4,,,,,,,,,['num_1'],5,0.0483946666673,1,['num_1'],0,[0.4968049230765246],,2018_May_26_1207,60.2750769048,sequenceLearningTask,001,077,
min1.png,min2.png,min3.png,min4.png,allBlank.png,,,,['num_4'],,,,,,0,4,4,4,,,,,,,,,['num_4'],5,0.0508869743589,1,['num_4'],0,[0.4100664615380083],,2018_May_26_1207,60.2750769048,sequenceLearningTask,001,077,
min1.png,min2.png,min3.png,min4.png,allBlank.png,,,,['num_0'],,,,,,0,4,4,4,,,,,,,,,['num_0'],5,0.0555405128207,1,['num_0'],0,[0.2894408205129366],,2018_May_26_1207,60.2750769048,sequenceLearningTask,001,077,
min1.png,min2.png,min3.png,min4.png,allBlank.png,,,,['num_0'],,,,,,0,4,4,4,,,,,,,,,['num_0'],5,0.059521230769,0,"['num_1', 'num_1', 'num_0']",0,"[0.501693128205261, 0.8674949743590332, 1.201231179487877]",,2018_May_26_1207,60.2750769048,sequenceLearningTask,001,077,
min1.png,min2.png,min3.png,min4.png,allBlank.png,,,,['num_4'],,,,,,0,4,4,4,,,,,,,,,['num_4'],5,0.0559142564107,1,['num_4'],0,[1.3221042051281984],,2018_May_26_1207,60.2750769048,sequenceLearningTask,001,077,
min1.png,min2.png,min3.png,min4.png,allBlank.png,,,,['num_1'],,,,,,0,4,4,4,,,,,,,,,['num_1'],5,0.0599105641022,1,['num_1'],0,[0.9012008205127131],,2018_May_26_1207,60.2750769048,sequenceLearningTask,001,077,
min1.png,min2.png,min3.png,min4.png,allBlank.png,,,,['num_0'],,,,,,0,4,4,4,,,,,,,,,['num_0'],5,0.061992615385,1,['num_0'],0,[0.3994371282051361],,2018_May_26_1207,60.2750769048,sequenceLearningTask,001,077,
min1.png,min2.png,min3.png,min4.png,allBlank.png,,,,['num_7'],,,,,,0,5,5,5,,,,,,,,,['num_7'],6,0.0494334358973,1,['num_7'],0,[0.41081723076877097],,2018_May_26_1207,60.2750769048,sequenceLearningTask,001,077,
min1.png,min2.png,min3.png,min4.png,allBlank.png,,,,['num_1'],,,,,,0,5,5,5,,,,,,,,,['num_1'],6,0.0518916923074,1,['num_1'],0,[0.40986830769270455],,2018_May_26_1207,60.2750769048,sequenceLearningTask,001,077,
min1.png,min2.png,min3.png,min4.png,allBlank.png,,,,['num_4'],,,,,,0,5,5,5,,,,,,,,,['num_4'],6,0.0483179487182,1,['num_4'],0,[0.5300237948722497],,2018_May_26_1207,60.2750769048,sequenceLearningTask,001,077,
min1.png,min2.png,min3.png,min4.png,allBlank.png,,,,['num_0'],,,,,,0,5,5,5,,,,,,,,,['num_0'],6,0.0493460512816,1,['num_0'],0,[0.5453780512825688],,2018_May_26_1207,60.2750769048,sequenceLearningTask,001,077,
min1.png,min2.png,min3.png,min4.png,allBlank.png,,,,['num_0'],,,,,,0,5,5,5,,,,,,,,,['num_0'],6,0.0562363076924,0,"['num_1', 'num_0']",0,"[0.4726404102566448, 0.5225911794868807]",,2018_May_26_1207,60.2750769048,sequenceLearningTask,001,077,
min1.png,min2.png,min3.png,min4.png,allBlank.png,,,,['num_4'],,,,,,0,5,5,5,,,,,,,,,['num_4'],6,0.0563934358979,0,"['num_0', 'num_4']",0,"[0.00030728205183550017, 1.2377944615391243]",,2018_May_26_1207,60.2750769048,sequenceLearningTask,001,077,
min1.png,min2.png,min3.png,min4.png,allBlank.png,,,,['num_1'],,,,,,0,5,5,5,,,,,,,,,['num_1'],6,0.0570260512823,1,['num_1'],0,[0.671098666666694],,2018_May_26_1207,60.2750769048,sequenceLearningTask,001,077,
min1.png,min2.png,min3.png,min4.png,allBlank.png,,,,['num_0'],,,,,,0,5,5,5,,,,,,,,,['num_0'],6,0.05976451282,1,['num_0'],0,[0.3186629743595404],,2018_May_26_1207,60.2750769048,sequenceLearningTask,001,077,
min1.png,min2.png,min3.png,min4.png,allBlank.png,,,,['num_7'],,,,,,0,6,6,6,,,,,,,,,['num_7'],7,0.0590818461542,1,['num_7'],0,[0.6178715897431175],,2018_May_26_1207,60.2750769048,sequenceLearningTask,001,077,
min1.png,min2.png,min3.png,min4.png,allBlank.png,,,,['num_1'],,,,,,0,6,6,6,,,,,,,,,['num_1'],7,0.0583819487174,1,['num_1'],0,[0.5188603076921936],,2018_May_26_1207,60.2750769048,sequenceLearningTask,001,077,
min1.png,min2.png,min3.png,min4.png,allBlank.png,,,,['num_4'],,,,,,0,6,6,6,,,,,,,,,['num_4'],7,0.0568705641026,1,['num_4'],0,[0.4048430769234983],,2018_May_26_1207,60.2750769048,sequenceLearningTask,001,077,
min1.png,min2.png,min3.png,min4.png,allBlank.png,,,,['num_0'],,,,,,0,6,6,6,,,,,,,,,['num_0'],7,0.0607753846161,1,['num_0'],0,[0.3494629743590849],,2018_May_26_1207,60.2750769048,sequenceLearningTask,001,077,
min1.png,min2.png,min3.png,min4.png,allBlank.png,,,,['num_0'],,,,,,0,6,6,6,,,,,,,,,['num_0'],7,0.0610658461546,1,['num_0'],0,[0.4491286153843248],,2018_May_26_1207,60.2750769048,sequenceLearningTask,001,077,
min1.png,min2.png,min3.png,min4.png,allBlank.png,,,,['num_4'],,,,,,0,6,6,6,,,,,,,,,['num_4'],7,0.0603872820511,1,['num_4'],0,[0.6004365128201243],,2018_May_26_1207,60.2750769048,sequenceLearningTask,001,077,
min1.png,min2.png,min3.png,min4.png,allBlank.png,,,,['num_1'],,,,,,0,6,6,6,,,,,,,,,['num_1'],7,0.0514034871794,1,['num_1'],0,[0.4601456410255196],,2018_May_26_1207,60.2750769048,sequenceLearningTask,001,077,
min1.png,min2.png,min3.png,min4.png,allBlank.png,,,,['num_0'],,,,,,0,6,6,6,,,,,,,,,['num_0'],7,0.0491089230763,1,['num_0'],0,[0.34641025641030865],,2018_May_26_1207,60.2750769048,sequenceLearningTask,001,077,
min1.png,min2.png,min3.png,min4.png,allBlank.png,,,,['num_7'],,,,,,0,7,7,7,,,,,,,,,['num_7'],8,0.0491249230772,1,['num_7'],0,[0.3784709743595158],,2018_May_26_1207,60.2750769048,sequenceLearningTask,001,077,
min1.png,min2.png,min3.png,min4.png,allBlank.png,,,,['num_1'],,,,,,0,7,7,7,,,,,,,,,['num_1'],8,0.0591048205124,1,['num_1'],0,[0.4352274871798727],,2018_May_26_1207,60.2750769048,sequenceLearningTask,001,077,
min1.png,min2.png,min3.png,min4.png,allBlank.png,,,,['num_4'],,,,,,0,7,7,7,,,,,,,,,['num_4'],8,0.063179076923,1,['num_4'],0,[0.3314063589741636],,2018_May_26_1207,60.2750769048,sequenceLearningTask,001,077,
min1.png,min2.png,min3.png,min4.png,allBlank.png,,,,['num_0'],,,,,,0,7,7,7,,,,,,,,,['num_0'],8,0.0571766153853,1,['num_0'],0,[0.2704808205126028],,2018_May_26_1207,60.2750769048,sequenceLearningTask,001,077,
min1.png,min2.png,min3.png,min4.png,allBlank.png,,,,['num_0'],,,,,,0,7,7,7,,,,,,,,,['num_0'],8,0.050343794871,1,['num_0'],0,[1.444598153845618],,2018_May_26_1207,60.2750769048,sequenceLearningTask,001,077,
min1.png,min2.png,min3.png,min4.png,allBlank.png,,,,['num_4'],,,,,,0,7,7,7,,,,,,,,,['num_4'],8,0.0525440000001,1,['num_4'],0,[1.0098157948714288],,2018_May_26_1207,60.2750769048,sequenceLearningTask,001,077,
min1.png,min2.png,min3.png,min4.png,allBlank.png,,,,['num_1'],,,,,,0,7,7,7,,,,,,,,,['num_1'],8,0.0584923076922,1,['num_1'],0,[0.3361481025649482],,2018_May_26_1207,60.2750769048,sequenceLearningTask,001,077,
min1.png,min2.png,min3.png,min4.png,allBlank.png,,,,['num_0'],,,,,,0,7,7,7,,,,,,,,,['num_0'],8,0.0549825641028,1,['num_0'],0,[0.3229874871794891],,2018_May_26_1207,60.2750769048,sequenceLearningTask,001,077,
min1.png,min2.png,min3.png,min4.png,allBlank.png,,,,['num_7'],,,,,,0,8,8,8,,,,,,,,,['num_7'],9,0.0540049230767,1,['num_7'],0,[0.30451651282055536],,2018_May_26_1207,60.2750769048,sequenceLearningTask,001,077,
min1.png,min2.png,min3.png,min4.png,allBlank.png,,,,['num_1'],,,,,,0,8,8,8,,,,,,,,,['num_1'],9,0.0486408205134,1,['num_1'],0,[0.4295848205129005],,2018_May_26_1207,60.2750769048,sequenceLearningTask,001,077,
min1.png,min2.png,min3.png,min4.png,allBlank.png,,,,['num_4'],,,,,,0,8,8,8,,,,,,,,,['num_4'],9,0.0522748717949,1,['num_4'],0,[0.2755942564108409],,2018_May_26_1207,60.2750769048,sequenceLearningTask,001,077,
min1.png,min2.png,min3.png,min4.png,allBlank.png,,,,['num_0'],,,,,,0,8,8,8,,,,,,,,,['num_0'],9,0.0530834871797,1,['num_0'],0,[0.27528164102568553],,2018_May_26_1207,60.2750769048,sequenceLearningTask,001,077,
min1.png,min2.png,min3.png,min4.png,allBlank.png,,,,['num_0'],,,,,,0,8,8,8,,,,,,,,,['num_0'],9,0.0527446153847,0,"['num_7', 'num_0']",0,"[0.27529641025648743, 0.6417903589735943]",,2018_May_26_1207,60.2750769048,sequenceLearningTask,001,077,
min1.png,min2.png,min3.png,min4.png,allBlank.png,,,,['num_4'],,,,,,0,8,8,8,,,,,,,,,['num_4'],9,0.0581809230771,1,['num_4'],0,[0.7359511794875289],,2018_May_26_1207,60.2750769048,sequenceLearningTask,001,077,
min1.png,min2.png,min3.png,min4.png,allBlank.png,,,,['num_1'],,,,,,0,8,8,8,,,,,,,,,['num_1'],9,0.0550350769236,1,['num_1'],0,[0.2894112820513328],,2018_May_26_1207,60.2750769048,sequenceLearningTask,001,077,
min1.png,min2.png,min3.png,min4.png,allBlank.png,,,,['num_0'],,,,,,0,8,8,8,,,,,,,,,['num_0'],9,0.0590982564108,0,"['num_4', 'num_0']",0,"[0.33579569230823836, 0.5687142564102032]",,2018_May_26_1207,60.2750769048,sequenceLearningTask,001,077,
min1.png,min2.png,min3.png,min4.png,allBlank.png,,,,['num_7'],,,,,,0,9,9,9,,,,,,,,,['num_7'],10,0.0507360000001,1,['num_7'],0,[0.44175712820560875],,2018_May_26_1207,60.2750769048,sequenceLearningTask,001,077,
min1.png,min2.png,min3.png,min4.png,allBlank.png,,,,['num_1'],,,,,,0,9,9,9,,,,,,,,,['num_1'],10,0.0521144615386,1,['num_1'],0,[0.3255487179485499],,2018_May_26_1207,60.2750769048,sequenceLearningTask,001,077,
min1.png,min2.png,min3.png,min4.png,allBlank.png,,,,['num_4'],,,,,,0,9,9,9,,,,,,,,,['num_4'],10,0.0508480000008,1,['num_4'],0,[0.3097185641026954],,2018_May_26_1207,60.2750769048,sequenceLearningTask,001,077,
min1.png,min2.png,min3.png,min4.png,allBlank.png,,,,['num_0'],,,,,,0,9,9,9,,,,,,,,,['num_0'],10,0.0444336410255,1,['num_0'],0,[0.23342728205079766],,2018_May_26_1207,60.2750769048,sequenceLearningTask,001,077,
min1.png,min2.png,min3.png,min4.png,allBlank.png,,,,['num_0'],,,,,,0,9,9,9,,,,,,,,,['num_0'],10,0.0610428717955,1,['num_0'],0,[0.4320664615388523],,2018_May_26_1207,60.2750769048,sequenceLearningTask,001,077,
min1.png,min2.png,min3.png,min4.png,allBlank.png,,,,['num_4'],,,,,,0,9,9,9,,,,,,,,,['num_4'],10,0.0602289230765,1,['num_4'],0,[0.4673546666663242],,2018_May_26_1207,60.2750769048,sequenceLearningTask,001,077,
min1.png,min2.png,min3.png,min4.png,allBlank.png,,,,['num_1'],,,,,,0,9,9,9,,,,,,,,,['num_1'],10,0.0519979487181,1,['num_1'],0,[0.2756475897431301],,2018_May_26_1207,60.2750769048,sequenceLearningTask,001,077,
min1.png,min2.png,min3.png,min4.png,allBlank.png,,,,['num_0'],,,,,,0,9,9,9,,,,,,,,,['num_0'],10,0.050950564103,1,['num_0'],0,[0.4265398974357595],,2018_May_26_1207,60.2750769048,sequenceLearningTask,001,077,
min1.png,min2.png,min3.png,min4.png,images/allBlank.png,images/min4.png,'num_0',"['num_7', 'num_4', 'num_1', 'num_0']",['num_0'],num_0,,,,,0,9,9,9,0,0,0,3,,,,,['num_0'],,0.045410871795,1,['num_0'],0,[0.6139302564097306],1,2018_May_26_1207,60.2750769048,sequenceLearningTask,001,077,
min1.png,min2.png,min3.png,min4.png,images/allBlank.png,images/min1.png,'num_7',"['num_7', 'num_4', 'num_1', 'num_0']",['num_7'],num_7,,,,,0,9,9,9,0,1,1,0,,,,,['num_7'],,0.0629452307694,1,['num_7'],0,[0.4447495384611102],1,2018_May_26_1207,60.2750769048,sequenceLearningTask,001,077,
min1.png,min2.png,min3.png,min4.png,images/allBlank.png,images/min2.png,'num_4',"['num_7', 'num_4', 'num_1', 'num_0']",['num_4'],num_4,,,,,0,9,9,9,0,2,2,1,,,,,['num_4'],,0.0530609230773,1,['num_4'],0,[0.4056160000000091],1,2018_May_26_1207,60.2750769048,sequenceLearningTask,001,077,
min1.png,min2.png,min3.png,min4.png,images/allBlank.png,images/min3.png,'num_1',"['num_7', 'num_4', 'num_1', 'num_0']",['num_1'],num_1,,,,,0,9,9,9,0,3,3,2,,,,,['num_1'],,0.0581956923079,1,['num_1'],0,[0.25094851282028685],1,2018_May_26_1207,60.2750769048,sequenceLearningTask,001,077,
min1.png,min2.png,min3.png,min4.png,images/allBlank.png,images/min3.png,'num_1',"['num_7', 'num_4', 'num_1', 'num_0']",['num_1'],num_1,,,,,0,9,9,9,1,0,4,2,,,,,['num_1'],,0.0604028717953,1,['num_1'],0,[0.4806744615389107],1,2018_May_26_1207,60.2750769048,sequenceLearningTask,001,077,
min1.png,min2.png,min3.png,min4.png,images/allBlank.png,images/min4.png,'num_0',"['num_7', 'num_4', 'num_1', 'num_0']",['num_0'],num_0,,,,,0,9,9,9,1,1,5,3,,,,,['num_0'],,0.0532160000002,1,['num_0'],0,[0.37294728205051797],1,2018_May_26_1207,60.2750769048,sequenceLearningTask,001,077,
min1.png,min2.png,min3.png,min4.png,images/allBlank.png,images/min2.png,'num_4',"['num_7', 'num_4', 'num_1', 'num_0']",['num_4'],num_4,,,,,0,9,9,9,1,2,6,1,,,,,['num_4'],,0.0529161025643,1,['num_4'],0,[0.6392377435895469],1,2018_May_26_1207,60.2750769048,sequenceLearningTask,001,077,
min1.png,min2.png,min3.png,min4.png,images/allBlank.png,images/min1.png,'num_7',"['num_7', 'num_4', 'num_1', 'num_0']",['num_7'],num_7,,,,,0,9,9,9,1,3,7,0,,,,,['num_7'],,0.0489001025644,1,['num_7'],0,[0.41101620512836234],1,2018_May_26_1207,60.2750769048,sequenceLearningTask,001,077,
min1.png,min2.png,min3.png,min4.png,images/allBlank.png,images/min2.png,'num_4',"['num_7', 'num_4', 'num_1', 'num_0']",['num_4'],num_4,,,,,0,9,9,9,2,0,8,1,,,,,['num_4'],,0.0514449230768,0,"['num_7', 'num_4']",0,"[0.4741095384615619, 0.6580947692309564]",0,2018_May_26_1207,60.2750769048,sequenceLearningTask,001,077,
min1.png,min2.png,min3.png,min4.png,images/allBlank.png,images/min1.png,'num_7',"['num_7', 'num_4', 'num_1', 'num_0']",['num_7'],num_7,,,,,0,9,9,9,2,1,9,0,,,,,['num_7'],,0.0487831794871,1,['num_7'],0,[0.5939261538460414],1,2018_May_26_1207,60.2750769048,sequenceLearningTask,001,077,
min1.png,min2.png,min3.png,min4.png,images/allBlank.png,images/min3.png,'num_1',"['num_7', 'num_4', 'num_1', 'num_0']",['num_1'],num_1,,,,,0,9,9,9,2,2,10,2,,,,,['num_1'],,0.0556644102562,0,"['num_4', 'num_1']",0,"[0.26937435897434625, 0.6348447179489085]",0,2018_May_26_1207,60.2750769048,sequenceLearningTask,001,077,
min1.png,min2.png,min3.png,min4.png,images/allBlank.png,images/min4.png,'num_0',"['num_7', 'num_4', 'num_1', 'num_0']",['num_0'],num_0,,,,,0,9,9,9,2,3,11,3,,,,,['num_0'],,0.0539150769227,1,['num_0'],0,[0.43727425641009177],1,2018_May_26_1207,60.2750769048,sequenceLearningTask,001,077,
min1.png,min2.png,min3.png,min4.png,images/allBlank.png,images/min2.png,'num_4',"['num_7', 'num_4', 'num_1', 'num_0']",['num_4'],num_4,,,,,0,9,9,9,3,0,12,1,,,,,['num_4'],,0.0581292307688,1,['num_4'],0,[0.35099774358968716],1,2018_May_26_1207,60.2750769048,sequenceLearningTask,001,077,
min1.png,min2.png,min3.png,min4.png,images/allBlank.png,images/min1.png,'num_7',"['num_7', 'num_4', 'num_1', 'num_0']",['num_7'],num_7,,,,,0,9,9,9,3,1,13,0,,,,,['num_7'],,0.0634892307689,1,['num_7'],0,[0.40929189743565075],1,2018_May_26_1207,60.2750769048,sequenceLearningTask,001,077,
min1.png,min2.png,min3.png,min4.png,images/allBlank.png,images/min4.png,'num_0',"['num_7', 'num_4', 'num_1', 'num_0']",['num_0'],num_0,,,,,0,9,9,9,3,2,14,3,,,,,['num_0'],,0.0566941538464,0,"['num_1', 'num_0']",0,"[0.3856890256411134, 0.4188590769226721]",0,2018_May_26_1207,60.2750769048,sequenceLearningTask,001,077,
min1.png,min2.png,min3.png,min4.png,images/allBlank.png,images/min3.png,'num_1',"['num_7', 'num_4', 'num_1', 'num_0']",['num_1'],num_1,,,,,0,9,9,9,3,3,15,2,,,,,['num_1'],,0.052019692308,1,['num_1'],0,[0.4738551794871455],1,2018_May_26_1207,60.2750769048,sequenceLearningTask,001,077,
min1.png,min2.png,min3.png,min4.png,images/allBlank.png,images/min3.png,'num_1',"['num_7', 'num_4', 'num_1', 'num_0']",['num_1'],num_1,,,,,0,9,9,9,4,0,16,2,,,,,['num_1'],,0.0533821538465,1,['num_1'],0,[0.4396557948712143],1,2018_May_26_1207,60.2750769048,sequenceLearningTask,001,077,
min1.png,min2.png,min3.png,min4.png,images/allBlank.png,images/min4.png,'num_0',"['num_7', 'num_4', 'num_1', 'num_0']",['num_0'],num_0,,,,,0,9,9,9,4,1,17,3,,,,,['num_0'],,0.064043897436,1,['num_0'],0,[0.4279692307700316],1,2018_May_26_1207,60.2750769048,sequenceLearningTask,001,077,
min1.png,min2.png,min3.png,min4.png,images/allBlank.png,images/min1.png,'num_7',"['num_7', 'num_4', 'num_1', 'num_0']",['num_7'],num_7,,,,,0,9,9,9,4,2,18,0,,,,,['num_7'],,0.0529919999999,0,"['num_0', 'num_4', 'num_7']",0,"[0.0002371282043895917, 0.389290666666966, 0.7229316923076112]",0,2018_May_26_1207,60.2750769048,sequenceLearningTask,001,077,
min1.png,min2.png,min3.png,min4.png,images/allBlank.png,images/min2.png,'num_4',"['num_7', 'num_4', 'num_1', 'num_0']",['num_4'],num_4,,,,,0,9,9,9,4,3,19,1,,,,,['num_4'],,0.0597280000002,1,['num_4'],0,[0.5825567179490463],1,2018_May_26_1207,60.2750769048,sequenceLearningTask,001,077,
min1.png,min2.png,min3.png,min4.png,images/allBlank.png,images/min3.png,'num_1',"['num_7', 'num_4', 'num_1', 'num_0']",['num_1'],num_1,,,,,0,9,9,9,5,0,20,2,,,,,['num_1'],,0.0569641025641,1,['num_1'],0,[0.45242584615334636],1,2018_May_26_1207,60.2750769048,sequenceLearningTask,001,077,
min1.png,min2.png,min3.png,min4.png,images/allBlank.png,images/min4.png,'num_0',"['num_7', 'num_4', 'num_1', 'num_0']",['num_0'],num_0,,,,,0,9,9,9,5,1,21,3,,,,,['num_0'],,0.0561353846151,1,['num_0'],0,[0.3371355897434114],1,2018_May_26_1207,60.2750769048,sequenceLearningTask,001,077,
min1.png,min2.png,min3.png,min4.png,images/allBlank.png,images/min2.png,'num_4',"['num_7', 'num_4', 'num_1', 'num_0']",['num_4'],num_4,,,,,0,9,9,9,5,2,22,1,,,,,['num_4'],,0.0616935384614,1,['num_4'],0,[0.58001969230736],1,2018_May_26_1207,60.2750769048,sequenceLearningTask,001,077,
min1.png,min2.png,min3.png,min4.png,images/allBlank.png,images/min1.png,'num_7',"['num_7', 'num_4', 'num_1', 'num_0']",['num_7'],num_7,,,,,0,9,9,9,5,3,23,0,,,,,['num_7'],,0.0519634871789,1,['num_7'],0,[0.6234551794868821],1,2018_May_26_1207,60.2750769048,sequenceLearningTask,001,077,
min1.png,min2.png,min3.png,min4.png,images/allBlank.png,images/min2.png,'num_4',"['num_7', 'num_4', 'num_1', 'num_0']",['num_4'],num_4,,,,,0,9,9,9,6,0,24,1,,,,,['num_4'],,0.0586625641026,0,"['num_7', 'num_4']",0,"[0.5001641025646677, 0.7173505641030715]",0,2018_May_26_1207,60.2750769048,sequenceLearningTask,001,077,
min1.png,min2.png,min3.png,min4.png,images/allBlank.png,images/min3.png,'num_1',"['num_7', 'num_4', 'num_1', 'num_0']",['num_1'],num_1,,,,,0,9,9,9,6,1,25,2,,,,,['num_1'],,0.05871425641,1,['num_1'],0,[0.4343770256409698],1,2018_May_26_1207,60.2750769048,sequenceLearningTask,001,077,
min1.png,min2.png,min3.png,min4.png,images/allBlank.png,images/min4.png,'num_0',"['num_7', 'num_4', 'num_1', 'num_0']",['num_0'],num_0,,,,,0,9,9,9,6,2,26,3,,,,,['num_0'],,0.0606621538454,1,['num_0'],0,[0.3645567179491991],1,2018_May_26_1207,60.2750769048,sequenceLearningTask,001,077,
min1.png,min2.png,min3.png,min4.png,images/allBlank.png,images/min1.png,'num_7',"['num_7', 'num_4', 'num_1', 'num_0']",['num_7'],num_7,,,,,0,9,9,9,6,3,27,0,,,,,['num_7'],,0.0544008205125,1,['num_7'],0,[0.45511630769215117],1,2018_May_26_1207,60.2750769048,sequenceLearningTask,001,077,
min1.png,min2.png,min3.png,min4.png,images/allBlank.png,images/min3.png,'num_1',"['num_7', 'num_4', 'num_1', 'num_0']",['num_1'],num_1,,,,,0,9,9,9,7,0,28,2,,,,,['num_1'],,0.0522953846157,1,['num_1'],0,[0.5071938461542231],1,2018_May_26_1207,60.2750769048,sequenceLearningTask,001,077,
min1.png,min2.png,min3.png,min4.png,images/allBlank.png,images/min4.png,'num_0',"['num_7', 'num_4', 'num_1', 'num_0']",['num_0'],num_0,,,,,0,9,9,9,7,1,29,3,,,,,['num_0'],,0.0508500512824,1,['num_0'],0,[0.49166851282097923],1,2018_May_26_1207,60.2750769048,sequenceLearningTask,001,077,
min1.png,min2.png,min3.png,min4.png,images/allBlank.png,images/min1.png,'num_7',"['num_7', 'num_4', 'num_1', 'num_0']",['num_7'],num_7,,,,,0,9,9,9,7,2,30,0,,,,,['num_7'],,0.0620804102564,1,['num_7'],0,[0.4974182564101284],1,2018_May_26_1207,60.2750769048,sequenceLearningTask,001,077,
min1.png,min2.png,min3.png,min4.png,images/allBlank.png,images/min2.png,'num_4',"['num_7', 'num_4', 'num_1', 'num_0']",['num_4'],num_4,,,,,0,9,9,9,7,3,31,1,,,,,['num_4'],,0.0510687179485,1,['num_4'],0,[0.5754084102563866],1,2018_May_26_1207,60.2750769048,sequenceLearningTask,001,077,
min1.png,min2.png,min3.png,min4.png,images/allBlank.png,images/min1.png,'num_7',"['num_7', 'num_4', 'num_1', 'num_0']",['num_7'],num_7,,,,,0,9,9,9,8,0,32,0,,,,,['num_7'],,0.0548110769232,1,['num_7'],0,[0.5376541538462334],1,2018_May_26_1207,60.2750769048,sequenceLearningTask,001,077,
min1.png,min2.png,min3.png,min4.png,images/allBlank.png,images/min3.png,'num_1',"['num_7', 'num_4', 'num_1', 'num_0']",['num_1'],num_1,,,,,0,9,9,9,8,1,33,2,,,,,['num_1'],,0.0590030769235,1,['num_1'],0,[0.582987897435487],1,2018_May_26_1207,60.2750769048,sequenceLearningTask,001,077,
min1.png,min2.png,min3.png,min4.png,images/allBlank.png,images/min4.png,'num_0',"['num_7', 'num_4', 'num_1', 'num_0']",['num_0'],num_0,,,,,0,9,9,9,8,2,34,3,,,,,['num_0'],,0.0548820512822,1,['num_0'],0,[0.3551827692308507],1,2018_May_26_1207,60.2750769048,sequenceLearningTask,001,077,
min1.png,min2.png,min3.png,min4.png,images/allBlank.png,images/min2.png,'num_4',"['num_7', 'num_4', 'num_1', 'num_0']",['num_4'],num_4,,,,,0,9,9,9,8,3,35,1,,,,,['num_4'],,0.0623745641024,1,['num_4'],0,[0.49475241025629657],1,2018_May_26_1207,60.2750769048,sequenceLearningTask,001,077,
min1.png,min2.png,min3.png,min4.png,images/allBlank.png,images/min1.png,'num_7',"['num_7', 'num_4', 'num_1', 'num_0']",['num_7'],num_7,,,,,0,9,9,9,9,0,36,0,,,,,['num_7'],,0.0545197948713,1,['num_7'],0,[0.30317497435862606],1,2018_May_26_1207,60.2750769048,sequenceLearningTask,001,077,
min1.png,min2.png,min3.png,min4.png,images/allBlank.png,images/min3.png,'num_1',"['num_7', 'num_4', 'num_1', 'num_0']",['num_1'],num_1,,,,,0,9,9,9,9,1,37,2,,,,,['num_1'],,0.0578170256413,1,['num_1'],0,[0.2847138461538634],1,2018_May_26_1207,60.2750769048,sequenceLearningTask,001,077,
min1.png,min2.png,min3.png,min4.png,images/allBlank.png,images/min2.png,'num_4',"['num_7', 'num_4', 'num_1', 'num_0']",['num_4'],num_4,,,,,0,9,9,9,9,2,38,1,,,,,['num_4'],,0.0557074871795,0,"['num_7', 'num_4']",0,"[0.2875183589749213, 0.6041595897440857]",0,2018_May_26_1207,60.2750769048,sequenceLearningTask,001,077,
min1.png,min2.png,min3.png,min4.png,images/allBlank.png,images/min4.png,'num_0',"['num_7', 'num_4', 'num_1', 'num_0']",['num_0'],num_0,,,,,0,9,9,9,9,3,39,3,,,,,['num_0'],,0.0567072820513,1,['num_0'],0,[0.5195277948714647],1,2018_May_26_1207,60.2750769048,sequenceLearningTask,001,077,
min1.png,min2.png,min3.png,min4.png,images/allBlank.png,images/min2.png,'num_4',"['num_7', 'num_4', 'num_1', 'num_0']",['num_4'],num_4,,,,,0,9,9,9,10,0,40,1,,,,,['num_4'],,0.0575294358978,1,['num_4'],0,[0.3665386666662016],1,2018_May_26_1207,60.2750769048,sequenceLearningTask,001,077,
min1.png,min2.png,min3.png,min4.png,images/allBlank.png,images/min4.png,'num_0',"['num_7', 'num_4', 'num_1', 'num_0']",['num_0'],num_0,,,,,0,9,9,9,10,1,41,3,,,,,['num_0'],,0.0517883076927,1,['num_0'],0,[0.47429128205203597],1,2018_May_26_1207,60.2750769048,sequenceLearningTask,001,077,
min1.png,min2.png,min3.png,min4.png,images/allBlank.png,images/min1.png,'num_7',"['num_7', 'num_4', 'num_1', 'num_0']",['num_7'],num_7,,,,,0,9,9,9,10,2,42,0,,,,,['num_7'],,0.0576824615391,1,['num_7'],0,[0.43511712820509274],1,2018_May_26_1207,60.2750769048,sequenceLearningTask,001,077,
min1.png,min2.png,min3.png,min4.png,images/allBlank.png,images/min3.png,'num_1',"['num_7', 'num_4', 'num_1', 'num_0']",['num_1'],num_1,,,,,0,9,9,9,10,3,43,2,,,,,['num_1'],,0.0585969230769,1,['num_1'],0,[0.5831372307684433],1,2018_May_26_1207,60.2750769048,sequenceLearningTask,001,077,
min1.png,min2.png,min3.png,min4.png,images/allBlank.png,images/min4.png,'num_0',"['num_7', 'num_4', 'num_1', 'num_0']",['num_0'],num_0,,,,,0,9,9,9,11,0,44,3,,,,,['num_0'],,0.0495318974363,1,['num_0'],0,[0.4937624615386085],1,2018_May_26_1207,60.2750769048,sequenceLearningTask,001,077,
min1.png,min2.png,min3.png,min4.png,images/allBlank.png,images/min3.png,'num_1',"['num_7', 'num_4', 'num_1', 'num_0']",['num_1'],num_1,,,,,0,9,9,9,11,1,45,2,,,,,['num_1'],,0.057403076923,1,['num_1'],0,[0.5177936410254915],1,2018_May_26_1207,60.2750769048,sequenceLearningTask,001,077,
min1.png,min2.png,min3.png,min4.png,images/allBlank.png,images/min2.png,'num_4',"['num_7', 'num_4', 'num_1', 'num_0']",['num_4'],num_4,,,,,0,9,9,9,11,2,46,1,,,,,['num_4'],,0.0485107692302,0,"['num_7', 'num_4']",0,"[0.3446769230768041, 0.7944274871788366]",0,2018_May_26_1207,60.2750769048,sequenceLearningTask,001,077,
min1.png,min2.png,min3.png,min4.png,images/allBlank.png,images/min1.png,'num_7',"['num_7', 'num_4', 'num_1', 'num_0']",['num_7'],num_7,,,,,0,9,9,9,11,3,47,0,,,,,['num_7'],,0.059154461539,1,['num_7'],0,[0.41659979487212695],1,2018_May_26_1207,60.2750769048,sequenceLearningTask,001,077,
min1.png,min2.png,min3.png,min4.png,images/allBlank.png,images/min2.png,'num_4',"['num_7', 'num_4', 'num_1', 'num_0']",['num_4'],num_4,,,,,0,9,9,9,12,0,48,1,,,,,['num_4'],,0.0598268717949,1,['num_4'],0,[0.48155774358929193],1,2018_May_26_1207,60.2750769048,sequenceLearningTask,001,077,
min1.png,min2.png,min3.png,min4.png,images/allBlank.png,images/min1.png,'num_7',"['num_7', 'num_4', 'num_1', 'num_0']",['num_7'],num_7,,,,,0,9,9,9,12,1,49,0,,,,,['num_7'],,0.0576964102565,0,"['num_4', 'num_7']",0,"[0.00017517948708700715, 0.49961435897512274]",0,2018_May_26_1207,60.2750769048,sequenceLearningTask,001,077,
min1.png,min2.png,min3.png,min4.png,images/allBlank.png,images/min3.png,'num_1',"['num_7', 'num_4', 'num_1', 'num_0']",['num_1'],num_1,,,,,0,9,9,9,12,2,50,2,,,,,['num_1'],,0.0539380512819,1,['num_1'],0,[0.32222030769207777],1,2018_May_26_1207,60.2750769048,sequenceLearningTask,001,077,
min1.png,min2.png,min3.png,min4.png,images/allBlank.png,images/min4.png,'num_0',"['num_7', 'num_4', 'num_1', 'num_0']",['num_0'],num_0,,,,,0,9,9,9,12,3,51,3,,,,,['num_0'],,0.0586194871794,1,['num_0'],0,[0.36711712820488174],1,2018_May_26_1207,60.2750769048,sequenceLearningTask,001,077,
min1.png,min2.png,min3.png,min4.png,images/allBlank.png,images/min3.png,'num_1',"['num_7', 'num_4', 'num_1', 'num_0']",['num_1'],num_1,,,,,0,9,9,9,13,0,52,2,,,,,['num_1'],,0.0469682051289,0,"['num_4', 'num_1']",0,"[0.4965181538464094, 0.7627003076922847]",0,2018_May_26_1207,60.2750769048,sequenceLearningTask,001,077,
min1.png,min2.png,min3.png,min4.png,images/allBlank.png,images/min4.png,'num_0',"['num_7', 'num_4', 'num_1', 'num_0']",['num_0'],num_0,,,,,0,9,9,9,13,1,53,3,,,,,['num_0'],,0.0587634871799,1,['num_0'],0,[0.6173398974351585],1,2018_May_26_1207,60.2750769048,sequenceLearningTask,001,077,
min1.png,min2.png,min3.png,min4.png,images/allBlank.png,images/min2.png,'num_4',"['num_7', 'num_4', 'num_1', 'num_0']",['num_4'],num_4,,,,,0,9,9,9,13,2,54,1,,,,,['num_4'],,0.0541119999998,1,['num_4'],0,[0.7221152820511634],1,2018_May_26_1207,60.2750769048,sequenceLearningTask,001,077,
min1.png,min2.png,min3.png,min4.png,images/allBlank.png,images/min1.png,'num_7',"['num_7', 'num_4', 'num_1', 'num_0']",['num_7'],num_7,,,,,0,9,9,9,13,3,55,0,,,,,['num_7'],,0.0520402051279,1,['num_7'],0,[0.573764512820162],1,2018_May_26_1207,60.2750769048,sequenceLearningTask,001,077,
min1.png,min2.png,min3.png,min4.png,images/allBlank.png,images/min4.png,'num_0',"['num_7', 'num_4', 'num_1', 'num_0']",['num_0'],num_0,,,,,0,9,9,9,14,0,56,3,,,,,['num_0'],,0.0503302564102,0,"['num_1', 'num_1', 'num_0', 'num_0']",0,"[0.390777846153469, 0.6243458461540285, 1.1073599999999715]",0,2018_May_26_1207,60.2750769048,sequenceLearningTask,001,077,
min1.png,min2.png,min3.png,min4.png,images/allBlank.png,images/min3.png,'num_1',"['num_7', 'num_4', 'num_1', 'num_0']",['num_1'],num_1,,,,,0,9,9,9,14,1,57,2,,,,,['num_1'],,0.0582244102561,1,['num_1'],0,[0.5182203076919905],1,2018_May_26_1207,60.2750769048,sequenceLearningTask,001,077,
min1.png,min2.png,min3.png,min4.png,images/allBlank.png,images/min2.png,'num_4',"['num_7', 'num_4', 'num_1', 'num_0']",['num_4'],num_4,,,,,0,9,9,9,14,2,58,1,,,,,['num_4'],,0.0585817435895,1,['num_4'],0,[0.5669280000001891],1,2018_May_26_1207,60.2750769048,sequenceLearningTask,001,077,
min1.png,min2.png,min3.png,min4.png,images/allBlank.png,images/min1.png,'num_7',"['num_7', 'num_4', 'num_1', 'num_0']",['num_7'],num_7,,,,,0,9,9,9,14,3,59,0,,,,,['num_7'],,0.0500910769233,1,['num_7'],0,[0.3600488205129295],1,2018_May_26_1207,60.2750769048,sequenceLearningTask,001,077,
min1.png,min2.png,min3.png,min4.png,images/allBlank.png,images/min4.png,'num_0',"['num_7', 'num_4', 'num_1', 'num_0']",['num_0'],num_0,,,,,0,9,9,9,15,0,60,3,,,,,['num_0'],,0.0566002051282,1,['num_0'],0,[0.335418666667465],1,2018_May_26_1207,60.2750769048,sequenceLearningTask,001,077,
min1.png,min2.png,min3.png,min4.png,images/allBlank.png,images/min1.png,'num_7',"['num_7', 'num_4', 'num_1', 'num_0']",['num_7'],num_7,,,,,0,9,9,9,15,1,61,0,,,,,['num_7'],,0.0580976410256,1,['num_7'],0,[0.4488004102568084],1,2018_May_26_1207,60.2750769048,sequenceLearningTask,001,077,
min1.png,min2.png,min3.png,min4.png,images/allBlank.png,images/min2.png,'num_4',"['num_7', 'num_4', 'num_1', 'num_0']",['num_4'],num_4,,,,,0,9,9,9,15,2,62,1,,,,,['num_4'],,0.0553846153844,1,['num_4'],0,[0.6544274871794187],1,2018_May_26_1207,60.2750769048,sequenceLearningTask,001,077,
min1.png,min2.png,min3.png,min4.png,images/allBlank.png,images/min3.png,'num_1',"['num_7', 'num_4', 'num_1', 'num_0']",['num_1'],num_1,,,,,0,9,9,9,15,3,63,2,,,,,['num_1'],,0.0623860512824,1,['num_1'],0,[0.4636964102564889],1,2018_May_26_1207,60.2750769048,sequenceLearningTask,001,077,
min1.png,min2.png,min3.png,min4.png,images/allBlank.png,images/min1.png,'num_7',"['num_7', 'num_4', 'num_1', 'num_0']",['num_7'],num_7,,,,,0,9,9,9,16,0,64,0,,,,,['num_7'],,0.0553362051287,1,['num_7'],0,[0.5521161025644687],1,2018_May_26_1207,60.2750769048,sequenceLearningTask,001,077,
min1.png,min2.png,min3.png,min4.png,images/allBlank.png,images/min2.png,'num_4',"['num_7', 'num_4', 'num_1', 'num_0']",['num_4'],num_4,,,,,0,9,9,9,16,1,65,1,,,,,['num_4'],,0.0604701538459,1,['num_4'],0,[0.7492541538467776],1,2018_May_26_1207,60.2750769048,sequenceLearningTask,001,077,
min1.png,min2.png,min3.png,min4.png,images/allBlank.png,images/min4.png,'num_0',"['num_7', 'num_4', 'num_1', 'num_0']",['num_0'],num_0,,,,,0,9,9,9,16,2,66,3,,,,,['num_0'],,0.0523409230773,1,['num_0'],0,[0.5062038974356255],1,2018_May_26_1207,60.2750769048,sequenceLearningTask,001,077,
min1.png,min2.png,min3.png,min4.png,images/allBlank.png,images/min3.png,'num_1',"['num_7', 'num_4', 'num_1', 'num_0']",['num_1'],num_1,,,,,0,9,9,9,16,3,67,2,,,,,['num_1'],,0.0614244102562,1,['num_1'],0,[0.2969427692305544],1,2018_May_26_1207,60.2750769048,sequenceLearningTask,001,077,
min1.png,min2.png,min3.png,min4.png,images/allBlank.png,images/min1.png,'num_7',"['num_7', 'num_4', 'num_1', 'num_0']",['num_7'],num_7,,,,,0,9,9,9,17,0,68,0,,,,,['num_7'],,0.0540951794874,1,['num_7'],0,[0.5058182564098388],1,2018_May_26_1207,60.2750769048,sequenceLearningTask,001,077,
min1.png,min2.png,min3.png,min4.png,images/allBlank.png,images/min4.png,'num_0',"['num_7', 'num_4', 'num_1', 'num_0']",['num_0'],num_0,,,,,0,9,9,9,17,1,69,3,,,,,['num_0'],,0.0495655384611,1,['num_0'],0,[0.4590941538463085],1,2018_May_26_1207,60.2750769048,sequenceLearningTask,001,077,
min1.png,min2.png,min3.png,min4.png,images/allBlank.png,images/min2.png,'num_4',"['num_7', 'num_4', 'num_1', 'num_0']",['num_4'],num_4,,,,,0,9,9,9,17,2,70,1,,,,,['num_4'],,0.0544512820516,1,['num_4'],0,[0.40428594871809764],1,2018_May_26_1207,60.2750769048,sequenceLearningTask,001,077,
min1.png,min2.png,min3.png,min4.png,images/allBlank.png,images/min3.png,'num_1',"['num_7', 'num_4', 'num_1', 'num_0']",['num_1'],num_1,,,,,0,9,9,9,17,3,71,2,,,,,['num_1'],,0.0551540512815,1,['num_1'],0,[0.3537567179491816],1,2018_May_26_1207,60.2750769048,sequenceLearningTask,001,077,
min1.png,min2.png,min3.png,min4.png,images/allBlank.png,images/min1.png,'num_7',"['num_7', 'num_4', 'num_1', 'num_0']",['num_7'],num_7,,,,,0,9,9,9,18,0,72,0,,,,,['num_7'],,0.0559442051281,1,['num_7'],0,[0.7707852307694338],1,2018_May_26_1207,60.2750769048,sequenceLearningTask,001,077,
min1.png,min2.png,min3.png,min4.png,images/allBlank.png,images/min3.png,'num_1',"['num_7', 'num_4', 'num_1', 'num_0']",['num_1'],num_1,,,,,0,9,9,9,18,1,73,2,,,,,['num_1'],,0.0545965128204,1,['num_1'],0,[0.5049074871794801],1,2018_May_26_1207,60.2750769048,sequenceLearningTask,001,077,
min1.png,min2.png,min3.png,min4.png,images/allBlank.png,images/min4.png,'num_0',"['num_7', 'num_4', 'num_1', 'num_0']",['num_0'],num_0,,,,,0,9,9,9,18,2,74,3,,,,,['num_0'],,0.0573218461541,0,"['num_4', 'num_0']",0,"[0.1342264615386739, 0.6332077948718506]",0,2018_May_26_1207,60.2750769048,sequenceLearningTask,001,077,
min1.png,min2.png,min3.png,min4.png,images/allBlank.png,images/min2.png,'num_4',"['num_7', 'num_4', 'num_1', 'num_0']",['num_4'],num_4,,,,,0,9,9,9,18,3,75,1,,,,,['num_4'],,0.058611282052,1,['num_4'],0,[0.08357661538502725],1,2018_May_26_1207,60.2750769048,sequenceLearningTask,001,077,
min1.png,min2.png,min3.png,min4.png,images/allBlank.png,images/min4.png,'num_0',"['num_7', 'num_4', 'num_1', 'num_0']",['num_0'],num_0,,,,,0,9,9,9,19,0,76,3,,,,,['num_0'],,0.0569899487182,1,['num_0'],0,[0.351872410256874],1,2018_May_26_1207,60.2750769048,sequenceLearningTask,001,077,
min1.png,min2.png,min3.png,min4.png,images/allBlank.png,images/min3.png,'num_1',"['num_7', 'num_4', 'num_1', 'num_0']",['num_1'],num_1,,,,,0,9,9,9,19,1,77,2,,,,,['num_1'],,0.065960615384,1,['num_1'],0,[0.40803569230683934],1,2018_May_26_1207,60.2750769048,sequenceLearningTask,001,077,
min1.png,min2.png,min3.png,min4.png,images/allBlank.png,images/min1.png,'num_7',"['num_7', 'num_4', 'num_1', 'num_0']",['num_7'],num_7,,,,,0,9,9,9,19,2,78,0,,,,,['num_7'],,0.0517600000003,0,"['num_4', 'num_7']",0,"[0.3073472820515235, 0.5579158974360325]",0,2018_May_26_1207,60.2750769048,sequenceLearningTask,001,077,
min1.png,min2.png,min3.png,min4.png,images/allBlank.png,images/min2.png,'num_4',"['num_7', 'num_4', 'num_1', 'num_0']",['num_4'],num_4,,,,,0,9,9,9,19,3,79,1,,,,,['num_4'],,0.055693538462,1,['num_4'],0,[0.48745599999983824],1,2018_May_26_1207,60.2750769048,sequenceLearningTask,001,077,
min1.png,min2.png,min3.png,min4.png,allBlank.png,,,,['num_7'],,,,,,0,0,0,0,,,,,,,,,['num_7'],1,0.0419975384611,1,['num_7'],0,[0.7450367179490058],,2018_May_26_1207,60.2750769048,sequenceLearningTask,001,077,
min1.png,min2.png,min3.png,min4.png,allBlank.png,,,,['num_1'],,,,,,0,0,0,0,,,,,,,,,['num_1'],1,0.0609850256405,0,"['num_0', 'num_1']",0,"[0.34944656410334574, 0.5663618461539954]",,2018_May_26_1207,60.2750769048,sequenceLearningTask,001,077,
min1.png,min2.png,min3.png,min4.png,allBlank.png,,,,['num_4'],,,,,,0,0,0,0,,,,,,,,,['num_4'],1,0.0556069743589,1,['num_4'],0,[0.2711757948718514],,2018_May_26_1207,60.2750769048,sequenceLearningTask,001,077,
min1.png,min2.png,min3.png,min4.png,allBlank.png,,,,['num_0'],,,,,,0,0,0,0,,,,,,,,,['num_0'],1,0.0538399999996,1,['num_0'],0,[0.10796594871771958],,2018_May_26_1207,60.2750769048,sequenceLearningTask,001,077,
min1.png,min2.png,min3.png,min4.png,allBlank.png,,,,['num_0'],,,,,,0,0,0,0,,,,,,,,,['num_0'],1,0.0488381538462,1,['num_0'],0,[0.5121427692311045],,2018_May_26_1207,60.2750769048,sequenceLearningTask,001,077,
min1.png,min2.png,min3.png,min4.png,allBlank.png,,,,['num_4'],,,,,,0,0,0,0,,,,,,,,,['num_4'],1,0.0630293333334,1,['num_4'],0,[0.4300484102568589],,2018_May_26_1207,60.2750769048,sequenceLearningTask,001,077,
min1.png,min2.png,min3.png,min4.png,allBlank.png,,,,['num_1'],,,,,,0,0,0,0,,,,,,,,,['num_1'],1,0.053087589743,0,"['num_4', 'num_1']",0,"[0.374281025640812, 0.658522256409924]",,2018_May_26_1207,60.2750769048,sequenceLearningTask,001,077,
min1.png,min2.png,min3.png,min4.png,allBlank.png,,,,['num_0'],,,,,,0,0,0,0,,,,,,,,,['num_0'],1,0.0596890256411,1,['num_0'],0,[0.48441476923017035],,2018_May_26_1207,60.2750769048,sequenceLearningTask,001,077,
min1.png,min2.png,min3.png,min4.png,allBlank.png,,,,['num_7'],,,,,,0,1,1,1,,,,,,,,,['num_7'],2,0.0577485128206,1,['num_7'],0,[0.40138912820475525],,2018_May_26_1207,60.2750769048,sequenceLearningTask,001,077,
min1.png,min2.png,min3.png,min4.png,allBlank.png,,,,['num_1'],,,,,,0,1,1,1,,,,,,,,,['num_1'],2,0.0520812307695,1,['num_1'],0,[0.2916914871793779],,2018_May_26_1207,60.2750769048,sequenceLearningTask,001,077,
min1.png,min2.png,min3.png,min4.png,allBlank.png,,,,['num_4'],,,,,,0,1,1,1,,,,,,,,,['num_4'],2,0.050150974359,1,['num_4'],0,[0.42829292307669675],,2018_May_26_1207,60.2750769048,sequenceLearningTask,001,077,
min1.png,min2.png,min3.png,min4.png,allBlank.png,,,,['num_0'],,,,,,0,1,1,1,,,,,,,,,['num_0'],2,0.0520205128205,0,"['num_0', 'num_0']",0,"[0.040569025641161716, 0.50857887179518]",,2018_May_26_1207,60.2750769048,sequenceLearningTask,001,077,
min1.png,min2.png,min3.png,min4.png,allBlank.png,,,,['num_0'],,,,,,0,1,1,1,,,,,,,,,['num_0'],2,0.0567335384612,1,['num_0'],0,[0.45453907692262874],,2018_May_26_1207,60.2750769048,sequenceLearningTask,001,077,
min1.png,min2.png,min3.png,min4.png,allBlank.png,,,,['num_4'],,,,,,0,1,1,1,,,,,,,,,['num_4'],2,0.0541587692314,1,['num_4'],0,[0.4744590769232673],,2018_May_26_1207,60.2750769048,sequenceLearningTask,001,077,
min1.png,min2.png,min3.png,min4.png,allBlank.png,,,,['num_1'],,,,,,0,1,1,1,,,,,,,,,['num_1'],2,0.0611602051285,1,['num_1'],0,[0.31704410256406845],,2018_May_26_1207,60.2750769048,sequenceLearningTask,001,077,
min1.png,min2.png,min3.png,min4.png,allBlank.png,,,,['num_0'],,,,,,0,1,1,1,,,,,,,,,['num_0'],2,0.0577202051281,1,['num_0'],0,[0.4203068717952192],,2018_May_26_1207,60.2750769048,sequenceLearningTask,001,077,
min1.png,min2.png,min3.png,min4.png,allBlank.png,,,,['num_7'],,,,,,0,2,2,2,,,,,,,,,['num_7'],3,0.0736205128205,1,['num_7'],0,[0.41825271794823493],,2018_May_26_1207,60.2750769048,sequenceLearningTask,001,077,
min1.png,min2.png,min3.png,min4.png,allBlank.png,,,,['num_1'],,,,,,0,2,2,2,,,,,,,,,['num_1'],3,0.0303109743591,1,['num_1'],0,[0.515568820513181],,2018_May_26_1207,60.2750769048,sequenceLearningTask,001,077,
min1.png,min2.png,min3.png,min4.png,allBlank.png,,,,['num_4'],,,,,,0,2,2,2,,,,,,,,,['num_4'],3,0.0487249230773,1,['num_4'],0,[0.2790847179485354],,2018_May_26_1207,60.2750769048,sequenceLearningTask,001,077,
min1.png,min2.png,min3.png,min4.png,allBlank.png,,,,['num_0'],,,,,,0,2,2,2,,,,,,,,,['num_0'],3,0.0532324102569,1,['num_0'],0,[0.07539241025642696],,2018_May_26_1207,60.2750769048,sequenceLearningTask,001,077,
min1.png,min2.png,min3.png,min4.png,allBlank.png,,,,['num_0'],,,,,,0,2,2,2,,,,,,,,,['num_0'],3,0.0496582564101,0,"['num_1', 'num_0']",0,"[0.5284980512824404, 1.0118896410258458]",,2018_May_26_1207,60.2750769048,sequenceLearningTask,001,077,
min1.png,min2.png,min3.png,min4.png,allBlank.png,,,,['num_4'],,,,,,0,2,2,2,,,,,,,,,['num_4'],3,0.0620077948724,1,['num_4'],0,[1.0994736410257246],,2018_May_26_1207,60.2750769048,sequenceLearningTask,001,077,
min1.png,min2.png,min3.png,min4.png,allBlank.png,,,,['num_1'],,,,,,0,2,2,2,,,,,,,,,['num_1'],3,0.0532459487185,1,['num_1'],0,[0.37442461538466887],,2018_May_26_1207,60.2750769048,sequenceLearningTask,001,077,
min1.png,min2.png,min3.png,min4.png,allBlank.png,,,,['num_0'],,,,,,0,2,2,2,,,,,,,,,['num_0'],3,0.0585325128204,1,['num_0'],0,[0.4691790769229556],,2018_May_26_1207,60.2750769048,sequenceLearningTask,001,077,
min1.png,min2.png,min3.png,min4.png,allBlank.png,,,,['num_7'],,,,,,0,3,3,3,,,,,,,,,['num_7'],4,0.0583364102558,1,['num_7'],0,[0.4010145641022973],,2018_May_26_1207,60.2750769048,sequenceLearningTask,001,077,
min1.png,min2.png,min3.png,min4.png,allBlank.png,,,,['num_1'],,,,,,0,3,3,3,,,,,,,,,['num_1'],4,0.0516077948714,0,"['num_0', 'num_4', 'num_1']",0,"[0.5942822564102244, 1.0261329230761476, 1.3433111794865908]",,2018_May_26_1207,60.2750769048,sequenceLearningTask,001,077,
min1.png,min2.png,min3.png,min4.png,allBlank.png,,,,['num_4'],,,,,,0,3,3,3,,,,,,,,,['num_4'],4,0.0512812307688,1,['num_4'],0,[0.8600594871795693],,2018_May_26_1207,60.2750769048,sequenceLearningTask,001,077,
min1.png,min2.png,min3.png,min4.png,allBlank.png,,,,['num_0'],,,,,,0,3,3,3,,,,,,,,,['num_0'],4,0.0519478974356,1,['num_0'],0,[0.29219774358989525],,2018_May_26_1207,60.2750769048,sequenceLearningTask,001,077,
min1.png,min2.png,min3.png,min4.png,allBlank.png,,,,['num_0'],,,,,,0,3,3,3,,,,,,,,,['num_0'],4,0.0507331282051,1,['num_0'],0,[0.41055917948779097],,2018_May_26_1207,60.2750769048,sequenceLearningTask,001,077,
min1.png,min2.png,min3.png,min4.png,allBlank.png,,,,['num_4'],,,,,,0,3,3,3,,,,,,,,,['num_4'],4,0.0602006153849,1,['num_4'],0,[0.6174777435899159],,2018_May_26_1207,60.2750769048,sequenceLearningTask,001,077,
min1.png,min2.png,min3.png,min4.png,allBlank.png,,,,['num_1'],,,,,,0,3,3,3,,,,,,,,,['num_1'],4,0.0554400000001,0,"['num_0', 'num_1']",0,"[0.25562748717948125, 0.6554239999995843]",,2018_May_26_1207,60.2750769048,sequenceLearningTask,001,077,
min1.png,min2.png,min3.png,min4.png,allBlank.png,,,,['num_0'],,,,,,0,3,3,3,,,,,,,,,['num_0'],4,0.0579335384618,1,['num_0'],0,[0.48554789743593574],,2018_May_26_1207,60.2750769048,sequenceLearningTask,001,077,
min1.png,min2.png,min3.png,min4.png,allBlank.png,,,,['num_7'],,,,,,0,4,4,4,,,,,,,,,['num_7'],5,0.050508717949,1,['num_7'],0,[0.05893128205116227],,2018_May_26_1207,60.2750769048,sequenceLearningTask,001,077,
min1.png,min2.png,min3.png,min4.png,allBlank.png,,,,['num_1'],,,,,,0,4,4,4,,,,,,,,,['num_1'],5,0.0511909743591,1,['num_1'],0,[0.5604348717952234],,2018_May_26_1207,60.2750769048,sequenceLearningTask,001,077,
min1.png,min2.png,min3.png,min4.png,allBlank.png,,,,['num_4'],,,,,,0,4,4,4,,,,,,,,,['num_4'],5,0.0577497435897,1,['num_4'],0,[0.7209677948712852],,2018_May_26_1207,60.2750769048,sequenceLearningTask,001,077,
min1.png,min2.png,min3.png,min4.png,allBlank.png,,,,['num_0'],,,,,,0,4,4,4,,,,,,,,,['num_0'],5,0.0660053333331,1,['num_0'],0,[0.32821538461485034],,2018_May_26_1207,60.2750769048,sequenceLearningTask,001,077,
min1.png,min2.png,min3.png,min4.png,allBlank.png,,,,['num_0'],,,,,,0,4,4,4,,,,,,,,,['num_0'],5,0.0580689230774,1,['num_0'],0,[0.5028340512817522],,2018_May_26_1207,60.2750769048,sequenceLearningTask,001,077,
min1.png,min2.png,min3.png,min4.png,allBlank.png,,,,['num_4'],,,,,,0,4,4,4,,,,,,,,,['num_4'],5,0.0571597948719,0,"['num_7', 'num_4']",0,"[0.853279589743579, 1.6371827692310035]",,2018_May_26_1207,60.2750769048,sequenceLearningTask,001,077,
min1.png,min2.png,min3.png,min4.png,allBlank.png,,,,['num_1'],,,,,,0,4,4,4,,,,,,,,,['num_1'],5,0.04896451282,1,['num_1'],0,[1.0130756923072113],,2018_May_26_1207,60.2750769048,sequenceLearningTask,001,077,
min1.png,min2.png,min3.png,min4.png,allBlank.png,,,,['num_0'],,,,,,0,4,4,4,,,,,,,,,['num_0'],5,0.049769846154,1,['num_0'],0,[0.9293743589742007],,2018_May_26_1207,60.2750769048,sequenceLearningTask,001,077,
min1.png,min2.png,min3.png,min4.png,allBlank.png,,,,['num_7'],,,,,,0,5,5,5,,,,,,,,,['num_7'],6,0.0595261538465,1,['num_7'],0,[0.46552369230812474],,2018_May_26_1207,60.2750769048,sequenceLearningTask,001,077,
min1.png,min2.png,min3.png,min4.png,allBlank.png,,,,['num_1'],,,,,,0,5,5,5,,,,,,,,,['num_1'],6,0.0498806153846,1,['num_1'],0,[0.39571692307617923],,2018_May_26_1207,60.2750769048,sequenceLearningTask,001,077,
min1.png,min2.png,min3.png,min4.png,allBlank.png,,,,['num_4'],,,,,,0,5,5,5,,,,,,,,,['num_4'],6,0.0505829743588,1,['num_4'],0,[0.42748225641025783],,2018_May_26_1207,60.2750769048,sequenceLearningTask,001,077,
min1.png,min2.png,min3.png,min4.png,allBlank.png,,,,['num_0'],,,,,,0,5,5,5,,,,,,,,,['num_0'],6,0.0528849230768,1,['num_0'],0,[0.2911035897432157],,2018_May_26_1207,60.2750769048,sequenceLearningTask,001,077,
min1.png,min2.png,min3.png,min4.png,allBlank.png,,,,['num_0'],,,,,,0,5,5,5,,,,,,,,,['num_0'],6,0.0577037948724,1,['num_0'],0,[0.5530646153847556],,2018_May_26_1207,60.2750769048,sequenceLearningTask,001,077,
min1.png,min2.png,min3.png,min4.png,allBlank.png,,,,['num_4'],,,,,,0,5,5,5,,,,,,,,,['num_4'],6,0.0557653333335,1,['num_4'],0,[0.7054096410256534],,2018_May_26_1207,60.2750769048,sequenceLearningTask,001,077,
min1.png,min2.png,min3.png,min4.png,allBlank.png,,,,['num_1'],,,,,,0,5,5,5,,,,,,,,,['num_1'],6,0.0552767179488,1,['num_1'],0,[0.5409403076919261],,2018_May_26_1207,60.2750769048,sequenceLearningTask,001,077,
min1.png,min2.png,min3.png,min4.png,allBlank.png,,,,['num_0'],,,,,,0,5,5,5,,,,,,,,,['num_0'],6,0.0670904615381,1,['num_0'],0,[0.442585025641165],,2018_May_26_1207,60.2750769048,sequenceLearningTask,001,077,
min1.png,min2.png,min3.png,min4.png,allBlank.png,,,,['num_7'],,,,,,0,6,6,6,,,,,,,,,['num_7'],7,0.0532090256411,1,['num_7'],0,[0.35606564102636185],,2018_May_26_1207,60.2750769048,sequenceLearningTask,001,077,
min1.png,min2.png,min3.png,min4.png,allBlank.png,,,,['num_1'],,,,,,0,6,6,6,,,,,,,,,['num_1'],7,0.0533472820507,0,"['num_0', 'num_1']",0,"[0.324258871794882, 0.6407597948718831]",,2018_May_26_1207,60.2750769048,sequenceLearningTask,001,077,
min1.png,min2.png,min3.png,min4.png,allBlank.png,,,,['num_4'],,,,,,0,6,6,6,,,,,,,,,['num_4'],7,0.0560820512828,1,['num_4'],0,[0.7888127179485309],,2018_May_26_1207,60.2750769048,sequenceLearningTask,001,077,
min1.png,min2.png,min3.png,min4.png,allBlank.png,,,,['num_0'],,,,,,0,6,6,6,,,,,,,,,['num_0'],7,0.0502564102562,1,['num_0'],0,[0.32763364102538617],,2018_May_26_1207,60.2750769048,sequenceLearningTask,001,077,
min1.png,min2.png,min3.png,min4.png,allBlank.png,,,,['num_0'],,,,,,0,6,6,6,,,,,,,,,['num_0'],7,0.0464758974358,1,['num_0'],0,[0.5990285128200412],,2018_May_26_1207,60.2750769048,sequenceLearningTask,001,077,
min1.png,min2.png,min3.png,min4.png,allBlank.png,,,,['num_4'],,,,,,0,6,6,6,,,,,,,,,['num_4'],7,0.0577185641032,1,['num_4'],0,[0.7199540512820022],,2018_May_26_1207,60.2750769048,sequenceLearningTask,001,077,
min1.png,min2.png,min3.png,min4.png,allBlank.png,,,,['num_1'],,,,,,0,6,6,6,,,,,,,,,['num_1'],7,0.0550843076926,1,['num_1'],0,[0.29014030769212695],,2018_May_26_1207,60.2750769048,sequenceLearningTask,001,077,
min1.png,min2.png,min3.png,min4.png,allBlank.png,,,,['num_0'],,,,,,0,6,6,6,,,,,,,,,['num_0'],7,0.0587117948717,1,['num_0'],0,[0.5015355897439804],,2018_May_26_1207,60.2750769048,sequenceLearningTask,001,077,
min1.png,min2.png,min3.png,min4.png,allBlank.png,,,,['num_7'],,,,,,0,7,7,7,,,,,,,,,['num_7'],8,0.048045948718,1,['num_7'],0,[0.5945148717946722],,2018_May_26_1207,60.2750769048,sequenceLearningTask,001,077,
min1.png,min2.png,min3.png,min4.png,allBlank.png,,,,['num_1'],,,,,,0,7,7,7,,,,,,,,,['num_1'],8,0.0579007179485,1,['num_1'],0,[0.6197727179487629],,2018_May_26_1207,60.2750769048,sequenceLearningTask,001,077,
min1.png,min2.png,min3.png,min4.png,allBlank.png,,,,['num_4'],,,,,,0,7,7,7,,,,,,,,,['num_4'],8,0.0522601025641,1,['num_4'],0,[0.5089493333334758],,2018_May_26_1207,60.2750769048,sequenceLearningTask,001,077,
min1.png,min2.png,min3.png,min4.png,allBlank.png,,,,['num_0'],,,,,,0,7,7,7,,,,,,,,,['num_0'],8,0.0581046153848,1,['num_0'],0,[0.2531290256411012],,2018_May_26_1207,60.2750769048,sequenceLearningTask,001,077,
min1.png,min2.png,min3.png,min4.png,allBlank.png,,,,['num_0'],,,,,,0,7,7,7,,,,,,,,,['num_0'],8,0.0563790769238,0,"['num_7', 'num_0']",0,"[0.08838769230715116, 0.6547003076921101]",,2018_May_26_1207,60.2750769048,sequenceLearningTask,001,077,
min1.png,min2.png,min3.png,min4.png,allBlank.png,,,,['num_4'],,,,,,0,7,7,7,,,,,,,,,['num_4'],8,0.0583487179492,0,"['num_7', 'num_4']",0,"[0.23650584615461412, 1.236315076923347]",,2018_May_26_1207,60.2750769048,sequenceLearningTask,001,077,
min1.png,min2.png,min3.png,min4.png,allBlank.png,,,,['num_1'],,,,,,0,7,7,7,,,,,,,,,['num_1'],8,0.0522490256417,1,['num_1'],0,[0.3578633846154844],,2018_May_26_1207,60.2750769048,sequenceLearningTask,001,077,
min1.png,min2.png,min3.png,min4.png,allBlank.png,,,,['num_0'],,,,,,0,7,7,7,,,,,,,,,['num_0'],8,0.0531015384622,1,['num_0'],0,[0.45796143589723215],,2018_May_26_1207,60.2750769048,sequenceLearningTask,001,077,
min1.png,min2.png,min3.png,min4.png,allBlank.png,,,,['num_7'],,,,,,0,8,8,8,,,,,,,,,['num_7'],9,0.053132307693,1,['num_7'],0,[0.47342769230726844],,2018_May_26_1207,60.2750769048,sequenceLearningTask,001,077,
min1.png,min2.png,min3.png,min4.png,allBlank.png,,,,['num_1'],,,,,,0,8,8,8,,,,,,,,,['num_1'],9,0.0579277948718,1,['num_1'],0,[0.5871749743591863],,2018_May_26_1207,60.2750769048,sequenceLearningTask,001,077,
min1.png,min2.png,min3.png,min4.png,allBlank.png,,,,['num_4'],,,,,,0,8,8,8,,,,,,,,,['num_4'],9,0.0569037948717,1,['num_4'],0,[0.7868664615380112],,2018_May_26_1207,60.2750769048,sequenceLearningTask,001,077,
min1.png,min2.png,min3.png,min4.png,allBlank.png,,,,['num_0'],,,,,,0,8,8,8,,,,,,,,,['num_0'],9,0.0444939487179,1,['num_0'],0,[0.2681087179489623],,2018_May_26_1207,60.2750769048,sequenceLearningTask,001,077,
min1.png,min2.png,min3.png,min4.png,allBlank.png,,,,['num_0'],,,,,,0,8,8,8,,,,,,,,,['num_0'],9,0.0534752820513,1,['num_0'],0,[0.690980923076495],,2018_May_26_1207,60.2750769048,sequenceLearningTask,001,077,
min1.png,min2.png,min3.png,min4.png,allBlank.png,,,,['num_4'],,,,,,0,8,8,8,,,,,,,,,['num_4'],9,0.0588918974363,1,['num_4'],0,[0.853909743589611],,2018_May_26_1207,60.2750769048,sequenceLearningTask,001,077,
min1.png,min2.png,min3.png,min4.png,allBlank.png,,,,['num_1'],,,,,,0,8,8,8,,,,,,,,,['num_1'],9,0.0578034871796,1,['num_1'],0,[0.40356635897387605],,2018_May_26_1207,60.2750769048,sequenceLearningTask,001,077,
min1.png,min2.png,min3.png,min4.png,allBlank.png,,,,['num_0'],,,,,,0,8,8,8,,,,,,,,,['num_0'],9,0.0491634871796,1,['num_0'],0,[0.29581907692318055],,2018_May_26_1207,60.2750769048,sequenceLearningTask,001,077,
min1.png,min2.png,min3.png,min4.png,allBlank.png,,,,['num_7'],,,,,,0,9,9,9,,,,,,,,,['num_7'],10,0.0457702564099,1,['num_7'],0,[0.9317382564104264],,2018_May_26_1207,60.2750769048,sequenceLearningTask,001,077,
min1.png,min2.png,min3.png,min4.png,allBlank.png,,,,['num_1'],,,,,,0,9,9,9,,,,,,,,,['num_1'],10,0.0521760000001,1,['num_1'],0,[0.7767647179489359],,2018_May_26_1207,60.2750769048,sequenceLearningTask,001,077,
min1.png,min2.png,min3.png,min4.png,allBlank.png,,,,['num_4'],,,,,,0,9,9,9,,,,,,,,,['num_4'],10,0.0623290256408,1,['num_4'],0,[0.41506461538483563],,2018_May_26_1207,60.2750769048,sequenceLearningTask,001,077,
min1.png,min2.png,min3.png,min4.png,allBlank.png,,,,['num_0'],,,,,,0,9,9,9,,,,,,,,,['num_0'],10,0.0561768205125,1,['num_0'],0,[0.3044492307690234],,2018_May_26_1207,60.2750769048,sequenceLearningTask,001,077,
min1.png,min2.png,min3.png,min4.png,allBlank.png,,,,['num_0'],,,,,,0,9,9,9,,,,,,,,,['num_0'],10,0.0515577435899,0,"['num_1', 'num_0']",0,"[0.40952492307769717, 0.710775384615772]",,2018_May_26_1207,60.2750769048,sequenceLearningTask,001,077,
min1.png,min2.png,min3.png,min4.png,allBlank.png,,,,['num_4'],,,,,,0,9,9,9,,,,,,,,,['num_4'],10,0.0515072820517,1,['num_4'],0,[0.7428402051282319],,2018_May_26_1207,60.2750769048,sequenceLearningTask,001,077,
min1.png,min2.png,min3.png,min4.png,allBlank.png,,,,['num_1'],,,,,,0,9,9,9,,,,,,,,,['num_1'],10,0.0547339487175,1,['num_1'],0,[0.456270769231196],,2018_May_26_1207,60.2750769048,sequenceLearningTask,001,077,
min1.png,min2.png,min3.png,min4.png,allBlank.png,,,,['num_0'],,,,,,0,9,9,9,,,,,,,,,['num_0'],10,0.0580402051282,1,['num_0'],0,[0.3699757948725164],,2018_May_26_1207,60.2750769048,sequenceLearningTask,001,077,
