pawPatrol1,pawPatrol2,pawPatrol3,pawPatrol4,blank,randomPaw,correctKeyPress,allowableKey,correctKey,correctKeyPressNum,trials.thisRepN,trials.thisTrialN,trials.thisN,trials.thisIndex,trials_3.thisRepN,trials_3.thisTrialN,trials_3.thisN,trials_3.thisIndex,trials_2.thisRepN,trials_2.thisTrialN,trials_2.thisN,trials_2.thisIndex,trials_questions.thisRepN,trials_questions.thisTrialN,trials_questions.thisN,trials_questions.thisIndex,trials_test.thisRepN,trials_test.thisTrialN,trials_test.thisN,trials_test.thisIndex,trials_recogtest.thisRepN,trials_recogtest.thisTrialN,trials_recogtest.thisN,trials_recogtest.thisIndex,correctKey,repetitionNumber,stimulusPresent.t,trialCorrect,key_resp_9.keys,key_resp_9.corr,key_resp_9.rt,keyRespCorrect,questionsResponses,AnswerFinished.keys,AnswerFinished.rt,RecordAnswer.keys,RecordAnswer.rt,recallResponse,recallResponseTime,date,frameRate,expName,session,participant,
min1.png,min2.png,min3.png,min4.png,allBlank.png,,,,['num_7'],,,,,,0,0,0,0,,,,,,,,,,,,,,,,,['num_7'],1,0.0806018792791,0,"['num_0', 'num_0', 'num_7', 'num_4', 'num_1', 'num_7', 'num_7', 'num_4', 'num_7', 'num_4', 'num_1', 'num_7']",0,"[0.00037046161014586687, 1.420944583020173]",,,,,,,,,2018_Apr_15_1145,59.9094291977,sequenceLearningTask,001,079,
min1.png,min2.png,min3.png,min4.png,allBlank.png,,,,['num_1'],,,,,,0,0,0,0,,,,,,,,,,,,,,,,,['num_1'],1,0.0718556192005,1,['num_1'],0,[1.256383694941178],,,,,,,,,2018_Apr_15_1145,59.9094291977,sequenceLearningTask,001,079,
min1.png,min2.png,min3.png,min4.png,allBlank.png,,,,['num_4'],,,,,,0,0,0,0,,,,,,,,,,,,,,,,,['num_4'],1,0.0699064901564,1,['num_4'],0,[0.8919540068600327],,,,,,,,,2018_Apr_15_1145,59.9094291977,sequenceLearningTask,001,079,
min1.png,min2.png,min3.png,min4.png,allBlank.png,,,,['num_0'],,,,,,0,0,0,0,,,,,,,,,,,,,,,,,['num_0'],1,0.0735036199912,0,"['num_7', 'num_0']",0,"[0.0004061540821567178, 2.0702687468146905]",,,,,,,,,2018_Apr_15_1145,59.9094291977,sequenceLearningTask,001,079,
min1.png,min2.png,min3.png,min4.png,allBlank.png,,,,['num_0'],,,,,,0,0,0,0,,,,,,,,,,,,,,,,,['num_0'],1,0.0516078160144,1,['num_0'],0,[0.9429919766262174],,,,,,,,,2018_Apr_15_1145,59.9094291977,sequenceLearningTask,001,079,
min1.png,min2.png,min3.png,min4.png,allBlank.png,,,,['num_4'],,,,,,0,0,0,0,,,,,,,,,,,,,,,,,['num_4'],1,0.0621308973059,1,['num_4'],0,[2.08212598238606],,,,,,,,,2018_Apr_15_1145,59.9094291977,sequenceLearningTask,001,079,
min1.png,min2.png,min3.png,min4.png,allBlank.png,,,,['num_1'],,,,,,0,0,0,0,,,,,,,,,,,,,,,,,['num_1'],1,0.0549042277271,1,['num_1'],0,[0.8555367612279952],,,,,,,,,2018_Apr_15_1145,59.9094291977,sequenceLearningTask,001,079,
min1.png,min2.png,min3.png,min4.png,allBlank.png,,,,['num_0'],,,,,,0,0,0,0,,,,,,,,,,,,,,,,,['num_0'],1,0.053064637119,1,['num_0'],0,[0.8243724406929687],,,,,,,,,2018_Apr_15_1145,59.9094291977,sequenceLearningTask,001,079,
min1.png,min2.png,min3.png,min4.png,allBlank.png,,,,['num_7'],,,,,,0,1,1,1,,,,,,,,,,,,,,,,,['num_7'],2,0.0495031997561,1,['num_7'],0,[1.2103725991910324],,,,,,,,,2018_Apr_15_1145,59.9094291977,sequenceLearningTask,001,079,
min1.png,min2.png,min3.png,min4.png,allBlank.png,,,,['num_1'],,,,,,0,1,1,1,,,,,,,,,,,,,,,,,['num_1'],2,0.0514900723938,1,['num_1'],0,[1.3594512244453654],,,,,,,,,2018_Apr_15_1145,59.9094291977,sequenceLearningTask,001,079,
min1.png,min2.png,min3.png,min4.png,allBlank.png,,,,['num_4'],,,,,,0,1,1,1,,,,,,,,,,,,,,,,,['num_4'],2,0.0611844353843,1,['num_4'],0,[2.231692402740009],,,,,,,,,2018_Apr_15_1145,59.9094291977,sequenceLearningTask,001,079,
min1.png,min2.png,min3.png,min4.png,allBlank.png,,,,['num_0'],,,,,,0,1,1,1,,,,,,,,,,,,,,,,,['num_0'],2,0.0500115077011,1,['num_0'],0,[1.4945577413309366],,,,,,,,,2018_Apr_15_1145,59.9094291977,sequenceLearningTask,001,079,
min1.png,min2.png,min3.png,min4.png,allBlank.png,,,,['num_0'],,,,,,0,1,1,1,,,,,,,,,,,,,,,,,['num_0'],2,0.0567741771229,0,"['num_1', 'num_0']",0,"[0.00031138467602431774, 0.9711958856787533]",,,,,,,,,2018_Apr_15_1145,59.9094291977,sequenceLearningTask,001,079,
min1.png,min2.png,min3.png,min4.png,allBlank.png,,,,['num_4'],,,,,,0,1,1,1,,,,,,,,,,,,,,,,,['num_4'],2,0.0543934581801,0,"['num_7', 'num_4']",0,"[1.5073368235025555, 2.1063992232084274]",,,,,,,,,2018_Apr_15_1145,59.9094291977,sequenceLearningTask,001,079,
min1.png,min2.png,min3.png,min4.png,allBlank.png,,,,['num_1'],,,,,,0,1,1,1,,,,,,,,,,,,,,,,,['num_1'],2,0.058667100966,1,['num_1'],0,[1.435034024529159],,,,,,,,,2018_Apr_15_1145,59.9094291977,sequenceLearningTask,001,079,
min1.png,min2.png,min3.png,min4.png,allBlank.png,,,,['num_0'],,,,,,0,1,1,1,,,,,,,,,,,,,,,,,['num_0'],2,0.0510728413938,1,['num_0'],0,[1.192326232790947],,,,,,,,,2018_Apr_15_1145,59.9094291977,sequenceLearningTask,001,079,
min1.png,min2.png,min3.png,min4.png,allBlank.png,,,,['num_7'],,,,,,0,2,2,2,,,,,,,,,,,,,,,,,['num_7'],3,0.0552878176095,1,['num_7'],0,[1.3720592295285314],,,,,,,,,2018_Apr_15_1145,59.9094291977,sequenceLearningTask,001,079,
min1.png,min2.png,min3.png,min4.png,allBlank.png,,,,['num_1'],,,,,,0,2,2,2,,,,,,,,,,,,,,,,,['num_1'],3,0.0521989957197,1,['num_1'],0,[2.1259381029522046],,,,,,,,,2018_Apr_15_1145,59.9094291977,sequenceLearningTask,001,079,
min1.png,min2.png,min3.png,min4.png,allBlank.png,,,,['num_4'],,,,,,0,2,2,2,,,,,,,,,,,,,,,,,['num_4'],3,0.0589715113165,1,['num_4'],0,[1.6182546126656234],,,,,,,,,2018_Apr_15_1145,59.9094291977,sequenceLearningTask,001,079,
min1.png,min2.png,min3.png,min4.png,allBlank.png,,,,['num_0'],,,,,,0,2,2,2,,,,,,,,,,,,,,,,,['num_0'],3,0.0526055600494,1,['num_0'],0,[1.0584225880447775],,,,,,,,,2018_Apr_15_1145,59.9094291977,sequenceLearningTask,001,079,
min1.png,min2.png,min3.png,min4.png,allBlank.png,,,,['num_0'],,,,,,0,2,2,2,,,,,,,,,,,,,,,,,['num_0'],3,0.0412791965064,1,['num_0'],0,[0.7384117902256548],,,,,,,,,2018_Apr_15_1145,59.9094291977,sequenceLearningTask,001,079,
min1.png,min2.png,min3.png,min4.png,allBlank.png,,,,['num_4'],,,,,,0,2,2,2,,,,,,,,,,,,,,,,,['num_4'],3,0.0531897654291,1,['num_4'],0,[1.8250108000356704],,,,,,,,,2018_Apr_15_1145,59.9094291977,sequenceLearningTask,001,079,
min1.png,min2.png,min3.png,min4.png,allBlank.png,,,,['num_1'],,,,,,0,2,2,2,,,,,,,,,,,,,,,,,['num_1'],3,0.0491565329721,1,['num_1'],0,[1.2627426718827337],,,,,,,,,2018_Apr_15_1145,59.9094291977,sequenceLearningTask,001,079,
min1.png,min2.png,min3.png,min4.png,allBlank.png,,,,['num_0'],,,,,,0,2,2,2,,,,,,,,,,,,,,,,,['num_0'],3,0.0554564329796,1,['num_0'],0,[0.8717898960458115],,,,,,,,,2018_Apr_15_1145,59.9094291977,sequenceLearningTask,001,079,
min1.png,min2.png,min3.png,min4.png,allBlank.png,,,,['num_7'],,,,,,0,3,3,3,,,,,,,,,,,,,,,,,['num_7'],4,0.0559934588382,1,['num_7'],0,[1.170533403288573],,,,,,,,,2018_Apr_15_1145,59.9094291977,sequenceLearningTask,001,079,
min1.png,min2.png,min3.png,min4.png,allBlank.png,,,,['num_1'],,,,,,0,3,3,3,,,,,,,,,,,,,,,,,['num_1'],4,0.0573095619911,1,['num_1'],0,[1.3705859981710091],,,,,,,,,2018_Apr_15_1145,59.9094291977,sequenceLearningTask,001,079,
min1.png,min2.png,min3.png,min4.png,allBlank.png,,,,['num_4'],,,,,,0,3,3,3,,,,,,,,,,,,,,,,,['num_4'],4,0.0543618684169,1,['num_4'],0,[1.6737627380061895],,,,,,,,,2018_Apr_15_1145,59.9094291977,sequenceLearningTask,001,079,
min1.png,min2.png,min3.png,min4.png,allBlank.png,,,,['num_0'],,,,,,0,3,3,3,,,,,,,,,,,,,,,,,['num_0'],4,0.0509206362767,1,['num_0'],0,[1.7258398875128478],,,,,,,,,2018_Apr_15_1145,59.9094291977,sequenceLearningTask,001,079,
min1.png,min2.png,min3.png,min4.png,allBlank.png,,,,['num_0'],,,,,,0,3,3,3,,,,,,,,,,,,,,,,,['num_0'],4,0.0648041291861,1,['num_0'],0,[0.6969967987388372],,,,,,,,,2018_Apr_15_1145,59.9094291977,sequenceLearningTask,001,079,
min1.png,min2.png,min3.png,min4.png,allBlank.png,,,,['num_4'],,,,,,0,3,3,3,,,,,,,,,,,,,,,,,['num_4'],4,0.0575979723362,1,['num_4'],0,[1.4194130952237174],,,,,,,,,2018_Apr_15_1145,59.9094291977,sequenceLearningTask,001,079,
min1.png,min2.png,min3.png,min4.png,allBlank.png,,,,['num_1'],,,,,,0,3,3,3,,,,,,,,,,,,,,,,,['num_1'],4,0.0559241254814,1,['num_1'],0,[1.0381645284360275],,,,,,,,,2018_Apr_15_1145,59.9094291977,sequenceLearningTask,001,079,
min1.png,min2.png,min3.png,min4.png,allBlank.png,,,,['num_0'],,,,,,0,3,3,3,,,,,,,,,,,,,,,,,['num_0'],4,0.0385776569601,1,['num_0'],0,[0.8907441602787003],,,,,,,,,2018_Apr_15_1145,59.9094291977,sequenceLearningTask,001,079,
min1.png,min2.png,min3.png,min4.png,allBlank.png,,,,['num_7'],,,,,,0,4,4,4,,,,,,,,,,,,,,,,,['num_7'],5,0.0541054580826,1,['num_7'],0,[0.9048307301709428],,,,,,,,,2018_Apr_15_1145,59.9094291977,sequenceLearningTask,001,079,
min1.png,min2.png,min3.png,min4.png,allBlank.png,,,,['num_1'],,,,,,0,4,4,4,,,,,,,,,,,,,,,,,['num_1'],5,0.073403927614,1,['num_1'],0,[1.4214245831826702],,,,,,,,,2018_Apr_15_1145,59.9094291977,sequenceLearningTask,001,079,
min1.png,min2.png,min3.png,min4.png,allBlank.png,,,,['num_4'],,,,,,0,4,4,4,,,,,,,,,,,,,,,,,['num_4'],5,0.0598728450714,1,['num_4'],0,[1.184365614084527],,,,,,,,,2018_Apr_15_1145,59.9094291977,sequenceLearningTask,001,079,
min1.png,min2.png,min3.png,min4.png,allBlank.png,,,,['num_0'],,,,,,0,4,4,4,,,,,,,,,,,,,,,,,['num_0'],5,0.0552328431513,1,['num_0'],0,[1.039261554600671],,,,,,,,,2018_Apr_15_1145,59.9094291977,sequenceLearningTask,001,079,
min1.png,min2.png,min3.png,min4.png,allBlank.png,,,,['num_0'],,,,,,0,4,4,4,,,,,,,,,,,,,,,,,['num_0'],5,0.0534178680973,1,['num_0'],0,[0.7233533223625273],,,,,,,,,2018_Apr_15_1145,59.9094291977,sequenceLearningTask,001,079,
min1.png,min2.png,min3.png,min4.png,allBlank.png,,,,['num_4'],,,,,,0,4,4,4,,,,,,,,,,,,,,,,,['num_4'],5,0.0554720228538,1,['num_4'],0,[1.0224086246453226],,,,,,,,,2018_Apr_15_1145,59.9094291977,sequenceLearningTask,001,079,
min1.png,min2.png,min3.png,min4.png,allBlank.png,,,,['num_1'],,,,,,0,4,4,4,,,,,,,,,,,,,,,,,['num_1'],5,0.0574449466076,1,['num_1'],0,[1.254480924922973],,,,,,,,,2018_Apr_15_1145,59.9094291977,sequenceLearningTask,001,079,
min1.png,min2.png,min3.png,min4.png,allBlank.png,,,,['num_0'],,,,,,0,4,4,4,,,,,,,,,,,,,,,,,['num_0'],5,0.052186688059,1,['num_0'],0,[0.8760130773298442],,,,,,,,,2018_Apr_15_1145,59.9094291977,sequenceLearningTask,001,079,
min1.png,min2.png,min3.png,min4.png,allBlank.png,,,,['num_7'],,,,,,0,5,5,5,,,,,,,,,,,,,,,,,['num_7'],6,0.0532607397763,1,['num_7'],0,[1.1560817050049081],,,,,,,,,2018_Apr_15_1145,59.9094291977,sequenceLearningTask,001,079,
min1.png,min2.png,min3.png,min4.png,allBlank.png,,,,['num_1'],,,,,,0,5,5,5,,,,,,,,,,,,,,,,,['num_1'],6,0.0513883287786,1,['num_1'],0,[1.3105096658691764],,,,,,,,,2018_Apr_15_1145,59.9094291977,sequenceLearningTask,001,079,
min1.png,min2.png,min3.png,min4.png,allBlank.png,,,,['num_4'],,,,,,0,5,5,5,,,,,,,,,,,,,,,,,['num_4'],6,0.0489399174694,1,['num_4'],0,[1.2293605044251308],,,,,,,,,2018_Apr_15_1145,59.9094291977,sequenceLearningTask,001,079,
min1.png,min2.png,min3.png,min4.png,allBlank.png,,,,['num_0'],,,,,,0,5,5,5,,,,,,,,,,,,,,,,,['num_0'],6,0.0562835102901,1,['num_0'],0,[1.4369749485049397],,,,,,,,,2018_Apr_15_1145,59.9094291977,sequenceLearningTask,001,079,
min1.png,min2.png,min3.png,min4.png,allBlank.png,,,,['num_0'],,,,,,0,5,5,5,,,,,,,,,,,,,,,,,['num_0'],6,0.0497280204436,1,['num_0'],0,[0.8621812768978998],,,,,,,,,2018_Apr_15_1145,59.9094291977,sequenceLearningTask,001,079,
min1.png,min2.png,min3.png,min4.png,allBlank.png,,,,['num_4'],,,,,,0,5,5,5,,,,,,,,,,,,,,,,,['num_4'],6,0.047144224518,0,"['num_7', 'num_7', 'num_4']",0,"[1.4648321906570345, 2.115002713748254, 2.281414679484442]",,,,,,,,,2018_Apr_15_1145,59.9094291977,sequenceLearningTask,001,079,
min1.png,min2.png,min3.png,min4.png,allBlank.png,,,,['num_1'],,,,,,0,5,5,5,,,,,,,,,,,,,,,,,['num_1'],6,0.051556944265,1,['num_1'],0,[1.0920566531131044],,,,,,,,,2018_Apr_15_1145,59.9094291977,sequenceLearningTask,001,079,
min1.png,min2.png,min3.png,min4.png,allBlank.png,,,,['num_0'],,,,,,0,5,5,5,,,,,,,,,,,,,,,,,['num_0'],6,0.0510457645869,0,"['num_1', 'num_0']",0,"[1.1268566674552858, 1.5260814466746524]",,,,,,,,,2018_Apr_15_1145,59.9094291977,sequenceLearningTask,001,079,
min1.png,min2.png,min3.png,min4.png,allBlank.png,,,,['num_7'],,,,,,0,6,6,6,,,,,,,,,,,,,,,,,['num_7'],7,0.0570125362137,0,"['num_1', 'num_7']",0,"[0.0003068718360736966, 1.0686125409556553]",,,,,,,,,2018_Apr_15_1145,59.9094291977,sequenceLearningTask,001,079,
min1.png,min2.png,min3.png,min4.png,allBlank.png,,,,['num_1'],,,,,,0,6,6,6,,,,,,,,,,,,,,,,,['num_1'],7,0.0527052524267,1,['num_1'],0,[0.9758018362335861],,,,,,,,,2018_Apr_15_1145,59.9094291977,sequenceLearningTask,001,079,
min1.png,min2.png,min3.png,min4.png,allBlank.png,,,,['num_4'],,,,,,0,6,6,6,,,,,,,,,,,,,,,,,['num_4'],7,0.0552660739049,1,['num_4'],0,[1.0720697732176632],,,,,,,,,2018_Apr_15_1145,59.9094291977,sequenceLearningTask,001,079,
min1.png,min2.png,min3.png,min4.png,allBlank.png,,,,['num_0'],,,,,,0,6,6,6,,,,,,,,,,,,,,,,,['num_0'],7,0.0483134556562,1,['num_0'],0,[0.7463432805379853],,,,,,,,,2018_Apr_15_1145,59.9094291977,sequenceLearningTask,001,079,
min1.png,min2.png,min3.png,min4.png,allBlank.png,,,,['num_0'],,,,,,0,6,6,6,,,,,,,,,,,,,,,,,['num_0'],7,0.0545657660114,1,['num_0'],0,[0.8052905867807567],,,,,,,,,2018_Apr_15_1145,59.9094291977,sequenceLearningTask,001,079,
min1.png,min2.png,min3.png,min4.png,allBlank.png,,,,['num_4'],,,,,,0,6,6,6,,,,,,,,,,,,,,,,,['num_4'],7,0.0554059713613,1,['num_4'],0,[1.572767824633047],,,,,,,,,2018_Apr_15_1145,59.9094291977,sequenceLearningTask,001,079,
min1.png,min2.png,min3.png,min4.png,allBlank.png,,,,['num_1'],,,,,,0,6,6,6,,,,,,,,,,,,,,,,,['num_1'],7,0.0576295620995,1,['num_1'],0,[1.0363306815270334],,,,,,,,,2018_Apr_15_1145,59.9094291977,sequenceLearningTask,001,079,
min1.png,min2.png,min3.png,min4.png,allBlank.png,,,,['num_0'],,,,,,0,6,6,6,,,,,,,,,,,,,,,,,['num_0'],7,0.0536517142318,1,['num_0'],0,[0.8586625060997903],,,,,,,,,2018_Apr_15_1145,59.9094291977,sequenceLearningTask,001,079,
min1.png,min2.png,min3.png,min4.png,allBlank.png,,,,['num_7'],,,,,,0,7,7,7,,,,,,,,,,,,,,,,,['num_7'],8,0.0507540721446,1,['num_7'],0,[1.3081908957101405],,,,,,,,,2018_Apr_15_1145,59.9094291977,sequenceLearningTask,001,079,
min1.png,min2.png,min3.png,min4.png,allBlank.png,,,,['num_1'],,,,,,0,7,7,7,,,,,,,,,,,,,,,,,['num_1'],8,0.049411302316,0,"['num_4', 'num_4', 'num_4', 'num_4', 'num_1']",0,"[0.5121154921362177, 1.3787238476797938, 1.745444408385083, 1.9618276766268536, 3.54494750557933]",,,,,,,,,2018_Apr_15_1145,59.9094291977,sequenceLearningTask,001,079,
min1.png,min2.png,min3.png,min4.png,allBlank.png,,,,['num_4'],,,,,,0,7,7,7,,,,,,,,,,,,,,,,,['num_4'],8,0.0527417652775,0,"['num_0', 'num_4']",0,"[0.19262489955872297, 0.7082993675721809]",,,,,,,,,2018_Apr_15_1145,59.9094291977,sequenceLearningTask,001,079,
min1.png,min2.png,min3.png,min4.png,allBlank.png,,,,['num_0'],,,,,,0,7,7,7,,,,,,,,,,,,,,,,,['num_0'],8,0.0505436104722,0,"['num_7', 'num_7', 'num_7', 'num_4', 'num_4', 'num_4', 'num_7', 'num_0']",0,"[0.0006933335680514574, 0.2935923255281523, 0.8117640253622085, 1.043936838512309, 1.2597826706478372, 1.2940756077878177, 1.5278332422021776]",,,,,,,,,2018_Apr_15_1145,59.9094291977,sequenceLearningTask,001,079,
min1.png,min2.png,min3.png,min4.png,allBlank.png,,,,['num_0'],,,,,,0,7,7,7,,,,,,,,,,,,,,,,,['num_0'],8,0.0561345871538,0,"['num_4', 'num_0']",0,"[0.00029087194707244635, 0.8397160368040204]",,,,,,,,,2018_Apr_15_1145,59.9094291977,sequenceLearningTask,001,079,
min1.png,min2.png,min3.png,min4.png,allBlank.png,,,,['num_4'],,,,,,0,7,7,7,,,,,,,,,,,,,,,,,['num_4'],8,0.0515319185797,0,"['num_7', 'num_4']",0,"[0.5746755177387968, 0.9580902392044663]",,,,,,,,,2018_Apr_15_1145,59.9094291977,sequenceLearningTask,001,079,
min1.png,min2.png,min3.png,min4.png,allBlank.png,,,,['num_1'],,,,,,0,7,7,7,,,,,,,,,,,,,,,,,['num_1'],8,0.0549723302247,0,"['num_4', 'num_4', 'num_1']",0,"[0.0006773335626348853, 0.4552916740067303]",,,,,,,,,2018_Apr_15_1145,59.9094291977,sequenceLearningTask,001,079,
min1.png,min2.png,min3.png,min4.png,allBlank.png,,,,['num_0'],,,,,,0,7,7,7,,,,,,,,,,,,,,,,,['num_0'],8,0.0545559198363,0,"['num_4', 'num_7', 'num_4', 'num_1', 'num_0']",0,"[0.0002863591071218252, 0.6239485635887831, 1.2574450286338106, 1.8072167413774878]",,,,,,,,,2018_Apr_15_1145,59.9094291977,sequenceLearningTask,001,079,
min1.png,min2.png,min3.png,min4.png,allBlank.png,,,,['num_7'],,,,,,0,8,8,8,,,,,,,,,,,,,,,,,['num_7'],9,0.0593624858884,1,['num_7'],0,[0.7497443075990304],,,,,,,,,2018_Apr_15_1145,59.9094291977,sequenceLearningTask,001,079,
min1.png,min2.png,min3.png,min4.png,allBlank.png,,,,['num_1'],,,,,,0,8,8,8,,,,,,,,,,,,,,,,,['num_1'],9,0.0583836137084,1,['num_1'],0,[0.4536444938275963],,,,,,,,,2018_Apr_15_1145,59.9094291977,sequenceLearningTask,001,079,
min1.png,min2.png,min3.png,min4.png,allBlank.png,,,,['num_4'],,,,,,0,8,8,8,,,,,,,,,,,,,,,,,['num_4'],9,0.0358933481621,1,['num_4'],0,[0.6107986095594242],,,,,,,,,2018_Apr_15_1145,59.9094291977,sequenceLearningTask,001,079,
min1.png,min2.png,min3.png,min4.png,allBlank.png,,,,['num_0'],,,,,,0,8,8,8,,,,,,,,,,,,,,,,,['num_0'],9,0.0482716095867,0,"['num_1', 'num_0']",0,"[0.4958701521391049, 0.8968524704687297]",,,,,,,,,2018_Apr_15_1145,59.9094291977,sequenceLearningTask,001,079,
min1.png,min2.png,min3.png,min4.png,allBlank.png,,,,['num_0'],,,,,,0,8,8,8,,,,,,,,,,,,,,,,,['num_0'],9,0.05391756061,0,"['num_7', 'num_4', 'num_1', 'num_0']",0,"[0.8407572680152953, 0.940356488339603]",,,,,,,,,2018_Apr_15_1145,59.9094291977,sequenceLearningTask,001,079,
min1.png,min2.png,min3.png,min4.png,allBlank.png,,,,['num_4'],,,,,,0,8,8,8,,,,,,,,,,,,,,,,,['num_4'],9,0.0525550984312,0,"['num_0', 'num_7', 'num_4']",0,"[0.4415349503979087, 0.6580876546213403, 0.7750243179034442]",,,,,,,,,2018_Apr_15_1145,59.9094291977,sequenceLearningTask,001,079,
min1.png,min2.png,min3.png,min4.png,allBlank.png,,,,['num_1'],,,,,,0,8,8,8,,,,,,,,,,,,,,,,,['num_1'],9,0.056067305035,0,"['num_4', 'num_7', 'num_4', 'num_4', 'num_1']",0,"[0.5217372396728024, 0.6891752571100369, 2.3052727406611666, 3.839096959680319, 4.022013547481038]",,,,,,,,,2018_Apr_15_1145,59.9094291977,sequenceLearningTask,001,079,
min1.png,min2.png,min3.png,min4.png,allBlank.png,,,,['num_0'],,,,,,0,8,8,8,,,,,,,,,,,,,,,,,['num_0'],9,0.0505912002409,0,"['num_1', 'num_1', 'num_1', 'num_0']",0,"[0.0002998976269736886, 0.6769405854865909, 1.0275782677344978, 1.0610872046090662]",,,,,,,,,2018_Apr_15_1145,59.9094291977,sequenceLearningTask,001,079,
min1.png,min2.png,min3.png,min4.png,allBlank.png,,,,['num_7'],,,,,,0,9,9,9,,,,,,,,,,,,,,,,,['num_7'],10,0.0506096617319,0,"['num_1', 'num_7', 'num_0', 'num_4', 'num_7']",0,"[0.4415706427535042, 0.4756268617929891, 0.6919617197709158, 1.5087284138426185]",,,,,,,,,2018_Apr_15_1145,59.9094291977,sequenceLearningTask,001,079,
min1.png,min2.png,min3.png,min4.png,allBlank.png,,,,['num_1'],,,,,,0,9,9,9,,,,,,,,,,,,,,,,,['num_1'],10,0.0530851499643,1,['num_1'],0,[0.9588344446383417],,,,,,,,,2018_Apr_15_1145,59.9094291977,sequenceLearningTask,001,079,
min1.png,min2.png,min3.png,min4.png,allBlank.png,,,,['num_4'],,,,,,0,9,9,9,,,,,,,,,,,,,,,,,['num_4'],10,0.0585226906696,1,['num_4'],0,[0.9014887800440192],,,,,,,,,2018_Apr_15_1145,59.9094291977,sequenceLearningTask,001,079,
min1.png,min2.png,min3.png,min4.png,allBlank.png,,,,['num_0'],,,,,,0,9,9,9,,,,,,,,,,,,,,,,,['num_0'],10,0.0497981742956,0,"['num_4', 'num_0']",0,"[0.44427915662527084, 1.4118262202246115]",,,,,,,,,2018_Apr_15_1145,59.9094291977,sequenceLearningTask,001,079,
min1.png,min2.png,min3.png,min4.png,allBlank.png,,,,['num_0'],,,,,,0,9,9,9,,,,,,,,,,,,,,,,,['num_0'],10,0.0537756117992,1,['num_0'],0,[0.656780987395905],,,,,,,,,2018_Apr_15_1145,59.9094291977,sequenceLearningTask,001,079,
min1.png,min2.png,min3.png,min4.png,allBlank.png,,,,['num_4'],,,,,,0,9,9,9,,,,,,,,,,,,,,,,,['num_4'],10,0.0467524294509,0,"['num_0', 'num_1', 'num_1', 'num_4']",0,"[0.6814251000760123, 1.4642947545507923, 2.1149239445803687, 3.2307557868771255]",,,,,,,,,2018_Apr_15_1145,59.9094291977,sequenceLearningTask,001,079,
min1.png,min2.png,min3.png,min4.png,allBlank.png,,,,['num_1'],,,,,,0,9,9,9,,,,,,,,,,,,,,,,,['num_1'],10,0.0583458701149,0,"['num_4', 'num_4', 'num_4', 'num_4', 'num_7', 'num_1']",0,"[0.00030728220008313656, 0.016757340170443058, 0.26932359766215086, 0.5185799050377682, 1.4368826408172026, 2.4356366915162653]",,,,,,,,,2018_Apr_15_1145,59.9094291977,sequenceLearningTask,001,079,
min1.png,min2.png,min3.png,min4.png,allBlank.png,,,,['num_0'],,,,,,0,9,9,9,,,,,,,,,,,,,,,,,['num_0'],10,0.057737459545,0,"['num_7', 'num_4', 'num_4', 'num_0']",0,"[2.103400247520767, 3.420087146689184, 4.003168001305312, 5.419848377350718]",,,,,,,,,2018_Apr_15_1145,59.9094291977,sequenceLearningTask,001,079,
min1.png,min2.png,min3.png,min4.png,allBlank.png,,,,['num_7'],,,,,,0,0,0,0,,,,,,,,,,,,,,,,,['num_7'],1,0.0718047474511,0,"['num_7', 'num_4', 'num_1', 'num_7', 'num_4', 'num_1', 'num_7', 'num_1', 'num_4', 'num_7', 'num_4', 'num_1', 'num_7', 'num_4', 'num_1', 'num_7', 'num_4', 'num_1', 'num_7', 'num_4', 'num_1', 'num_7', 'num_4', 'num_1', 'num_7', 'num_4', 'num_1', 'num_7', 'num_4', 'num_1', 'num_7', 'num_4', 'num_1', 'num_7']",0,"[0.0008972311625257134, 0.01904575142543763, 0.035565963364206254, 0.20633444364648312, 0.3565162488957867, 0.5398270933656022, 0.7075711621437222, 0.8741172817535698, 1.0551438175607473, 1.225770759396255, 1.4206069417996332, 1.6042837351560593]",,,,,,,,,2018_Apr_15_1145,59.9094291977,sequenceLearningTask,001,079,
min1.png,min2.png,min3.png,min4.png,allBlank.png,,,,['num_1'],,,,,,0,0,0,0,,,,,,,,,,,,,,,,,['num_1'],1,0.0632324361941,0,"['num_7', 'num_7', 'num_7', 'num_4', 'num_4', 'num_4', 'num_1']",0,"[0.0013390774838626385, 0.29502535180654377, 0.5619944869540632, 0.778909447719343, 0.9795667608268559]",,,,,,,,,2018_Apr_15_1145,59.9094291977,sequenceLearningTask,001,079,
min1.png,min2.png,min3.png,min4.png,allBlank.png,,,,['num_4'],,,,,,0,0,0,0,,,,,,,,,,,,,,,,,['num_4'],1,0.0562351000262,0,"['num_1', 'num_4']",0,"[0.00028964108787477016, 1.1210310240276158]",,,,,,,,,2018_Apr_15_1145,59.9094291977,sequenceLearningTask,001,079,
min1.png,min2.png,min3.png,min4.png,allBlank.png,,,,['num_0'],,,,,,0,0,0,0,,,,,,,,,,,,,,,,,['num_0'],1,0.0576759211253,1,['num_0'],0,[0.6532220115186647],,,,,,,,,2018_Apr_15_1145,59.9094291977,sequenceLearningTask,001,079,
min1.png,min2.png,min3.png,min4.png,allBlank.png,,,,['num_0'],,,,,,0,0,0,0,,,,,,,,,,,,,,,,,['num_0'],1,0.0503512001596,0,"['num_1', 'num_0']",0,"[0.7270411187782884, 0.7436158948112279]",,,,,,,,,2018_Apr_15_1145,59.9094291977,sequenceLearningTask,001,079,
min1.png,min2.png,min3.png,min4.png,allBlank.png,,,,['num_4'],,,,,,0,0,0,0,,,,,,,,,,,,,,,,,['num_4'],1,0.0579618699849,0,"['num_7', 'num_4']",0,"[0.9033070371951908, 1.3531414781464264]",,,,,,,,,2018_Apr_15_1145,59.9094291977,sequenceLearningTask,001,079,
min1.png,min2.png,min3.png,min4.png,allBlank.png,,,,['num_1'],,,,,,0,0,0,0,,,,,,,,,,,,,,,,,['num_1'],1,0.0476841221098,0,"['num_4', 'num_1', 'num_1']",0,"[0.7308154792990535, 1.5131883131107315]",,,,,,,,,2018_Apr_15_1145,59.9094291977,sequenceLearningTask,001,079,
min1.png,min2.png,min3.png,min4.png,allBlank.png,,,,['num_0'],,,,,,0,0,0,0,,,,,,,,,,,,,,,,,['num_0'],1,0.0516779699828,1,['num_0'],0,[0.7765246263006702],,,,,,,,,2018_Apr_15_1145,59.9094291977,sequenceLearningTask,001,079,
min1.png,min2.png,min3.png,min4.png,allBlank.png,,,,['num_7'],,,,,,0,1,1,1,,,,,,,,,,,,,,,,,['num_7'],2,0.0422252480639,0,"['num_4', 'num_1', 'num_0', 'num_1', 'num_7']",0,"[14.83466577832587, 15.350887938868254, 15.434367768000811, 15.78472442459315, 16.050569046405144]",,,,,,,,,2018_Apr_15_1145,59.9094291977,sequenceLearningTask,001,079,
min1.png,min2.png,min3.png,min4.png,allBlank.png,,,,['num_1'],,,,,,0,1,1,1,,,,,,,,,,,,,,,,,['num_1'],2,0.0521116111195,0,"['num_4', 'num_1']",0,"[0.32512751792091876, 0.6580946289468557]",,,,,,,,,2018_Apr_15_1145,59.9094291977,sequenceLearningTask,001,079,
min1.png,min2.png,min3.png,min4.png,allBlank.png,,,,['num_4'],,,,,,0,1,1,1,,,,,,,,,,,,,,,,,['num_4'],2,0.0572718183976,0,"['num_1', 'num_7', 'num_4', 'num_1', 'num_4']",0,"[0.018582982011139393, 0.5371567332185805, 1.0044324120972306, 1.7873988872161135]",,,,,,,,,2018_Apr_15_1145,59.9094291977,sequenceLearningTask,001,079,
min1.png,min2.png,min3.png,min4.png,allBlank.png,,,,['num_0'],,,,,,0,1,1,1,,,,,,,,,,,,,,,,,['num_0'],2,0.0508792004548,0,"['num_4', 'num_0']",0,"[0.09294690995011479, 1.51044615812134]",,,,,,,,,2018_Apr_15_1145,59.9094291977,sequenceLearningTask,001,079,
min1.png,min2.png,min3.png,min4.png,allBlank.png,,,,['num_0'],,,,,,0,1,1,1,,,,,,,,,,,,,,,,,['num_0'],2,0.0568508950528,1,['num_0'],0,[0.8368910100543872],,,,,,,,,2018_Apr_15_1145,59.9094291977,sequenceLearningTask,001,079,
min1.png,min2.png,min3.png,min4.png,allBlank.png,,,,['num_4'],,,,,,0,1,1,1,,,,,,,,,,,,,,,,,['num_4'],2,0.0586285368772,1,['num_4'],0,[1.4185876589035615],,,,,,,,,2018_Apr_15_1145,59.9094291977,sequenceLearningTask,001,079,
min1.png,min2.png,min3.png,min4.png,allBlank.png,,,,['num_1'],,,,,,0,1,1,1,,,,,,,,,,,,,,,,,['num_1'],2,0.0491298662964,1,['num_1'],0,[0.7802189866779372],,,,,,,,,2018_Apr_15_1145,59.9094291977,sequenceLearningTask,001,079,
min1.png,min2.png,min3.png,min4.png,allBlank.png,,,,['num_0'],,,,,,0,1,1,1,,,,,,,,,,,,,,,,,['num_0'],2,0.0531803295016,1,['num_0'],0,[0.9409484885400161],,,,,,,,,2018_Apr_15_1145,59.9094291977,sequenceLearningTask,001,079,
min1.png,min2.png,min3.png,min4.png,allBlank.png,,,,['num_7'],,,,,,0,2,2,2,,,,,,,,,,,,,,,,,['num_7'],3,0.0531589961611,1,['num_7'],0,[0.9569489053683355],,,,,,,,,2018_Apr_15_1145,59.9094291977,sequenceLearningTask,001,079,
min1.png,min2.png,min3.png,min4.png,allBlank.png,,,,['num_1'],,,,,,0,2,2,2,,,,,,,,,,,,,,,,,['num_1'],3,0.0589747934137,1,['num_1'],0,[0.9850613272283226],,,,,,,,,2018_Apr_15_1145,59.9094291977,sequenceLearningTask,001,079,
min1.png,min2.png,min3.png,min4.png,allBlank.png,,,,['num_4'],,,,,,0,2,2,2,,,,,,,,,,,,,,,,,['num_4'],3,0.050530892564,0,"['num_7', 'num_4']",0,"[0.8601365580689162, 1.2945400183089077]",,,,,,,,,2018_Apr_15_1145,59.9094291977,sequenceLearningTask,001,079,
min1.png,min2.png,min3.png,min4.png,allBlank.png,,,,['num_0'],,,,,,0,2,2,2,,,,,,,,,,,,,,,,,['num_0'],3,0.0552361251321,1,['num_0'],0,[0.8892381084151566],,,,,,,,,2018_Apr_15_1145,59.9094291977,sequenceLearningTask,001,079,
min1.png,min2.png,min3.png,min4.png,allBlank.png,,,,['num_0'],,,,,,0,2,2,2,,,,,,,,,,,,,,,,,['num_0'],3,0.0546679198742,1,['num_0'],0,[0.8718941012630239],,,,,,,,,2018_Apr_15_1145,59.9094291977,sequenceLearningTask,001,079,
min1.png,min2.png,min3.png,min4.png,allBlank.png,,,,['num_4'],,,,,,0,2,2,2,,,,,,,,,,,,,,,,,['num_4'],3,0.0528324319748,0,"['num_0', 'num_4']",0,"[0.1250917436555028, 1.5749602359719574]",,,,,,,,,2018_Apr_15_1145,59.9094291977,sequenceLearningTask,001,079,
min1.png,min2.png,min3.png,min4.png,allBlank.png,,,,['num_1'],,,,,,0,2,2,2,,,,,,,,,,,,,,,,,['num_1'],3,0.051957354648,1,['num_1'],0,[0.6756536106113344],,,,,,,,,2018_Apr_15_1145,59.9094291977,sequenceLearningTask,001,079,
min1.png,min2.png,min3.png,min4.png,allBlank.png,,,,['num_0'],,,,,,0,2,2,2,,,,,,,,,,,,,,,,,['num_0'],3,0.0518945853692,1,['num_0'],0,[0.6589036548975855],,,,,,,,,2018_Apr_15_1145,59.9094291977,sequenceLearningTask,001,079,
min1.png,min2.png,min3.png,min4.png,allBlank.png,,,,['num_7'],,,,,,0,3,3,3,,,,,,,,,,,,,,,,,['num_7'],4,0.0544143812731,1,['num_7'],0,[1.9218867372255772],,,,,,,,,2018_Apr_15_1145,59.9094291977,sequenceLearningTask,001,079,
min1.png,min2.png,min3.png,min4.png,allBlank.png,,,,['num_1'],,,,,,0,3,3,3,,,,,,,,,,,,,,,,,['num_1'],4,0.0520373546751,0,"['num_4', 'num_1']",0,"[2.8438317307736725, 3.0924324481748044]",,,,,,,,,2018_Apr_15_1145,59.9094291977,sequenceLearningTask,001,079,
min1.png,min2.png,min3.png,min4.png,allBlank.png,,,,['num_4'],,,,,,0,3,3,3,,,,,,,,,,,,,,,,,['num_4'],4,0.051544636488,0,"['num_1', 'num_1', 'num_4']",0,"[0.0002998976269736886, 0.9258165849605575, 2.227283785585314]",,,,,,,,,2018_Apr_15_1145,59.9094291977,sequenceLearningTask,001,079,
min1.png,min2.png,min3.png,min4.png,allBlank.png,,,,['num_0'],,,,,,0,3,3,3,,,,,,,,,,,,,,,,,['num_0'],4,0.0540123298997,1,['num_0'],0,[0.7727096503367648],,,,,,,,,2018_Apr_15_1145,59.9094291977,sequenceLearningTask,001,079,
min1.png,min2.png,min3.png,min4.png,allBlank.png,,,,['num_0'],,,,,,0,3,3,3,,,,,,,,,,,,,,,,,['num_0'],4,0.0485148917651,1,['num_0'],0,[3.678976688766852],,,,,,,,,2018_Apr_15_1145,59.9094291977,sequenceLearningTask,001,079,
min1.png,min2.png,min3.png,min4.png,allBlank.png,,,,['num_4'],,,,,,0,3,3,3,,,,,,,,,,,,,,,,,['num_4'],4,0.0588328446029,1,['num_4'],0,[1.0686363358981907],,,,,,,,,2018_Apr_15_1145,59.9094291977,sequenceLearningTask,001,079,
min1.png,min2.png,min3.png,min4.png,allBlank.png,,,,['num_1'],,,,,,0,3,3,3,,,,,,,,,,,,,,,,,['num_1'],4,0.0533432014054,1,['num_1'],0,[0.5076880031265318],,,,,,,,,2018_Apr_15_1145,59.9094291977,sequenceLearningTask,001,079,
min1.png,min2.png,min3.png,min4.png,allBlank.png,,,,['num_0'],,,,,,0,3,3,3,,,,,,,,,,,,,,,,,['num_0'],4,0.0578831007006,1,['num_0'],0,[0.6691399668343365],,,,,,,,,2018_Apr_15_1145,59.9094291977,sequenceLearningTask,001,079,
min1.png,min2.png,min3.png,min4.png,allBlank.png,,,,['num_7'],,,,,,0,4,4,4,,,,,,,,,,,,,,,,,['num_7'],5,0.0538375604665,1,['num_7'],0,[0.8399564471328631],,,,,,,,,2018_Apr_15_1145,59.9094291977,sequenceLearningTask,001,079,
min1.png,min2.png,min3.png,min4.png,allBlank.png,,,,['num_1'],,,,,,0,4,4,4,,,,,,,,,,,,,,,,,['num_1'],5,0.0552188945003,1,['num_1'],0,[0.7226940401596949],,,,,,,,,2018_Apr_15_1145,59.9094291977,sequenceLearningTask,001,079,
min1.png,min2.png,min3.png,min4.png,allBlank.png,,,,['num_4'],,,,,,0,4,4,4,,,,,,,,,,,,,,,,,['num_4'],5,0.0536783810239,1,['num_4'],0,[0.6907941296231002],,,,,,,,,2018_Apr_15_1145,59.9094291977,sequenceLearningTask,001,079,
min1.png,min2.png,min3.png,min4.png,allBlank.png,,,,['num_0'],,,,,,0,4,4,4,,,,,,,,,,,,,,,,,['num_0'],5,0.0551918174606,1,['num_0'],0,[0.3059127408778295],,,,,,,,,2018_Apr_15_1145,59.9094291977,sequenceLearningTask,001,079,
min1.png,min2.png,min3.png,min4.png,allBlank.png,,,,['num_0'],,,,,,0,4,4,4,,,,,,,,,,,,,,,,,['num_0'],5,0.0625920256134,0,"['num_7', 'num_0']",0,"[0.329354801797308, 0.9134489900898188]",,,,,,,,,2018_Apr_15_1145,59.9094291977,sequenceLearningTask,001,079,
min1.png,min2.png,min3.png,min4.png,allBlank.png,,,,['num_4'],,,,,,0,4,4,4,,,,,,,,,,,,,,,,,['num_4'],5,0.0530576627934,1,['num_4'],0,[1.1746326870052144],,,,,,,,,2018_Apr_15_1145,59.9094291977,sequenceLearningTask,001,079,
min1.png,min2.png,min3.png,min4.png,allBlank.png,,,,['num_1'],,,,,,0,4,4,4,,,,,,,,,,,,,,,,,['num_1'],5,0.0541784836678,1,['num_1'],0,[0.7409180474933237],,,,,,,,,2018_Apr_15_1145,59.9094291977,sequenceLearningTask,001,079,
min1.png,min2.png,min3.png,min4.png,allBlank.png,,,,['num_0'],,,,,,0,4,4,4,,,,,,,,,,,,,,,,,['num_0'],5,0.0516627903562,1,['num_0'],0,[0.6250505128409714],,,,,,,,,2018_Apr_15_1145,59.9094291977,sequenceLearningTask,001,079,
min1.png,min2.png,min3.png,min4.png,allBlank.png,,,,['num_7'],,,,,,0,5,5,5,,,,,,,,,,,,,,,,,['num_7'],6,0.0461911985185,1,['num_7'],0,[5.5138307749293745],,,,,,,,,2018_Apr_15_1145,59.9094291977,sequenceLearningTask,001,079,
min1.png,min2.png,min3.png,min4.png,allBlank.png,,,,['num_1'],,,,,,0,5,5,5,,,,,,,,,,,,,,,,,['num_1'],6,0.0525173548376,1,['num_1'],0,[0.7100511630997062],,,,,,,,,2018_Apr_15_1145,59.9094291977,sequenceLearningTask,001,079,
min1.png,min2.png,min3.png,min4.png,allBlank.png,,,,['num_4'],,,,,,0,5,5,5,,,,,,,,,,,,,,,,,['num_4'],6,0.0520201239269,1,['num_4'],0,[0.5250480102840811],,,,,,,,,2018_Apr_15_1145,59.9094291977,sequenceLearningTask,001,079,
min1.png,min2.png,min3.png,min4.png,allBlank.png,,,,['num_0'],,,,,,0,5,5,5,,,,,,,,,,,,,,,,,['num_0'],6,0.0504648413043,1,['num_0'],0,[0.31184341001790017],,,,,,,,,2018_Apr_15_1145,59.9094291977,sequenceLearningTask,001,079,
min1.png,min2.png,min3.png,min4.png,allBlank.png,,,,['num_0'],,,,,,0,5,5,5,,,,,,,,,,,,,,,,,['num_0'],6,0.0549136636546,1,['num_0'],0,[0.6727969939820468],,,,,,,,,2018_Apr_15_1145,59.9094291977,sequenceLearningTask,001,079,
min1.png,min2.png,min3.png,min4.png,allBlank.png,,,,['num_4'],,,,,,0,5,5,5,,,,,,,,,,,,,,,,,['num_4'],6,0.0608020762447,1,['num_4'],0,[1.0505690462887287],,,,,,,,,2018_Apr_15_1145,59.9094291977,sequenceLearningTask,001,079,
min1.png,min2.png,min3.png,min4.png,allBlank.png,,,,['num_1'],,,,,,0,5,5,5,,,,,,,,,,,,,,,,,['num_1'],6,0.0533034065738,1,['num_1'],0,[1.073835107148625],,,,,,,,,2018_Apr_15_1145,59.9094291977,sequenceLearningTask,001,079,
min1.png,min2.png,min3.png,min4.png,allBlank.png,,,,['num_0'],,,,,,0,5,5,5,,,,,,,,,,,,,,,,,['num_0'],6,0.050544841215,1,['num_0'],0,[0.7772815496427938],,,,,,,,,2018_Apr_15_1145,59.9094291977,sequenceLearningTask,001,079,
min1.png,min2.png,min3.png,min4.png,allBlank.png,,,,['num_7'],,,,,,0,6,6,6,,,,,,,,,,,,,,,,,['num_7'],7,0.0531261756551,1,['num_7'],0,[0.9730018350528553],,,,,,,,,2018_Apr_15_1145,59.9094291977,sequenceLearningTask,001,079,
min1.png,min2.png,min3.png,min4.png,allBlank.png,,,,['num_1'],,,,,,0,6,6,6,,,,,,,,,,,,,,,,,['num_1'],7,0.0522363290656,1,['num_1'],0,[1.192070642951876],,,,,,,,,2018_Apr_15_1145,59.9094291977,sequenceLearningTask,001,079,
min1.png,min2.png,min3.png,min4.png,allBlank.png,,,,['num_4'],,,,,,0,6,6,6,,,,,,,,,,,,,,,,,['num_4'],7,0.0498428922147,1,['num_4'],0,[0.9284828423988074],,,,,,,,,2018_Apr_15_1145,59.9094291977,sequenceLearningTask,001,079,
min1.png,min2.png,min3.png,min4.png,allBlank.png,,,,['num_0'],,,,,,0,6,6,6,,,,,,,,,,,,,,,,,['num_0'],7,0.056941151619,1,['num_0'],0,[0.787665553856641],,,,,,,,,2018_Apr_15_1145,59.9094291977,sequenceLearningTask,001,079,
min1.png,min2.png,min3.png,min4.png,allBlank.png,,,,['num_0'],,,,,,0,6,6,6,,,,,,,,,,,,,,,,,['num_0'],7,0.0414867862128,0,"['num_7', 'num_0']",0,"[0.8698395363753662, 1.6876002821372822]",,,,,,,,,2018_Apr_15_1145,59.9094291977,sequenceLearningTask,001,079,
min1.png,min2.png,min3.png,min4.png,allBlank.png,,,,['num_4'],,,,,,0,6,6,6,,,,,,,,,,,,,,,,,['num_4'],7,0.051088431268,1,['num_4'],0,[1.360581070999615],,,,,,,,,2018_Apr_15_1145,59.9094291977,sequenceLearningTask,001,079,
min1.png,min2.png,min3.png,min4.png,allBlank.png,,,,['num_1'],,,,,,0,6,6,6,,,,,,,,,,,,,,,,,['num_1'],7,0.0521395085379,1,['num_1'],0,[10.142709802137688],,,,,,,,,2018_Apr_15_1145,59.9094291977,sequenceLearningTask,001,079,
min1.png,min2.png,min3.png,min4.png,allBlank.png,,,,['num_0'],,,,,,0,6,6,6,,,,,,,,,,,,,,,,,['num_0'],7,0.0563052538782,1,['num_0'],0,[2.221728501142934],,,,,,,,,2018_Apr_15_1145,59.9094291977,sequenceLearningTask,001,079,
min1.png,min2.png,min3.png,min4.png,allBlank.png,,,,['num_7'],,,,,,0,7,7,7,,,,,,,,,,,,,,,,,['num_7'],8,0.0577218697872,1,['num_7'],0,[1.2353662503883243],,,,,,,,,2018_Apr_15_1145,59.9094291977,sequenceLearningTask,001,079,
min1.png,min2.png,min3.png,min4.png,allBlank.png,,,,['num_1'],,,,,,0,7,7,7,,,,,,,,,,,,,,,,,['num_1'],8,0.0492615585681,0,"['num_4', 'num_0', 'num_1']",0,"[1.244462869479321, 1.9448873619548976, 1.9945985617814586]",,,,,,,,,2018_Apr_15_1145,59.9094291977,sequenceLearningTask,001,079,
min1.png,min2.png,min3.png,min4.png,allBlank.png,,,,['num_4'],,,,,,0,7,7,7,,,,,,,,,,,,,,,,,['num_4'],8,0.0538392015733,0,"['num_1', 'num_1', 'num_1', 'num_4']",0,"[0.0002457436639815569, 0.05746135686058551, 0.3069949976634234, 0.6401815959252417]",,,,,,,,,2018_Apr_15_1145,59.9094291977,sequenceLearningTask,001,079,
min1.png,min2.png,min3.png,min4.png,allBlank.png,,,,['num_0'],,,,,,0,7,7,7,,,,,,,,,,,,,,,,,['num_0'],8,0.049549558782,0,"['num_1', 'num_4', 'num_1', 'num_0', 'num_0']",0,"[0.0007425644434988499, 0.34397511545103043, 0.5929155251942575, 1.3603624041425064]",,,,,,,,,2018_Apr_15_1145,59.9094291977,sequenceLearningTask,001,079,
min1.png,min2.png,min3.png,min4.png,allBlank.png,,,,['num_0'],,,,,,0,7,7,7,,,,,,,,,,,,,,,,,['num_0'],8,0.0475442246534,0,"['num_0', 'num_4', 'num_0']",0,"[0.0003807181492447853, 0.26256954355631024, 0.995974152116105]",,,,,,,,,2018_Apr_15_1145,59.9094291977,sequenceLearningTask,001,079,
min1.png,min2.png,min3.png,min4.png,allBlank.png,,,,['num_4'],,,,,,0,7,7,7,,,,,,,,,,,,,,,,,['num_4'],8,0.054036945221,0,"['num_0', 'num_0', 'num_4']",0,"[0.0006810259073972702, 0.9910203040344641]",,,,,,,,,2018_Apr_15_1145,59.9094291977,sequenceLearningTask,001,079,
min1.png,min2.png,min3.png,min4.png,allBlank.png,,,,['num_1'],,,,,,0,7,7,7,,,,,,,,,,,,,,,,,['num_1'],8,0.0561403307365,1,['num_1'],0,[0.33855152351316065],,,,,,,,,2018_Apr_15_1145,59.9094291977,sequenceLearningTask,001,079,
min1.png,min2.png,min3.png,min4.png,allBlank.png,,,,['num_0'],,,,,,0,7,7,7,,,,,,,,,,,,,,,,,['num_0'],8,0.0580500750802,0,"['num_0', 'num_0']",0,"[0.00031302578281611204, 0.43606048659421504]",,,,,,,,,2018_Apr_15_1145,59.9094291977,sequenceLearningTask,001,079,
min1.png,min2.png,min3.png,min4.png,allBlank.png,,,,['num_7'],,,,,,0,8,8,8,,,,,,,,,,,,,,,,,['num_7'],9,0.0533637141343,0,"['num_4', 'num_7']",0,"[0.3226918247528374, 0.8222961322171614]",,,,,,,,,2018_Apr_15_1145,59.9094291977,sequenceLearningTask,001,079,
min1.png,min2.png,min3.png,min4.png,allBlank.png,,,,['num_1'],,,,,,0,8,8,8,,,,,,,,,,,,,,,,,['num_1'],9,0.0561161256628,0,"['num_4', 'num_1', 'num_0', 'num_1']",0,"[0.10504988918546587, 0.38793944113422185, 0.4368165894411504]",,,,,,,,,2018_Apr_15_1145,59.9094291977,sequenceLearningTask,001,079,
min1.png,min2.png,min3.png,min4.png,allBlank.png,,,,['num_4'],,,,,,0,8,8,8,,,,,,,,,,,,,,,,,['num_4'],9,0.0547331506386,0,"['num_1', 'num_0', 'num_1', 'num_0', 'num_1', 'num_4']",0,"[0.00040820532012730837, 0.15646078216377646, 0.18972479575313628, 0.25641856680158526]",,,,,,,,,2018_Apr_15_1145,59.9094291977,sequenceLearningTask,001,079,
min1.png,min2.png,min3.png,min4.png,allBlank.png,,,,['num_0'],,,,,,0,8,8,8,,,,,,,,,,,,,,,,,['num_0'],9,0.0478982760105,0,"['num_4', 'num_1', 'num_0', 'num_0']",0,"[0.0002276924205943942, 0.08055182790849358]",,,,,,,,,2018_Apr_15_1145,59.9094291977,sequenceLearningTask,001,079,
min1.png,min2.png,min3.png,min4.png,allBlank.png,,,,['num_0'],,,,,,0,8,8,8,,,,,,,,,,,,,,,,,['num_0'],9,0.0556779715698,0,"['num_1', 'num_4', 'num_1', 'num_0', 'num_4', 'num_1', 'num_4', 'num_0', 'num_0']",0,"[0.00029661552980542183, 0.0897485496243462, 0.4063107307301834, 0.8055580740328878]",,,,,,,,,2018_Apr_15_1145,59.9094291977,sequenceLearningTask,001,079,
min1.png,min2.png,min3.png,min4.png,allBlank.png,,,,['num_4'],,,,,,0,8,8,8,,,,,,,,,,,,,,,,,['num_4'],9,0.0495155074168,0,"['num_4', 'num_1', 'num_4']",0,"[0.3791295913979411, 0.8123773589031771]",,,,,,,,,2018_Apr_15_1145,59.9094291977,sequenceLearningTask,001,079,
min1.png,min2.png,min3.png,min4.png,allBlank.png,,,,['num_1'],,,,,,0,8,8,8,,,,,,,,,,,,,,,,,['num_1'],9,0.0545460736612,0,"['num_1', 'num_1', 'num_0', 'num_0', 'num_1']",0,"[0.0002945641754195094, 0.020220726262778044, 1.1898831548169255, 1.2067742386134341]",,,,,,,,,2018_Apr_15_1145,59.9094291977,sequenceLearningTask,001,079,
min1.png,min2.png,min3.png,min4.png,allBlank.png,,,,['num_0'],,,,,,0,8,8,8,,,,,,,,,,,,,,,,,['num_0'],9,0.0509432003601,1,['num_0'],0,[0.7262284004827961],,,,,,,,,2018_Apr_15_1145,59.9094291977,sequenceLearningTask,001,079,
min1.png,min2.png,min3.png,min4.png,allBlank.png,,,,['num_7'],,,,,,0,9,9,9,,,,,,,,,,,,,,,,,['num_7'],10,0.044624428614,1,['num_7'],0,[1.366656560683623],,,,,,,,,2018_Apr_15_1145,59.9094291977,sequenceLearningTask,001,079,
min1.png,min2.png,min3.png,min4.png,allBlank.png,,,,['num_1'],,,,,,0,9,9,9,,,,,,,,,,,,,,,,,['num_1'],10,0.0514995083213,0,"['num_0', 'num_1']",0,"[0.7426866636378691, 1.3253474155208096]",,,,,,,,,2018_Apr_15_1145,59.9094291977,sequenceLearningTask,001,079,
min1.png,min2.png,min3.png,min4.png,allBlank.png,,,,['num_4'],,,,,,0,9,9,9,,,,,,,,,,,,,,,,,['num_4'],10,0.0523413548945,1,['num_4'],0,[0.1745559690752998],,,,,,,,,2018_Apr_15_1145,59.9094291977,sequenceLearningTask,001,079,
min1.png,min2.png,min3.png,min4.png,allBlank.png,,,,['num_0'],,,,,,0,9,9,9,,,,,,,,,,,,,,,,,['num_0'],10,0.067827309831,0,"['num_1', 'num_0']",0,"[0.32556238991674036, 0.79277365852613]",,,,,,,,,2018_Apr_15_1145,59.9094291977,sequenceLearningTask,001,079,
min1.png,min2.png,min3.png,min4.png,allBlank.png,,,,['num_0'],,,,,,0,9,9,9,,,,,,,,,,,,,,,,,['num_0'],10,0.0507971490733,0,"['num_4', 'num_0']",0,"[0.008176823845133185, 0.6431994433514774]",,,,,,,,,2018_Apr_15_1145,59.9094291977,sequenceLearningTask,001,079,
min1.png,min2.png,min3.png,min4.png,allBlank.png,,,,['num_4'],,,,,,0,9,9,9,,,,,,,,,,,,,,,,,['num_4'],10,0.051612739102,0,"['num_7', 'num_1', 'num_0', 'num_7', 'num_4']",0,"[0.4585507521405816, 0.5592547934502363, 0.9418567966204137, 1.0588869984494522]",,,,,,,,,2018_Apr_15_1145,59.9094291977,sequenceLearningTask,001,079,
min1.png,min2.png,min3.png,min4.png,allBlank.png,,,,['num_1'],,,,,,0,9,9,9,,,,,,,,,,,,,,,,,['num_1'],10,0.0515356108081,1,['num_1'],0,[0.5425495558883995],,,,,,,,,2018_Apr_15_1145,59.9094291977,sequenceLearningTask,001,079,
min1.png,min2.png,min3.png,min4.png,allBlank.png,,,,['num_0'],,,,,,0,9,9,9,,,,,,,,,,,,,,,,,['num_0'],10,0.0541153042577,0,"['num_4', 'num_0', 'num_0']",0,"[0.0002937436802312732, 0.4741318868473172]",,,,,,,,,2018_Apr_15_1145,59.9094291977,sequenceLearningTask,001,079,
min1.png,min2.png,min3.png,min4.png,images/allBlank.png,images/min3.png,'num_1',"['num_7', 'num_4', 'num_1', 'num_0']",['num_1'],num_1,,,,,0,9,9,9,0,0,0,2,,,,,,,,,,,,,['num_1'],,0.0579951007385,0,"['num_7', 'num_4', 'num_1', 'num_0', 'num_4', 'num_1']",0,"[0.00016697437968105078, 1.3590376857900992, 1.4256530976854265]",0,,,,,,,,2018_Apr_15_1145,59.9094291977,sequenceLearningTask,001,079,
min1.png,min2.png,min3.png,min4.png,images/allBlank.png,images/min2.png,'num_4',"['num_7', 'num_4', 'num_1', 'num_0']",['num_4'],num_4,,,,,0,9,9,9,0,1,1,1,,,,,,,,,,,,,['num_4'],,0.0458547880407,0,"['num_1', 'num_4']",0,"[0.00015876931138336658, 0.8629829181591049]",0,,,,,,,,2018_Apr_15_1145,59.9094291977,sequenceLearningTask,001,079,
min1.png,min2.png,min3.png,min4.png,images/allBlank.png,images/min1.png,'num_7',"['num_7', 'num_4', 'num_1', 'num_0']",['num_7'],num_7,,,,,0,9,9,9,0,2,2,0,,,,,,,,,,,,,['num_7'],,0.0549280225532,1,['num_7'],0,[2.4529946473194286],1,,,,,,,,2018_Apr_15_1145,59.9094291977,sequenceLearningTask,001,079,
min1.png,min2.png,min3.png,min4.png,images/allBlank.png,images/min4.png,'num_0',"['num_7', 'num_4', 'num_1', 'num_0']",['num_0'],num_0,,,,,0,9,9,9,0,3,3,3,,,,,,,,,,,,,['num_0'],,0.0583105880069,1,['num_0'],0,[0.7997193024493754],1,,,,,,,,2018_Apr_15_1145,59.9094291977,sequenceLearningTask,001,079,
min1.png,min2.png,min3.png,min4.png,images/allBlank.png,images/min2.png,'num_4',"['num_7', 'num_4', 'num_1', 'num_0']",['num_4'],num_4,,,,,0,9,9,9,1,0,4,1,,,,,,,,,,,,,['num_4'],,0.0499352000188,1,['num_4'],0,[0.9263905339175835],1,,,,,,,,2018_Apr_15_1145,59.9094291977,sequenceLearningTask,001,079,
min1.png,min2.png,min3.png,min4.png,images/allBlank.png,images/min4.png,'num_0',"['num_7', 'num_4', 'num_1', 'num_0']",['num_0'],num_0,,,,,0,9,9,9,1,1,5,3,,,,,,,,,,,,,['num_0'],,0.057390792761,0,"['num_1', 'num_0']",0,"[0.5347423732746392, 1.001627077581361]",0,,,,,,,,2018_Apr_15_1145,59.9094291977,sequenceLearningTask,001,079,
min1.png,min2.png,min3.png,min4.png,images/allBlank.png,images/min1.png,'num_7',"['num_7', 'num_4', 'num_1', 'num_0']",['num_7'],num_7,,,,,0,9,9,9,1,2,6,0,,,,,,,,,,,,,['num_7'],,0.0553550996119,1,['num_7'],0,[1.5050295405089855],1,,,,,,,,2018_Apr_15_1145,59.9094291977,sequenceLearningTask,001,079,
min1.png,min2.png,min3.png,min4.png,images/allBlank.png,images/min3.png,'num_1',"['num_7', 'num_4', 'num_1', 'num_0']",['num_1'],num_1,,,,,0,9,9,9,1,3,7,2,,,,,,,,,,,,,['num_1'],,0.0504640206927,0,"['num_4', 'num_1']",0,"[1.1922228480689228, 1.225679682334885]",0,,,,,,,,2018_Apr_15_1145,59.9094291977,sequenceLearningTask,001,079,
min1.png,min2.png,min3.png,min4.png,images/allBlank.png,images/min2.png,'num_4',"['num_7', 'num_4', 'num_1', 'num_0']",['num_4'],num_4,,,,,0,9,9,9,2,0,8,1,,,,,,,,,,,,,['num_4'],,0.0527499703458,1,['num_4'],0,[0.5885737799108028],1,,,,,,,,2018_Apr_15_1145,59.9094291977,sequenceLearningTask,001,079,
min1.png,min2.png,min3.png,min4.png,images/allBlank.png,images/min1.png,'num_7',"['num_7', 'num_4', 'num_1', 'num_0']",['num_7'],num_7,,,,,0,9,9,9,2,1,9,0,,,,,,,,,,,,,['num_7'],,0.0502383796265,1,['num_7'],0,[0.9911454322282225],1,,,,,,,,2018_Apr_15_1145,59.9094291977,sequenceLearningTask,001,079,
min1.png,min2.png,min3.png,min4.png,images/allBlank.png,images/min3.png,'num_1',"['num_7', 'num_4', 'num_1', 'num_0']",['num_1'],num_1,,,,,0,9,9,9,2,2,10,2,,,,,,,,,,,,,['num_1'],,0.0517592007527,1,['num_1'],0,[1.0918716273736209],1,,,,,,,,2018_Apr_15_1145,59.9094291977,sequenceLearningTask,001,079,
min1.png,min2.png,min3.png,min4.png,images/allBlank.png,images/min4.png,'num_0',"['num_7', 'num_4', 'num_1', 'num_0']",['num_0'],num_0,,,,,0,9,9,9,2,3,11,3,,,,,,,,,,,,,['num_0'],,0.0538601245498,1,['num_0'],0,[0.6708158649271354],1,,,,,,,,2018_Apr_15_1145,59.9094291977,sequenceLearningTask,001,079,
min1.png,min2.png,min3.png,min4.png,images/allBlank.png,images/min3.png,'num_1',"['num_7', 'num_4', 'num_1', 'num_0']",['num_1'],num_1,,,,,0,9,9,9,3,0,12,2,,,,,,,,,,,,,['num_1'],,0.0513399183983,1,['num_1'],0,[1.0916029093787074],1,,,,,,,,2018_Apr_15_1145,59.9094291977,sequenceLearningTask,001,079,
min1.png,min2.png,min3.png,min4.png,images/allBlank.png,images/min4.png,'num_0',"['num_7', 'num_4', 'num_1', 'num_0']",['num_0'],num_0,,,,,0,9,9,9,3,1,13,3,,,,,,,,,,,,,['num_0'],,0.0524500727188,0,"['num_4', 'num_0']",0,"[0.02060800837352872, 0.8387109081959352]",0,,,,,,,,2018_Apr_15_1145,59.9094291977,sequenceLearningTask,001,079,
min1.png,min2.png,min3.png,min4.png,images/allBlank.png,images/min1.png,'num_7',"['num_7', 'num_4', 'num_1', 'num_0']",['num_7'],num_7,,,,,0,9,9,9,3,2,14,0,,,,,,,,,,,,,['num_7'],,0.0467056601774,1,['num_7'],0,[1.0627721283817664],1,,,,,,,,2018_Apr_15_1145,59.9094291977,sequenceLearningTask,001,079,
min1.png,min2.png,min3.png,min4.png,images/allBlank.png,images/min2.png,'num_4',"['num_7', 'num_4', 'num_1', 'num_0']",['num_4'],num_4,,,,,0,9,9,9,3,3,15,1,,,,,,,,,,,,,['num_4'],,0.0511758158682,1,['num_4'],0,[0.5573992030695081],1,,,,,,,,2018_Apr_15_1145,59.9094291977,sequenceLearningTask,001,079,
min1.png,min2.png,min3.png,min4.png,images/allBlank.png,images/min4.png,'num_0',"['num_7', 'num_4', 'num_1', 'num_0']",['num_0'],num_0,,,,,0,9,9,9,4,0,16,3,,,,,,,,,,,,,['num_0'],,0.0574416645104,1,['num_0'],0,[0.8000942770158872],1,,,,,,,,2018_Apr_15_1145,59.9094291977,sequenceLearningTask,001,079,
min1.png,min2.png,min3.png,min4.png,images/allBlank.png,images/min1.png,'num_7',"['num_7', 'num_4', 'num_1', 'num_0']",['num_7'],num_7,,,,,0,9,9,9,4,1,17,0,,,,,,,,,,,,,['num_7'],,0.0574978697114,0,"['num_7', 'num_4', 'num_7']",0,"[1.286448527709581, 2.0516841236967593]",0,,,,,,,,2018_Apr_15_1145,59.9094291977,sequenceLearningTask,001,079,
min1.png,min2.png,min3.png,min4.png,images/allBlank.png,images/min3.png,'num_1',"['num_7', 'num_4', 'num_1', 'num_0']",['num_1'],num_1,,,,,0,9,9,9,4,2,18,2,,,,,,,,,,,,,['num_1'],,0.0594256654149,1,['num_1'],0,[1.3993876510066912],1,,,,,,,,2018_Apr_15_1145,59.9094291977,sequenceLearningTask,001,079,
min1.png,min2.png,min3.png,min4.png,images/allBlank.png,images/min2.png,'num_4',"['num_7', 'num_4', 'num_1', 'num_0']",['num_4'],num_4,,,,,0,9,9,9,4,3,19,1,,,,,,,,,,,,,['num_4'],,0.0504336617887,1,['num_4'],0,[0.9083650906104594],1,,,,,,,,2018_Apr_15_1145,59.9094291977,sequenceLearningTask,001,079,
min1.png,min2.png,min3.png,min4.png,images/allBlank.png,images/min2.png,'num_4',"['num_7', 'num_4', 'num_1', 'num_0']",['num_4'],num_4,,,,,0,9,9,9,5,0,20,1,,,,,,,,,,,,,['num_4'],,0.0507864822866,1,['num_4'],0,[1.1756189438747242],1,,,,,,,,2018_Apr_15_1145,59.9094291977,sequenceLearningTask,001,079,
min1.png,min2.png,min3.png,min4.png,images/allBlank.png,images/min1.png,'num_7',"['num_7', 'num_4', 'num_1', 'num_0']",['num_7'],num_7,,,,,0,9,9,9,5,1,21,0,,,,,,,,,,,,,['num_7'],,0.0526859703241,1,['num_7'],0,[0.9563150589819998],1,,,,,,,,2018_Apr_15_1145,59.9094291977,sequenceLearningTask,001,079,
min1.png,min2.png,min3.png,min4.png,images/allBlank.png,images/min4.png,'num_0',"['num_7', 'num_4', 'num_1', 'num_0']",['num_0'],num_0,,,,,0,9,9,9,5,2,22,3,,,,,,,,,,,,,['num_0'],,0.0590264857747,1,['num_0'],0,[1.0160057501634583],1,,,,,,,,2018_Apr_15_1145,59.9094291977,sequenceLearningTask,001,079,
min1.png,min2.png,min3.png,min4.png,images/allBlank.png,images/min3.png,'num_1',"['num_7', 'num_4', 'num_1', 'num_0']",['num_1'],num_1,,,,,0,9,9,9,5,3,23,2,,,,,,,,,,,,,['num_1'],,0.0501665846677,1,['num_1'],0,[1.0091639012098312],1,,,,,,,,2018_Apr_15_1145,59.9094291977,sequenceLearningTask,001,079,
min1.png,min2.png,min3.png,min4.png,images/allBlank.png,images/min3.png,'num_1',"['num_7', 'num_4', 'num_1', 'num_0']",['num_1'],num_1,,,,,0,9,9,9,6,0,24,2,,,,,,,,,,,,,['num_1'],,0.0505345847923,1,['num_1'],0,[0.8758612823439762],1,,,,,,,,2018_Apr_15_1145,59.9094291977,sequenceLearningTask,001,079,
min1.png,min2.png,min3.png,min4.png,images/allBlank.png,images/min1.png,'num_7',"['num_7', 'num_4', 'num_1', 'num_0']",['num_7'],num_7,,,,,0,9,9,9,6,1,25,0,,,,,,,,,,,,,['num_7'],,0.0507561233826,0,"['num_4', 'num_7']",0,"[0.45785495708696544, 1.4585269573144615]",0,,,,,,,,2018_Apr_15_1145,59.9094291977,sequenceLearningTask,001,079,
min1.png,min2.png,min3.png,min4.png,images/allBlank.png,images/min2.png,'num_4',"['num_7', 'num_4', 'num_1', 'num_0']",['num_4'],num_4,,,,,0,9,9,9,6,2,26,1,,,,,,,,,,,,,['num_4'],,0.0503159180516,1,['num_4'],0,[1.075472851516679],1,,,,,,,,2018_Apr_15_1145,59.9094291977,sequenceLearningTask,001,079,
min1.png,min2.png,min3.png,min4.png,images/allBlank.png,images/min4.png,'num_0',"['num_7', 'num_4', 'num_1', 'num_0']",['num_0'],num_0,,,,,0,9,9,9,6,3,27,3,,,,,,,,,,,,,['num_0'],,0.0557579715969,1,['num_0'],0,[1.085827317321673],1,,,,,,,,2018_Apr_15_1145,59.9094291977,sequenceLearningTask,001,079,
min1.png,min2.png,min3.png,min4.png,images/allBlank.png,images/min3.png,'num_1',"['num_7', 'num_4', 'num_1', 'num_0']",['num_1'],num_1,,,,,0,9,9,9,7,0,28,2,,,,,,,,,,,,,['num_1'],,0.0542556119617,1,['num_1'],0,[1.2541240017162636],1,,,,,,,,2018_Apr_15_1145,59.9094291977,sequenceLearningTask,001,079,
min1.png,min2.png,min3.png,min4.png,images/allBlank.png,images/min2.png,'num_4',"['num_7', 'num_4', 'num_1', 'num_0']",['num_4'],num_4,,,,,0,9,9,9,7,1,29,1,,,,,,,,,,,,,['num_4'],,0.0537116117775,1,['num_4'],0,[0.8384967541787773],1,,,,,,,,2018_Apr_15_1145,59.9094291977,sequenceLearningTask,001,079,
min1.png,min2.png,min3.png,min4.png,images/allBlank.png,images/min4.png,'num_0',"['num_7', 'num_4', 'num_1', 'num_0']",['num_0'],num_0,,,,,0,9,9,9,7,2,30,3,,,,,,,,,,,,,['num_0'],,0.0518658674555,1,['num_0'],0,[0.9739700405625626],1,,,,,,,,2018_Apr_15_1145,59.9094291977,sequenceLearningTask,001,079,
min1.png,min2.png,min3.png,min4.png,images/allBlank.png,images/min1.png,'num_7',"['num_7', 'num_4', 'num_1', 'num_0']",['num_7'],num_7,,,,,0,9,9,9,7,3,31,0,,,,,,,,,,,,,['num_7'],,0.051771918661,1,['num_7'],0,[1.140812365571037],1,,,,,,,,2018_Apr_15_1145,59.9094291977,sequenceLearningTask,001,079,
min1.png,min2.png,min3.png,min4.png,images/allBlank.png,images/min1.png,'num_7',"['num_7', 'num_4', 'num_1', 'num_0']",['num_7'],num_7,,,,,0,9,9,9,8,0,32,0,,,,,,,,,,,,,['num_7'],,0.0534588936716,1,['num_7'],0,[1.089624241925776],1,,,,,,,,2018_Apr_15_1145,59.9094291977,sequenceLearningTask,001,079,
min1.png,min2.png,min3.png,min4.png,images/allBlank.png,images/min4.png,'num_0',"['num_7', 'num_4', 'num_1', 'num_0']",['num_0'],num_0,,,,,0,9,9,9,8,1,33,3,,,,,,,,,,,,,['num_0'],,0.0549169455189,1,['num_0'],0,[0.8711482548387721],1,,,,,,,,2018_Apr_15_1145,59.9094291977,sequenceLearningTask,001,079,
min1.png,min2.png,min3.png,min4.png,images/allBlank.png,images/min2.png,'num_4',"['num_7', 'num_4', 'num_1', 'num_0']",['num_4'],num_4,,,,,0,9,9,9,8,2,34,1,,,,,,,,,,,,,['num_4'],,0.0586712035583,1,['num_4'],0,[1.2335652239853516],1,,,,,,,,2018_Apr_15_1145,59.9094291977,sequenceLearningTask,001,079,
min1.png,min2.png,min3.png,min4.png,images/allBlank.png,images/min3.png,'num_1',"['num_7', 'num_4', 'num_1', 'num_0']",['num_1'],num_1,,,,,0,9,9,9,8,3,35,2,,,,,,,,,,,,,['num_1'],,0.0572299722116,1,['num_1'],0,[1.0527614575112239],1,,,,,,,,2018_Apr_15_1145,59.9094291977,sequenceLearningTask,001,079,
min1.png,min2.png,min3.png,min4.png,images/allBlank.png,images/min3.png,'num_1',"['num_7', 'num_4', 'num_1', 'num_0']",['num_1'],num_1,,,,,0,9,9,9,9,0,36,2,,,,,,,,,,,,,['num_1'],,0.0518420726294,1,['num_1'],0,[0.840121780638583],1,,,,,,,,2018_Apr_15_1145,59.9094291977,sequenceLearningTask,001,079,
min1.png,min2.png,min3.png,min4.png,images/allBlank.png,images/min2.png,'num_4',"['num_7', 'num_4', 'num_1', 'num_0']",['num_4'],num_4,,,,,0,9,9,9,9,1,37,1,,,,,,,,,,,,,['num_4'],,0.0515233031474,1,['num_4'],0,[1.4913011245662346],1,,,,,,,,2018_Apr_15_1145,59.9094291977,sequenceLearningTask,001,079,
min1.png,min2.png,min3.png,min4.png,images/allBlank.png,images/min4.png,'num_0',"['num_7', 'num_4', 'num_1', 'num_0']",['num_0'],num_0,,,,,0,9,9,9,9,2,38,3,,,,,,,,,,,,,['num_0'],,0.0519975597272,1,['num_0'],0,[0.6905090011423454],1,,,,,,,,2018_Apr_15_1145,59.9094291977,sequenceLearningTask,001,079,
min1.png,min2.png,min3.png,min4.png,images/allBlank.png,images/min1.png,'num_7',"['num_7', 'num_4', 'num_1', 'num_0']",['num_7'],num_7,,,,,0,9,9,9,9,3,39,0,,,,,,,,,,,,,['num_7'],,0.0583848444512,1,['num_7'],0,[1.0666703862370923],1,,,,,,,,2018_Apr_15_1145,59.9094291977,sequenceLearningTask,001,079,
min1.png,min2.png,min3.png,min4.png,images/allBlank.png,images/min3.png,'num_1',"['num_7', 'num_4', 'num_1', 'num_0']",['num_1'],num_1,,,,,0,9,9,9,10,0,40,2,,,,,,,,,,,,,['num_1'],,0.0480373530881,0,"['num_0', 'num_1']",0,"[1.0767926468979567, 1.5290849349694327]",0,,,,,,,,2018_Apr_15_1145,59.9094291977,sequenceLearningTask,001,079,
min1.png,min2.png,min3.png,min4.png,images/allBlank.png,images/min4.png,'num_0',"['num_7', 'num_4', 'num_1', 'num_0']",['num_0'],num_0,,,,,0,9,9,9,10,1,41,3,,,,,,,,,,,,,['num_0'],,0.0529452523915,0,"['num_1', 'num_1', 'num_0']",0,"[0.0002190771047025919, 0.5717069011880085, 1.039334169938229]",0,,,,,,,,2018_Apr_15_1145,59.9094291977,sequenceLearningTask,001,079,
min1.png,min2.png,min3.png,min4.png,images/allBlank.png,images/min1.png,'num_7',"['num_7', 'num_4', 'num_1', 'num_0']",['num_7'],num_7,,,,,0,9,9,9,10,2,42,0,,,,,,,,,,,,,['num_7'],,0.0519015596947,1,['num_7'],0,[1.1077067108126357],1,,,,,,,,2018_Apr_15_1145,59.9094291977,sequenceLearningTask,001,079,
min1.png,min2.png,min3.png,min4.png,images/allBlank.png,images/min2.png,'num_4',"['num_7', 'num_4', 'num_1', 'num_0']",['num_4'],num_4,,,,,0,9,9,9,10,3,43,1,,,,,,,,,,,,,['num_4'],,0.0552779714344,1,['num_4'],0,[1.036699912394397],1,,,,,,,,2018_Apr_15_1145,59.9094291977,sequenceLearningTask,001,079,
min1.png,min2.png,min3.png,min4.png,images/allBlank.png,images/min2.png,'num_4',"['num_7', 'num_4', 'num_1', 'num_0']",['num_4'],num_4,,,,,0,9,9,9,11,0,44,1,,,,,,,,,,,,,['num_4'],,0.0507770464756,1,['num_4'],0,[0.7408827655017376],1,,,,,,,,2018_Apr_15_1145,59.9094291977,sequenceLearningTask,001,079,
min1.png,min2.png,min3.png,min4.png,images/allBlank.png,images/min4.png,'num_0',"['num_7', 'num_4', 'num_1', 'num_0']",['num_0'],num_0,,,,,0,9,9,9,11,1,45,3,,,,,,,,,,,,,['num_0'],,0.0578059725231,1,['num_0'],0,[0.8681025099940598],1,,,,,,,,2018_Apr_15_1145,59.9094291977,sequenceLearningTask,001,079,
min1.png,min2.png,min3.png,min4.png,images/allBlank.png,images/min3.png,'num_1',"['num_7', 'num_4', 'num_1', 'num_0']",['num_1'],num_1,,,,,0,9,9,9,11,2,46,2,,,,,,,,,,,,,['num_1'],,0.0491671996424,1,['num_1'],0,[1.093450704938732],1,,,,,,,,2018_Apr_15_1145,59.9094291977,sequenceLearningTask,001,079,
min1.png,min2.png,min3.png,min4.png,images/allBlank.png,images/min1.png,'num_7',"['num_7', 'num_4', 'num_1', 'num_0']",['num_7'],num_7,,,,,0,9,9,9,11,3,47,0,,,,,,,,,,,,,['num_7'],,0.0500833025435,1,['num_7'],0,[3.8265984929166734],1,,,,,,,,2018_Apr_15_1145,59.9094291977,sequenceLearningTask,001,079,
min1.png,min2.png,min3.png,min4.png,images/allBlank.png,images/min3.png,'num_1',"['num_7', 'num_4', 'num_1', 'num_0']",['num_1'],num_1,,,,,0,9,9,9,12,0,48,2,,,,,,,,,,,,,['num_1'],,0.0533157142345,1,['num_1'],0,[1.0053411304252222],1,,,,,,,,2018_Apr_15_1145,59.9094291977,sequenceLearningTask,001,079,
min1.png,min2.png,min3.png,min4.png,images/allBlank.png,images/min2.png,'num_4',"['num_7', 'num_4', 'num_1', 'num_0']",['num_4'],num_4,,,,,0,9,9,9,12,1,49,1,,,,,,,,,,,,,['num_4'],,0.0573961260961,1,['num_4'],0,[1.668929505161941],1,,,,,,,,2018_Apr_15_1145,59.9094291977,sequenceLearningTask,001,079,
min1.png,min2.png,min3.png,min4.png,images/allBlank.png,images/min4.png,'num_0',"['num_7', 'num_4', 'num_1', 'num_0']",['num_0'],num_0,,,,,0,9,9,9,12,2,50,3,,,,,,,,,,,,,['num_0'],,0.0518121238565,0,"['num_4', 'num_0']",0,"[0.00022851291578263044, 0.9737386559136212]",0,,,,,,,,2018_Apr_15_1145,59.9094291977,sequenceLearningTask,001,079,
min1.png,min2.png,min3.png,min4.png,images/allBlank.png,images/min1.png,'num_7',"['num_7', 'num_4', 'num_1', 'num_0']",['num_7'],num_7,,,,,0,9,9,9,12,3,51,0,,,,,,,,,,,,,['num_7'],,0.0508012516657,1,['num_7'],0,[1.1586281677009538],1,,,,,,,,2018_Apr_15_1145,59.9094291977,sequenceLearningTask,001,079,
min1.png,min2.png,min3.png,min4.png,images/allBlank.png,images/min1.png,'num_7',"['num_7', 'num_4', 'num_1', 'num_0']",['num_7'],num_7,,,,,0,9,9,9,13,0,52,0,,,,,,,,,,,,,['num_7'],,0.0495610459475,1,['num_7'],0,[1.1937289000488818],1,,,,,,,,2018_Apr_15_1145,59.9094291977,sequenceLearningTask,001,079,
min1.png,min2.png,min3.png,min4.png,images/allBlank.png,images/min3.png,'num_1',"['num_7', 'num_4', 'num_1', 'num_0']",['num_1'],num_1,,,,,0,9,9,9,13,1,53,2,,,,,,,,,,,,,['num_1'],,0.0564931514673,0,"['num_4', 'num_1', 'num_1']",0,"[0.8527835293207318, 1.119410100276582]",0,,,,,,,,2018_Apr_15_1145,59.9094291977,sequenceLearningTask,001,079,
min1.png,min2.png,min3.png,min4.png,images/allBlank.png,images/min4.png,'num_0',"['num_7', 'num_4', 'num_1', 'num_0']",['num_0'],num_0,,,,,0,9,9,9,13,2,54,3,,,,,,,,,,,,,['num_0'],,0.0532234064303,1,['num_0'],0,[0.7220975270029157],1,,,,,,,,2018_Apr_15_1145,59.9094291977,sequenceLearningTask,001,079,
min1.png,min2.png,min3.png,min4.png,images/allBlank.png,images/min2.png,'num_4',"['num_7', 'num_4', 'num_1', 'num_0']",['num_4'],num_4,,,,,0,9,9,9,13,3,55,1,,,,,,,,,,,,,['num_4'],,0.0477760195499,1,['num_4'],0,[1.3954971878556535],1,,,,,,,,2018_Apr_15_1145,59.9094291977,sequenceLearningTask,001,079,
min1.png,min2.png,min3.png,min4.png,images/allBlank.png,images/min4.png,'num_0',"['num_7', 'num_4', 'num_1', 'num_0']",['num_0'],num_0,,,,,0,9,9,9,14,0,56,3,,,,,,,,,,,,,['num_0'],,0.0589563319227,1,['num_0'],0,[0.7170419351896271],1,,,,,,,,2018_Apr_15_1145,59.9094291977,sequenceLearningTask,001,079,
min1.png,min2.png,min3.png,min4.png,images/allBlank.png,images/min3.png,'num_1',"['num_7', 'num_4', 'num_1', 'num_0']",['num_1'],num_1,,,,,0,9,9,9,14,1,57,2,,,,,,,,,,,,,['num_1'],,0.0498486359138,0,"['num_0', 'num_1']",0,"[0.00024205143563449383, 0.859301685821265]",0,,,,,,,,2018_Apr_15_1145,59.9094291977,sequenceLearningTask,001,079,
min1.png,min2.png,min3.png,min4.png,images/allBlank.png,images/min1.png,'num_7',"['num_7', 'num_4', 'num_1', 'num_0']",['num_7'],num_7,,,,,0,9,9,9,14,2,58,0,,,,,,,,,,,,,['num_7'],,0.0572824849514,1,['num_7'],0,[2.036022168584168],1,,,,,,,,2018_Apr_15_1145,59.9094291977,sequenceLearningTask,001,079,
min1.png,min2.png,min3.png,min4.png,images/allBlank.png,images/min2.png,'num_4',"['num_7', 'num_4', 'num_1', 'num_0']",['num_4'],num_4,,,,,0,9,9,9,14,3,59,1,,,,,,,,,,,,,['num_4'],,0.050287200138,1,['num_4'],0,[1.7408954835264012],1,,,,,,,,2018_Apr_15_1145,59.9094291977,sequenceLearningTask,001,079,
min1.png,min2.png,min3.png,min4.png,images/allBlank.png,images/min2.png,'num_4',"['num_7', 'num_4', 'num_1', 'num_0']",['num_4'],num_4,,,,,0,9,9,9,15,0,60,1,,,,,,,,,,,,,['num_4'],,0.0542346888687,1,['num_4'],0,[0.6544207812985405],1,,,,,,,,2018_Apr_15_1145,59.9094291977,sequenceLearningTask,001,079,
min1.png,min2.png,min3.png,min4.png,images/allBlank.png,images/min4.png,'num_0',"['num_7', 'num_4', 'num_1', 'num_0']",['num_0'],num_0,,,,,0,9,9,9,15,1,61,3,,,,,,,,,,,,,['num_0'],,0.0494273023214,1,['num_0'],0,[0.8763281544670463],1,,,,,,,,2018_Apr_15_1145,59.9094291977,sequenceLearningTask,001,079,
min1.png,min2.png,min3.png,min4.png,images/allBlank.png,images/min3.png,'num_1',"['num_7', 'num_4', 'num_1', 'num_0']",['num_1'],num_1,,,,,0,9,9,9,15,2,62,2,,,,,,,,,,,,,['num_1'],,0.0523425856372,0,"['num_4', 'num_4', 'num_1', 'num_1']",0,"[0.7727158041670918, 1.2232932198094204, 1.4395177187398076]",0,,,,,,,,2018_Apr_15_1145,59.9094291977,sequenceLearningTask,001,079,
min1.png,min2.png,min3.png,min4.png,images/allBlank.png,images/min1.png,'num_7',"['num_7', 'num_4', 'num_1', 'num_0']",['num_7'],num_7,,,,,0,9,9,9,15,3,63,0,,,,,,,,,,,,,['num_7'],,0.0547655608971,0,"['num_1', 'num_1', 'num_7']",0,"[0.0004254360683262348, 0.6198062030598521, 1.5370512972585857]",0,,,,,,,,2018_Apr_15_1145,59.9094291977,sequenceLearningTask,001,079,
min1.png,min2.png,min3.png,min4.png,images/allBlank.png,images/min1.png,'num_7',"['num_7', 'num_4', 'num_1', 'num_0']",['num_7'],num_7,,,,,0,9,9,9,16,0,64,0,,,,,,,,,,,,,['num_7'],,0.0499520205194,1,['num_7'],0,[0.9759085029363632],1,,,,,,,,2018_Apr_15_1145,59.9094291977,sequenceLearningTask,001,079,
min1.png,min2.png,min3.png,min4.png,images/allBlank.png,images/min2.png,'num_4',"['num_7', 'num_4', 'num_1', 'num_0']",['num_4'],num_4,,,,,0,9,9,9,16,1,65,1,,,,,,,,,,,,,['num_4'],,0.0499704821268,1,['num_4'],0,[0.7926538636675104],1,,,,,,,,2018_Apr_15_1145,59.9094291977,sequenceLearningTask,001,079,
min1.png,min2.png,min3.png,min4.png,images/allBlank.png,images/min4.png,'num_0',"['num_7', 'num_4', 'num_1', 'num_0']",['num_0'],num_0,,,,,0,9,9,9,16,2,66,3,,,,,,,,,,,,,['num_0'],,0.0513161235722,1,['num_0'],0,[0.941160591202788],1,,,,,,,,2018_Apr_15_1145,59.9094291977,sequenceLearningTask,001,079,
min1.png,min2.png,min3.png,min4.png,images/allBlank.png,images/min3.png,'num_1',"['num_7', 'num_4', 'num_1', 'num_0']",['num_1'],num_1,,,,,0,9,9,9,16,3,67,2,,,,,,,,,,,,,['num_1'],,0.0518256623764,1,['num_1'],0,[0.5571752029936761],1,,,,,,,,2018_Apr_15_1145,59.9094291977,sequenceLearningTask,001,079,
min1.png,min2.png,min3.png,min4.png,images/allBlank.png,images/min4.png,'num_0',"['num_7', 'num_4', 'num_1', 'num_0']",['num_0'],num_0,,,,,0,9,9,9,17,0,68,3,,,,,,,,,,,,,['num_0'],,0.0521423803875,1,['num_0'],0,[0.5232638044981286],1,,,,,,,,2018_Apr_15_1145,59.9094291977,sequenceLearningTask,001,079,
min1.png,min2.png,min3.png,min4.png,images/allBlank.png,images/min1.png,'num_7',"['num_7', 'num_4', 'num_1', 'num_0']",['num_7'],num_7,,,,,0,9,9,9,17,1,69,0,,,,,,,,,,,,,['num_7'],,0.0501887385035,0,"['num_1', 'num_7']",0,"[0.692033514729701, 1.57573439006228]",0,,,,,,,,2018_Apr_15_1145,59.9094291977,sequenceLearningTask,001,079,
min1.png,min2.png,min3.png,min4.png,images/allBlank.png,images/min3.png,'num_1',"['num_7', 'num_4', 'num_1', 'num_0']",['num_1'],num_1,,,,,0,9,9,9,17,2,70,2,,,,,,,,,,,,,['num_1'],,0.0507434053579,0,"['num_4', 'num_1']",0,"[0.5748753127409145, 1.4584584444528446]",0,,,,,,,,2018_Apr_15_1145,59.9094291977,sequenceLearningTask,001,079,
min1.png,min2.png,min3.png,min4.png,images/allBlank.png,images/min2.png,'num_4',"['num_7', 'num_4', 'num_1', 'num_0']",['num_4'],num_4,,,,,0,9,9,9,17,3,71,1,,,,,,,,,,,,,['num_4'],,0.0482494556345,1,['num_4'],0,[0.5446853516623378],1,,,,,,,,2018_Apr_15_1145,59.9094291977,sequenceLearningTask,001,079,
min1.png,min2.png,min3.png,min4.png,images/allBlank.png,images/min3.png,'num_1',"['num_7', 'num_4', 'num_1', 'num_0']",['num_1'],num_1,,,,,0,9,9,9,18,0,72,2,,,,,,,,,,,,,['num_1'],,0.0505682257935,1,['num_1'],0,[0.525297446292825],1,,,,,,,,2018_Apr_15_1145,59.9094291977,sequenceLearningTask,001,079,
min1.png,min2.png,min3.png,min4.png,images/allBlank.png,images/min4.png,'num_0',"['num_7', 'num_4', 'num_1', 'num_0']",['num_0'],num_0,,,,,0,9,9,9,18,1,73,3,,,,,,,,,,,,,['num_0'],,0.0646387957968,1,['num_0'],0,[0.8434752178145573],1,,,,,,,,2018_Apr_15_1145,59.9094291977,sequenceLearningTask,001,079,
min1.png,min2.png,min3.png,min4.png,images/allBlank.png,images/min2.png,'num_4',"['num_7', 'num_4', 'num_1', 'num_0']",['num_4'],num_4,,,,,0,9,9,9,18,2,74,1,,,,,,,,,,,,,['num_4'],,0.057529049227,1,['num_4'],0,[0.8515950160799548],1,,,,,,,,2018_Apr_15_1145,59.9094291977,sequenceLearningTask,001,079,
min1.png,min2.png,min3.png,min4.png,images/allBlank.png,images/min1.png,'num_7',"['num_7', 'num_4', 'num_1', 'num_0']",['num_7'],num_7,,,,,0,9,9,9,18,3,75,0,,,,,,,,,,,,,['num_7'],,0.0569772541057,1,['num_7'],0,[1.6859030505875126],1,,,,,,,,2018_Apr_15_1145,59.9094291977,sequenceLearningTask,001,079,
min1.png,min2.png,min3.png,min4.png,images/allBlank.png,images/min2.png,'num_4',"['num_7', 'num_4', 'num_1', 'num_0']",['num_4'],num_4,,,,,0,9,9,9,19,0,76,1,,,,,,,,,,,,,['num_4'],,0.0488418660825,1,['num_4'],0,[1.9798018378205597],1,,,,,,,,2018_Apr_15_1145,59.9094291977,sequenceLearningTask,001,079,
min1.png,min2.png,min3.png,min4.png,images/allBlank.png,images/min4.png,'num_0',"['num_7', 'num_4', 'num_1', 'num_0']",['num_0'],num_0,,,,,0,9,9,9,19,1,77,3,,,,,,,,,,,,,['num_0'],,0.0505948924692,0,"['num_1', 'num_0']",0,"[1.1915959760081023, 1.8086579728405923]",0,,,,,,,,2018_Apr_15_1145,59.9094291977,sequenceLearningTask,001,079,
min1.png,min2.png,min3.png,min4.png,images/allBlank.png,images/min1.png,'num_7',"['num_7', 'num_4', 'num_1', 'num_0']",['num_7'],num_7,,,,,0,9,9,9,19,2,78,0,,,,,,,,,,,,,['num_7'],,0.0513850466814,1,['num_7'],0,[2.007254977361299],1,,,,,,,,2018_Apr_15_1145,59.9094291977,sequenceLearningTask,001,079,
min1.png,min2.png,min3.png,min4.png,images/allBlank.png,images/min3.png,'num_1',"['num_7', 'num_4', 'num_1', 'num_0']",['num_1'],num_1,,,,,0,9,9,9,19,3,79,2,,,,,,,,,,,,,['num_1'],,0.0501600205898,1,['num_1'],0,[1.1919340274762362],1,,,,,,,,2018_Apr_15_1145,59.9094291977,sequenceLearningTask,001,079,
min1.png,min2.png,min3.png,min4.png,allBlank.png,,,,['num_7'],,,,,,0,0,0,0,,,,,,,,,,,,,,,,,['num_7'],1,0.05478648399,0,"['num_0', 'num_4', 'num_1', 'num_7', 'num_7', 'num_4', 'num_7']",0,"[0.0009887183550745249, 0.8290633144788444]",,,,,,,,,2018_Apr_15_1145,59.9094291977,sequenceLearningTask,001,079,
min1.png,min2.png,min3.png,min4.png,allBlank.png,,,,['num_1'],,,,,,0,0,0,0,,,,,,,,,,,,,,,,,['num_1'],1,0.0522560214158,1,['num_1'],0,[0.9585394700989127],,,,,,,,,2018_Apr_15_1145,59.9094291977,sequenceLearningTask,001,079,
min1.png,min2.png,min3.png,min4.png,allBlank.png,,,,['num_4'],,,,,,0,0,0,0,,,,,,,,,,,,,,,,,['num_4'],1,0.0565231001237,1,['num_4'],0,[0.8884565696353093],,,,,,,,,2018_Apr_15_1145,59.9094291977,sequenceLearningTask,001,079,
min1.png,min2.png,min3.png,min4.png,allBlank.png,,,,['num_0'],,,,,,0,0,0,0,,,,,,,,,,,,,,,,,['num_0'],1,0.0584340752102,1,['num_0'],0,[0.6025122471619397],,,,,,,,,2018_Apr_15_1145,59.9094291977,sequenceLearningTask,001,079,
min1.png,min2.png,min3.png,min4.png,allBlank.png,,,,['num_0'],,,,,,0,0,0,0,,,,,,,,,,,,,,,,,['num_0'],1,0.0541132529033,1,['num_0'],0,[0.740390867809765],,,,,,,,,2018_Apr_15_1145,59.9094291977,sequenceLearningTask,001,079,
min1.png,min2.png,min3.png,min4.png,allBlank.png,,,,['num_4'],,,,,,0,0,0,0,,,,,,,,,,,,,,,,,['num_4'],1,0.0525514062028,0,"['num_7', 'num_4', 'num_4']",0,"[1.208362752222456, 2.024665446020663]",,,,,,,,,2018_Apr_15_1145,59.9094291977,sequenceLearningTask,001,079,
min1.png,min2.png,min3.png,min4.png,allBlank.png,,,,['num_1'],,,,,,0,0,0,0,,,,,,,,,,,,,,,,,['num_1'],1,0.050507507869,1,['num_1'],0,[1.043256222968921],,,,,,,,,2018_Apr_15_1145,59.9094291977,sequenceLearningTask,001,079,
min1.png,min2.png,min3.png,min4.png,allBlank.png,,,,['num_0'],,,,,,0,0,0,0,,,,,,,,,,,,,,,,,['num_0'],1,0.0580554084154,1,['num_0'],0,[0.5871124459663406],,,,,,,,,2018_Apr_15_1145,59.9094291977,sequenceLearningTask,001,079,
min1.png,min2.png,min3.png,min4.png,allBlank.png,,,,['num_7'],,,,,,0,1,1,1,,,,,,,,,,,,,,,,,['num_7'],2,0.0522724317852,1,['num_7'],0,[0.9571052131941542],,,,,,,,,2018_Apr_15_1145,59.9094291977,sequenceLearningTask,001,079,
min1.png,min2.png,min3.png,min4.png,allBlank.png,,,,['num_1'],,,,,,0,1,1,1,,,,,,,,,,,,,,,,,['num_1'],2,0.0645362315699,1,['num_1'],0,[1.7634936465183273],,,,,,,,,2018_Apr_15_1145,59.9094291977,sequenceLearningTask,001,079,
min1.png,min2.png,min3.png,min4.png,allBlank.png,,,,['num_4'],,,,,,0,1,1,1,,,,,,,,,,,,,,,,,['num_4'],2,0.0511955082184,1,['num_4'],0,[0.9601911631179973],,,,,,,,,2018_Apr_15_1145,59.9094291977,sequenceLearningTask,001,079,
min1.png,min2.png,min3.png,min4.png,allBlank.png,,,,['num_0'],,,,,,0,1,1,1,,,,,,,,,,,,,,,,,['num_0'],2,0.0554465869209,1,['num_0'],0,[1.371894306386821],,,,,,,,,2018_Apr_15_1145,59.9094291977,sequenceLearningTask,001,079,
min1.png,min2.png,min3.png,min4.png,allBlank.png,,,,['num_0'],,,,,,0,1,1,1,,,,,,,,,,,,,,,,,['num_0'],2,0.0504947899608,1,['num_0'],0,[1.2610901583684608],,,,,,,,,2018_Apr_15_1145,59.9094291977,sequenceLearningTask,001,079,
min1.png,min2.png,min3.png,min4.png,allBlank.png,,,,['num_4'],,,,,,0,1,1,1,,,,,,,,,,,,,,,,,['num_4'],2,0.0556492536562,1,['num_4'],0,[1.8226871066726744],,,,,,,,,2018_Apr_15_1145,59.9094291977,sequenceLearningTask,001,079,
min1.png,min2.png,min3.png,min4.png,allBlank.png,,,,['num_1'],,,,,,0,1,1,1,,,,,,,,,,,,,,,,,['num_1'],2,0.0514954057289,1,['num_1'],0,[1.1431500074686483],,,,,,,,,2018_Apr_15_1145,59.9094291977,sequenceLearningTask,001,079,
min1.png,min2.png,min3.png,min4.png,allBlank.png,,,,['num_0'],,,,,,0,1,1,1,,,,,,,,,,,,,,,,,['num_0'],2,0.0546822788892,1,['num_0'],0,[1.0238732405705377],,,,,,,,,2018_Apr_15_1145,59.9094291977,sequenceLearningTask,001,079,
min1.png,min2.png,min3.png,min4.png,allBlank.png,,,,['num_7'],,,,,,0,2,2,2,,,,,,,,,,,,,,,,,['num_7'],3,0.0456205315422,1,['num_7'],0,[2.313944333931431],,,,,,,,,2018_Apr_15_1145,59.9094291977,sequenceLearningTask,001,079,
min1.png,min2.png,min3.png,min4.png,allBlank.png,,,,['num_1'],,,,,,0,2,2,2,,,,,,,,,,,,,,,,,['num_1'],3,0.0518387904158,1,['num_1'],0,[6.290545349940658],,,,,,,,,2018_Apr_15_1145,59.9094291977,sequenceLearningTask,001,079,
min1.png,min2.png,min3.png,min4.png,allBlank.png,,,,['num_4'],,,,,,0,2,2,2,,,,,,,,,,,,,,,,,['num_4'],3,0.0506453540875,1,['num_4'],0,[1.443903771811165],,,,,,,,,2018_Apr_15_1145,59.9094291977,sequenceLearningTask,001,079,
min1.png,min2.png,min3.png,min4.png,allBlank.png,,,,['num_0'],,,,,,0,2,2,2,,,,,,,,,,,,,,,,,['num_0'],3,0.0515339698177,1,['num_0'],0,[1.343336756224744],,,,,,,,,2018_Apr_15_1145,59.9094291977,sequenceLearningTask,001,079,
min1.png,min2.png,min3.png,min4.png,allBlank.png,,,,['num_0'],,,,,,0,2,2,2,,,,,,,,,,,,,,,,,['num_0'],3,0.0494593023323,1,['num_0'],0,[0.6781344320625067],,,,,,,,,2018_Apr_15_1145,59.9094291977,sequenceLearningTask,001,079,
min1.png,min2.png,min3.png,min4.png,allBlank.png,,,,['num_4'],,,,,,0,2,2,2,,,,,,,,,,,,,,,,,['num_4'],3,0.0593665884808,1,['num_4'],0,[1.4674799866043031],,,,,,,,,2018_Apr_15_1145,59.9094291977,sequenceLearningTask,001,079,
min1.png,min2.png,min3.png,min4.png,allBlank.png,,,,['num_1'],,,,,,0,2,2,2,,,,,,,,,,,,,,,,,['num_1'],3,0.055329663679,1,['num_1'],0,[0.43892161594703794],,,,,,,,,2018_Apr_15_1145,59.9094291977,sequenceLearningTask,001,079,
min1.png,min2.png,min3.png,min4.png,allBlank.png,,,,['num_0'],,,,,,0,2,2,2,,,,,,,,,,,,,,,,,['num_0'],3,0.0574785877252,1,['num_0'],0,[1.1865407944424078],,,,,,,,,2018_Apr_15_1145,59.9094291977,sequenceLearningTask,001,079,
min1.png,min2.png,min3.png,min4.png,allBlank.png,,,,['num_7'],,,,,,0,3,3,3,,,,,,,,,,,,,,,,,['num_7'],4,0.0520586880157,1,['num_7'],0,[0.8738444610498846],,,,,,,,,2018_Apr_15_1145,59.9094291977,sequenceLearningTask,001,079,
min1.png,min2.png,min3.png,min4.png,allBlank.png,,,,['num_1'],,,,,,0,3,3,3,,,,,,,,,,,,,,,,,['num_1'],4,0.0544923300622,1,['num_1'],0,[0.45743649546056986],,,,,,,,,2018_Apr_15_1145,59.9094291977,sequenceLearningTask,001,079,
min1.png,min2.png,min3.png,min4.png,allBlank.png,,,,['num_4'],,,,,,0,3,3,3,,,,,,,,,,,,,,,,,['num_4'],4,0.0469690449536,1,['num_4'],0,[0.24842184549197555],,,,,,,,,2018_Apr_15_1145,59.9094291977,sequenceLearningTask,001,079,
min1.png,min2.png,min3.png,min4.png,allBlank.png,,,,['num_0'],,,,,,0,3,3,3,,,,,,,,,,,,,,,,,['num_0'],4,0.0510646363255,0,"['num_1', 'num_0']",0,"[0.07637746725231409, 0.443349925451912]",,,,,,,,,2018_Apr_15_1145,59.9094291977,sequenceLearningTask,001,079,
min1.png,min2.png,min3.png,min4.png,allBlank.png,,,,['num_0'],,,,,,0,3,3,3,,,,,,,,,,,,,,,,,['num_0'],4,0.0568796130829,0,"['num_0', 'num_7', 'num_1', 'num_0']",0,"[0.00029948726296424866, 0.3873494922881946, 0.6705770957050845, 0.8712491779588163]",,,,,,,,,2018_Apr_15_1145,59.9094291977,sequenceLearningTask,001,079,
min1.png,min2.png,min3.png,min4.png,allBlank.png,,,,['num_4'],,,,,,0,3,3,3,,,,,,,,,,,,,,,,,['num_4'],4,0.0625879231375,0,"['num_0', 'num_0', 'num_0', 'num_1', 'num_4']",0,"[0.00032574369106441736, 0.6144010726129636, 0.7806981664616615]",,,,,,,,,2018_Apr_15_1145,59.9094291977,sequenceLearningTask,001,079,
min1.png,min2.png,min3.png,min4.png,allBlank.png,,,,['num_1'],,,,,,0,3,3,3,,,,,,,,,,,,,,,,,['num_1'],4,0.0594453576487,0,"['num_7', 'num_0', 'num_1']",0,"[0.0002998976269736886, 0.38530805555637926, 0.7519412315450609]",,,,,,,,,2018_Apr_15_1145,59.9094291977,sequenceLearningTask,001,079,
min1.png,min2.png,min3.png,min4.png,allBlank.png,,,,['num_0'],,,,,,0,3,3,3,,,,,,,,,,,,,,,,,['num_0'],4,0.0521181753138,0,"['num_4', 'num_4', 'num_4', 'num_1', 'num_1', 'num_1', 'num_0']",0,"[0.0007499490166082978, 0.17460848193150014, 0.40770150057505816, 0.6244901024037972, 0.8083433059509844]",,,,,,,,,2018_Apr_15_1145,59.9094291977,sequenceLearningTask,001,079,
min1.png,min2.png,min3.png,min4.png,allBlank.png,,,,['num_7'],,,,,,0,4,4,4,,,,,,,,,,,,,,,,,['num_7'],5,0.0558629973093,1,['num_7'],0,[1.219497936195694],,,,,,,,,2018_Apr_15_1145,59.9094291977,sequenceLearningTask,001,079,
min1.png,min2.png,min3.png,min4.png,allBlank.png,,,,['num_1'],,,,,,0,4,4,4,,,,,,,,,,,,,,,,,['num_1'],5,0.051905662287,0,"['num_1', 'num_4', 'num_1']",0,"[0.024137445725500584, 0.4257905336562544, 0.7925742738880217]",,,,,,,,,2018_Apr_15_1145,59.9094291977,sequenceLearningTask,001,079,
min1.png,min2.png,min3.png,min4.png,allBlank.png,,,,['num_4'],,,,,,0,4,4,4,,,,,,,,,,,,,,,,,['num_4'],5,0.0493604305666,0,"['num_0', 'num_0', 'num_1', 'num_7', 'num_4', 'num_4', 'num_1', 'num_0', 'num_4', 'num_1', 'num_4']",0,"[0.0005173335084691644, 0.1771930983522907, 0.5941081412602216, 0.6946386439958587, 1.1115836355602369, 1.1607836557086557, 1.5122504666214809, 1.7778280114289373]",,,,,,,,,2018_Apr_15_1145,59.9094291977,sequenceLearningTask,001,079,
min1.png,min2.png,min3.png,min4.png,allBlank.png,,,,['num_0'],,,,,,0,4,4,4,,,,,,,,,,,,,,,,,['num_0'],5,0.0542543812189,0,"['num_4', 'num_1', 'num_4', 'num_1', 'num_1', 'num_0']",0,"[0.0006933335680514574, 0.03958278545178473, 0.289828221546486, 0.4895033803768456, 0.9227490965276957]",,,,,,,,,2018_Apr_15_1145,59.9094291977,sequenceLearningTask,001,079,
min1.png,min2.png,min3.png,min4.png,allBlank.png,,,,['num_0'],,,,,,0,4,4,4,,,,,,,,,,,,,,,,,['num_0'],5,0.0588915114058,0,"['num_1', 'num_4', 'num_0']",0,"[0.23494696815032512, 0.3352157272165641, 0.6849754604045302]",,,,,,,,,2018_Apr_15_1145,59.9094291977,sequenceLearningTask,001,079,
min1.png,min2.png,min3.png,min4.png,allBlank.png,,,,['num_4'],,,,,,0,4,4,4,,,,,,,,,,,,,,,,,['num_4'],5,0.0495233023539,0,"['num_7', 'num_4']",0,"[0.5949561415472999, 0.9453747468069196]",,,,,,,,,2018_Apr_15_1145,59.9094291977,sequenceLearningTask,001,079,
min1.png,min2.png,min3.png,min4.png,allBlank.png,,,,['num_1'],,,,,,0,4,4,4,,,,,,,,,,,,,,,,,['num_1'],5,0.0516849443084,1,['num_1'],0,[0.8079043313628063],,,,,,,,,2018_Apr_15_1145,59.9094291977,sequenceLearningTask,001,079,
min1.png,min2.png,min3.png,min4.png,allBlank.png,,,,['num_0'],,,,,,0,4,4,4,,,,,,,,,,,,,,,,,['num_0'],5,0.0554584843339,1,['num_0'],0,[0.7879917079117149],,,,,,,,,2018_Apr_15_1145,59.9094291977,sequenceLearningTask,001,079,
min1.png,min2.png,min3.png,min4.png,allBlank.png,,,,['num_7'],,,,,,0,5,5,5,,,,,,,,,,,,,,,,,['num_7'],6,0.0548874071101,0,"['num_4', 'num_7', 'num_4', 'num_7', 'num_4', 'num_7']",0,"[0.000770461861975491, 0.3211644395487383, 0.6387994416290894, 1.0207507777959108]",,,,,,,,,2018_Apr_15_1145,59.9094291977,sequenceLearningTask,001,079,
min1.png,min2.png,min3.png,min4.png,allBlank.png,,,,['num_1'],,,,,,0,5,5,5,,,,,,,,,,,,,,,,,['num_1'],6,0.0595733578084,1,['num_1'],0,[0.8175753097748384],,,,,,,,,2018_Apr_15_1145,59.9094291977,sequenceLearningTask,001,079,
min1.png,min2.png,min3.png,min4.png,allBlank.png,,,,['num_4'],,,,,,0,5,5,5,,,,,,,,,,,,,,,,,['num_4'],6,0.0561838179128,0,"['num_7', 'num_4']",0,"[0.5214028806658462, 1.1714954549679533]",,,,,,,,,2018_Apr_15_1145,59.9094291977,sequenceLearningTask,001,079,
min1.png,min2.png,min3.png,min4.png,allBlank.png,,,,['num_0'],,,,,,0,5,5,5,,,,,,,,,,,,,,,,,['num_0'],6,0.0541567400796,0,"['num_1', 'num_0', 'num_0']",0,"[1.2578979519894347, 1.756550464197062]",,,,,,,,,2018_Apr_15_1145,59.9094291977,sequenceLearningTask,001,079,
min1.png,min2.png,min3.png,min4.png,allBlank.png,,,,['num_0'],,,,,,0,5,5,5,,,,,,,,,,,,,,,,,['num_0'],6,0.0567200231599,0,"['num_0', 'num_0']",0,"[0.00029292318504303694, 0.07066874695010483]",,,,,,,,,2018_Apr_15_1145,59.9094291977,sequenceLearningTask,001,079,
min1.png,min2.png,min3.png,min4.png,allBlank.png,,,,['num_4'],,,,,,0,5,5,5,,,,,,,,,,,,,,,,,['num_4'],6,0.0554301765515,0,"['num_7', 'num_7', 'num_4', 'num_4']",0,"[0.7720060603460297, 1.139470005990006, 1.622785076033324]",,,,,,,,,2018_Apr_15_1145,59.9094291977,sequenceLearningTask,001,079,
min1.png,min2.png,min3.png,min4.png,allBlank.png,,,,['num_1'],,,,,,0,5,5,5,,,,,,,,,,,,,,,,,['num_1'],6,0.0579413571395,0,"['num_4', 'num_1', 'num_4', 'num_4', 'num_4', 'num_1', 'num_1']",0,"[0.0002998976269736886, 0.15304457559250295, 0.5358447326580063, 1.0698675159364939]",,,,,,,,,2018_Apr_15_1145,59.9094291977,sequenceLearningTask,001,079,
min1.png,min2.png,min3.png,min4.png,allBlank.png,,,,['num_0'],,,,,,0,5,5,5,,,,,,,,,,,,,,,,,['num_0'],6,0.0531224834267,1,['num_0'],0,[0.3248875179560855],,,,,,,,,2018_Apr_15_1145,59.9094291977,sequenceLearningTask,001,079,
min1.png,min2.png,min3.png,min4.png,allBlank.png,,,,['num_7'],,,,,,0,6,6,6,,,,,,,,,,,,,,,,,['num_7'],7,0.0507823798107,0,"['num_4', 'num_4', 'num_4', 'num_4', 'num_7']",0,"[0.8592623012373224, 1.6423461097292602, 1.9580504443729296, 2.2254290155833587, 3.075120030785911]",,,,,,,,,2018_Apr_15_1145,59.9094291977,sequenceLearningTask,001,079,
min1.png,min2.png,min3.png,min4.png,allBlank.png,,,,['num_1'],,,,,,0,6,6,6,,,,,,,,,,,,,,,,,['num_1'],7,0.0506913028657,0,"['num_0', 'num_0', 'num_1']",0,"[0.37620076979510486, 0.89328857162036, 1.2106634710216895]",,,,,,,,,2018_Apr_15_1145,59.9094291977,sequenceLearningTask,001,079,
min1.png,min2.png,min3.png,min4.png,allBlank.png,,,,['num_4'],,,,,,0,6,6,6,,,,,,,,,,,,,,,,,['num_4'],7,0.049153250875,0,"['num_0', 'num_4']",0,"[0.00032287195790559053, 0.5283497552154586]",,,,,,,,,2018_Apr_15_1145,59.9094291977,sequenceLearningTask,001,079,
min1.png,min2.png,min3.png,min4.png,allBlank.png,,,,['num_0'],,,,,,0,6,6,6,,,,,,,,,,,,,,,,,['num_0'],7,0.0475360194687,1,['num_0'],0,[0.8473911168985069],,,,,,,,,2018_Apr_15_1145,59.9094291977,sequenceLearningTask,001,079,
min1.png,min2.png,min3.png,min4.png,allBlank.png,,,,['num_0'],,,,,,0,6,6,6,,,,,,,,,,,,,,,,,['num_0'],7,0.0525723292958,1,['num_0'],0,[0.5081794905709103],,,,,,,,,2018_Apr_15_1145,59.9094291977,sequenceLearningTask,001,079,
min1.png,min2.png,min3.png,min4.png,allBlank.png,,,,['num_4'],,,,,,0,6,6,6,,,,,,,,,,,,,,,,,['num_4'],7,0.0538892529439,0,"['num_1', 'num_1', 'num_1', 'num_1', 'num_4']",0,"[0.8750026153866202, 1.5409594014054164, 1.8739585124421865, 2.124747948604636, 2.6077274287818]",,,,,,,,,2018_Apr_15_1145,59.9094291977,sequenceLearningTask,001,079,
min1.png,min2.png,min3.png,min4.png,allBlank.png,,,,['num_1'],,,,,,0,6,6,6,,,,,,,,,,,,,,,,,['num_1'],7,0.050933764549,0,"['num_0', 'num_0', 'num_1']",0,"[1.3774307189742103, 1.843548653763719, 1.876664564711973]",,,,,,,,,2018_Apr_15_1145,59.9094291977,sequenceLearningTask,001,079,
min1.png,min2.png,min3.png,min4.png,allBlank.png,,,,['num_0'],,,,,,0,6,6,6,,,,,,,,,,,,,,,,,['num_0'],7,0.0520312008448,0,"['num_1', 'num_1', 'num_0']",0,"[0.9924020481994376, 1.6753623283002526, 1.9919007145799696]",,,,,,,,,2018_Apr_15_1145,59.9094291977,sequenceLearningTask,001,079,
min1.png,min2.png,min3.png,min4.png,allBlank.png,,,,['num_7'],,,,,,0,7,7,7,,,,,,,,,,,,,,,,,['num_7'],8,0.05095222604,0,"['num_1', 'num_4', 'num_4', 'num_4', 'num_4', 'num_4', 'num_4', 'num_4', 'num_7']",0,"[0.000340102706104517, 0.8248918255558237, 1.8097533577820286, 2.1081547109642997, 2.358171223779209, 2.592229576315731, 2.858590300893411, 3.109067942132242, 3.674981610267423]",,,,,,,,,2018_Apr_15_1145,59.9094291977,sequenceLearningTask,001,079,
min1.png,min2.png,min3.png,min4.png,allBlank.png,,,,['num_1'],,,,,,0,7,7,7,,,,,,,,,,,,,,,,,['num_1'],8,0.0541132530198,0,"['num_0', 'num_0', 'num_1']",0,"[0.7076060338877141, 1.1903976165922359, 1.4574648030102253]",,,,,,,,,2018_Apr_15_1145,59.9094291977,sequenceLearningTask,001,079,
min1.png,min2.png,min3.png,min4.png,allBlank.png,,,,['num_4'],,,,,,0,7,7,7,,,,,,,,,,,,,,,,,['num_4'],8,0.0569337669294,1,['num_4'],0,[0.4369942306075245],,,,,,,,,2018_Apr_15_1145,59.9094291977,sequenceLearningTask,001,079,
min1.png,min2.png,min3.png,min4.png,allBlank.png,,,,['num_0'],,,,,,0,7,7,7,,,,,,,,,,,,,,,,,['num_0'],8,0.0835503932321,1,['num_0'],0,[0.6233795377193019],,,,,,,,,2018_Apr_15_1145,59.9094291977,sequenceLearningTask,001,079,
min1.png,min2.png,min3.png,min4.png,allBlank.png,,,,['num_0'],,,,,,0,7,7,7,,,,,,,,,,,,,,,,,['num_0'],8,0.0568939720979,1,['num_0'],0,[0.6545007813256234],,,,,,,,,2018_Apr_15_1145,59.9094291977,sequenceLearningTask,001,079,
min1.png,min2.png,min3.png,min4.png,allBlank.png,,,,['num_4'],,,,,,0,7,7,7,,,,,,,,,,,,,,,,,['num_4'],8,0.0533070988022,0,"['num_1', 'num_1', 'num_1', 'num_1', 'num_4']",0,"[1.2245933228405192, 1.9257755592698231, 2.474286963813938, 3.27454165101517, 3.8078276134328917]",,,,,,,,,2018_Apr_15_1145,59.9094291977,sequenceLearningTask,001,079,
min1.png,min2.png,min3.png,min4.png,allBlank.png,,,,['num_1'],,,,,,0,7,7,7,,,,,,,,,,,,,,,,,['num_1'],8,0.058283100836,0,"['num_0', 'num_1']",0,"[0.6360269276192412, 1.0693965412210673]",,,,,,,,,2018_Apr_15_1145,59.9094291977,sequenceLearningTask,001,079,
min1.png,min2.png,min3.png,min4.png,allBlank.png,,,,['num_0'],,,,,,0,7,7,7,,,,,,,,,,,,,,,,,['num_0'],8,0.0548291507876,1,['num_0'],0,[0.6721032501664013],,,,,,,,,2018_Apr_15_1145,59.9094291977,sequenceLearningTask,001,079,
min1.png,min2.png,min3.png,min4.png,allBlank.png,,,,['num_7'],,,,,,0,8,8,8,,,,,,,,,,,,,,,,,['num_7'],9,0.0492418663343,1,['num_7'],0,[1.110688045504503],,,,,,,,,2018_Apr_15_1145,59.9094291977,sequenceLearningTask,001,079,
min1.png,min2.png,min3.png,min4.png,allBlank.png,,,,['num_1'],,,,,,0,8,8,8,,,,,,,,,,,,,,,,,['num_1'],9,0.0548816635273,0,"['num_4', 'num_1', 'num_1']",0,"[0.9726547580212355, 1.439458641805686]",,,,,,,,,2018_Apr_15_1145,59.9094291977,sequenceLearningTask,001,079,
min1.png,min2.png,min3.png,min4.png,allBlank.png,,,,['num_4'],,,,,,0,8,8,8,,,,,,,,,,,,,,,,,['num_4'],9,0.0500681231497,1,['num_4'],0,[0.7275551703060046],,,,,,,,,2018_Apr_15_1145,59.9094291977,sequenceLearningTask,001,079,
min1.png,min2.png,min3.png,min4.png,allBlank.png,,,,['num_0'],,,,,,0,8,8,8,,,,,,,,,,,,,,,,,['num_0'],9,0.0518195084296,1,['num_0'],0,[0.4588777266908437],,,,,,,,,2018_Apr_15_1145,59.9094291977,sequenceLearningTask,001,079,
min1.png,min2.png,min3.png,min4.png,allBlank.png,,,,['num_0'],,,,,,0,8,8,8,,,,,,,,,,,,,,,,,['num_0'],9,0.0537592015462,0,"['num_1', 'num_0']",0,"[0.5739473124267533, 1.207668187795207]",,,,,,,,,2018_Apr_15_1145,59.9094291977,sequenceLearningTask,001,079,
min1.png,min2.png,min3.png,min4.png,allBlank.png,,,,['num_4'],,,,,,0,8,8,8,,,,,,,,,,,,,,,,,['num_4'],9,0.0538494578796,0,"['num_0', 'num_4']",0,"[0.3244358254596591, 1.0076032852521166]",,,,,,,,,2018_Apr_15_1145,59.9094291977,sequenceLearningTask,001,079,
min1.png,min2.png,min3.png,min4.png,allBlank.png,,,,['num_1'],,,,,,0,8,8,8,,,,,,,,,,,,,,,,,['num_1'],9,0.0404554011766,1,['num_1'],0,[1.0538933555362746],,,,,,,,,2018_Apr_15_1145,59.9094291977,sequenceLearningTask,001,079,
min1.png,min2.png,min3.png,min4.png,allBlank.png,,,,['num_0'],,,,,,0,8,8,8,,,,,,,,,,,,,,,,,['num_0'],9,0.0486744814552,1,['num_0'],0,[0.6619461176451296],,,,,,,,,2018_Apr_15_1145,59.9094291977,sequenceLearningTask,001,079,
min1.png,min2.png,min3.png,min4.png,allBlank.png,,,,['num_7'],,,,,,0,9,9,9,,,,,,,,,,,,,,,,,['num_7'],10,0.0508906875039,0,"['num_4', 'num_7']",0,"[1.1228993324330077, 2.9086900138063356]",,,,,,,,,2018_Apr_15_1145,59.9094291977,sequenceLearningTask,001,079,
min1.png,min2.png,min3.png,min4.png,allBlank.png,,,,['num_1'],,,,,,0,9,9,9,,,,,,,,,,,,,,,,,['num_1'],10,0.0540943811648,0,"['num_0', 'num_1']",0,"[0.5404802217381075, 0.9739240919006988]",,,,,,,,,2018_Apr_15_1145,59.9094291977,sequenceLearningTask,001,079,
min1.png,min2.png,min3.png,min4.png,allBlank.png,,,,['num_4'],,,,,,0,9,9,9,,,,,,,,,,,,,,,,,['num_4'],10,0.0631241283845,0,"['num_1', 'num_4']",0,"[0.6126304052304476, 0.7292860428569838]",,,,,,,,,2018_Apr_15_1145,59.9094291977,sequenceLearningTask,001,079,
min1.png,min2.png,min3.png,min4.png,allBlank.png,,,,['num_0'],,,,,,0,9,9,9,,,,,,,,,,,,,,,,,['num_0'],10,0.0530806372408,1,['num_0'],0,[0.8740262046921998],,,,,,,,,2018_Apr_15_1145,59.9094291977,sequenceLearningTask,001,079,
min1.png,min2.png,min3.png,min4.png,allBlank.png,,,,['num_0'],,,,,,0,9,9,9,,,,,,,,,,,,,,,,,['num_0'],10,0.0564615615876,1,['num_0'],0,[0.9703085005749017],,,,,,,,,2018_Apr_15_1145,59.9094291977,sequenceLearningTask,001,079,
min1.png,min2.png,min3.png,min4.png,allBlank.png,,,,['num_4'],,,,,,0,9,9,9,,,,,,,,,,,,,,,,,['num_4'],10,0.0587417676579,0,"['num_7', 'num_4']",0,"[0.9352500246604905, 1.4680346535751596]",,,,,,,,,2018_Apr_15_1145,59.9094291977,sequenceLearningTask,001,079,
min1.png,min2.png,min3.png,min4.png,allBlank.png,,,,['num_1'],,,,,,0,9,9,9,,,,,,,,,,,,,,,,,['num_1'],10,0.0570539721521,1,['num_1'],0,[1.9706161931389943],,,,,,,,,2018_Apr_15_1145,59.9094291977,sequenceLearningTask,001,079,
min1.png,min2.png,min3.png,min4.png,allBlank.png,,,,['num_0'],,,,,,0,9,9,9,,,,,,,,,,,,,,,,,['num_0'],10,0.0514904827578,0,"['num_0', 'num_0']",0,"[0.00029702577739953995, 0.5755998258246109]",,,,,,,,,2018_Apr_15_1145,59.9094291977,sequenceLearningTask,001,079,
min1.png,min2.png,min3.png,min4.png,allBlank.png,,,,,,,,,,0,9,9,9,,,,,0,-1,-1,0,,,,,,,,,,,,,,,,,,,,,,,,2018_Apr_15_1145,59.9094291977,sequenceLearningTask,001,079,
min1.png,min2.png,min3.png,min4.png,allBlank.png,,,,,,,,,,0,9,9,9,,,,,0,-1,-1,0,,,,,,,,,,,,,,,,,['3'],,,,,,,2018_Apr_15_1145,59.9094291977,sequenceLearningTask,001,079,
min1.png,min2.png,min3.png,min4.png,allBlank.png,,,,,,,,,,0,9,9,9,,,,,0,-1,-1,0,,,,,,,,,,,,,,,,,['2'],,,,,,,2018_Apr_15_1145,59.9094291977,sequenceLearningTask,001,079,
min1.png,min2.png,min3.png,min4.png,allBlank.png,,,,,,,,,,0,9,9,9,,,,,0,-1,-1,0,,,,,,,,,,,,,,,,,['1'],,,,,,,2018_Apr_15_1145,59.9094291977,sequenceLearningTask,001,079,
min1.png,min2.png,min3.png,min4.png,allBlank.png,,,,,,,,,,0,9,9,9,,,,,0,-1,-1,0,,,,,,,,,,,,,,,,,['2'],,,,,,,2018_Apr_15_1145,59.9094291977,sequenceLearningTask,001,079,
min1.png,min2.png,min3.png,min4.png,allBlank.png,,,,,,0,0,0,0,0,9,9,9,,,,,0,-1,-1,0,,,,,,,,,,,,,,,,,,return,5.94569023419,2back na,"[2.2666035966249183, 3.7669914942234755, 4.348593784146942, 4.716456909314729]",,,2018_Apr_15_1145,59.9094291977,sequenceLearningTask,001,079,
min1.png,min2.png,min3.png,min4.png,allBlank.png,,,,['3'],,,,,,0,9,9,9,,,,,0,-1,-1,0,0,0,0,0,,,,,['3'],1,,0,,,,,,,,,,['4'],19.112345482,2018_Apr_15_1145,59.9094291977,sequenceLearningTask,001,079,
min1.png,min2.png,min3.png,min4.png,allBlank.png,,,,['2'],,,,,,0,9,9,9,,,,,0,-1,-1,0,0,0,0,0,,,,,['2'],1,,0,,,,,,,,,,['1'],4.79896443035,2018_Apr_15_1145,59.9094291977,sequenceLearningTask,001,079,
min1.png,min2.png,min3.png,min4.png,allBlank.png,,,,['4'],,,,,,0,9,9,9,,,,,0,-1,-1,0,0,0,0,0,,,,,['4'],1,,1,,,,,,,,,,['4'],5.48161291552,2018_Apr_15_1145,59.9094291977,sequenceLearningTask,001,079,
min1.png,min2.png,min3.png,min4.png,allBlank.png,,,,['4'],,,,,,0,9,9,9,,,,,0,-1,-1,0,0,0,0,0,,,,,['4'],1,,0,,,,,,,,,,['3'],3.56719859166,2018_Apr_15_1145,59.9094291977,sequenceLearningTask,001,079,
min1.png,min2.png,min3.png,min4.png,allBlank.png,,,,['2'],,,,,,0,9,9,9,,,,,0,-1,-1,0,0,0,0,0,,,,,['2'],1,,0,,,,,,,,,,['1'],3.38240384927,2018_Apr_15_1145,59.9094291977,sequenceLearningTask,001,079,
min1.png,min2.png,min3.png,min4.png,allBlank.png,,,,['3'],,,,,,0,9,9,9,,,,,0,-1,-1,0,0,0,0,0,,,,,['3'],1,,0,,,,,,,,,,['2'],2.88324877259,2018_Apr_15_1145,59.9094291977,sequenceLearningTask,001,079,
min1.png,min2.png,min3.png,min4.png,allBlank.png,,,,['4'],,,,,,0,9,9,9,,,,,0,-1,-1,0,0,0,0,0,,,,,['4'],1,,0,,,,,,,,,,['3'],2.83197654644,2018_Apr_15_1145,59.9094291977,sequenceLearningTask,001,079,
min1.png,min2.png,min3.png,min4.png,allBlank.png,,,,['2'],,,,,,0,9,9,9,,,,,0,-1,-1,0,0,0,0,0,,,,,['2'],1,,0,,,,,,,,,,['4'],2.08269418776,2018_Apr_15_1145,59.9094291977,sequenceLearningTask,001,079,
min1.png,min2.png,min3.png,min4.png,allBlank.png,,,,['1'],,,,,,0,9,9,9,,,,,0,-1,-1,0,0,0,0,0,,,,,['1'],1,,0,,,,,,,,,,['4'],2.14930508693,2018_Apr_15_1145,59.9094291977,sequenceLearningTask,001,079,
min1.png,min2.png,min3.png,min4.png,allBlank.png,,,,['1'],,,,,,0,9,9,9,,,,,0,-1,-1,0,0,0,0,0,0,0,0,0,['1'],1,,0,,,,,,,,,,['3'],25.5504154053,2018_Apr_15_1145,59.9094291977,sequenceLearningTask,001,079,
min1.png,min2.png,min3.png,min4.png,allBlank.png,,,,['3'],,,,,,0,9,9,9,,,,,0,-1,-1,0,0,0,0,0,0,0,0,0,['3'],1,,0,,,,,,,,,,['2'],3.20918203448,2018_Apr_15_1145,59.9094291977,sequenceLearningTask,001,079,
