pawPatrol1,pawPatrol2,pawPatrol3,pawPatrol4,blank,trials.thisRepN,trials.thisTrialN,trials.thisN,trials.thisIndex,trials_3.thisRepN,trials_3.thisTrialN,trials_3.thisN,trials_3.thisIndex,correctKey,repetitionNumber,stimulusPresent.t,trialCorrect,key_resp_9.keys,key_resp_9.corr,key_resp_9.rt,date,frameRate,expName,session,participant,
min1.png,min2.png,min3.png,min4.png,allBlank.png,,,,,0,0,0,0,['num_7'],1,0.0542658683844,0,"['num_0', 'num_7', 'num_4', 'num_1', 'num_0', 'num_7']",0,"[0.0003487181384116411, 1.1053707099054009]",2018_Apr_21_1424,59.8839663816,sequenceLearningTask,001,080,
min1.png,min2.png,min3.png,min4.png,allBlank.png,,,,,0,0,0,0,['num_1'],1,0.0568271002267,1,['num_1'],0,[1.4374336153268814],2018_Apr_21_1424,59.8839663816,sequenceLearningTask,001,080,
min1.png,min2.png,min3.png,min4.png,allBlank.png,,,,,0,0,0,0,['num_4'],1,0.0603479221463,0,"['num_1', 'num_4']",0,"[0.000285538611933589, 0.534383398713544]",2018_Apr_21_1424,59.8839663816,sequenceLearningTask,001,080,
min1.png,min2.png,min3.png,min4.png,allBlank.png,,,,,0,0,0,0,['num_0'],1,0.0499097642023,1,['num_0'],0,[0.8120405382942408],2018_Apr_21_1424,59.8839663816,sequenceLearningTask,001,080,
min1.png,min2.png,min3.png,min4.png,allBlank.png,,,,,0,0,0,0,['num_0'],1,0.0568069976289,1,['num_0'],0,[2.187916384777054],2018_Apr_21_1424,59.8839663816,sequenceLearningTask,001,080,
min1.png,min2.png,min3.png,min4.png,allBlank.png,,,,,0,0,0,0,['num_4'],1,0.0500504821539,1,['num_4'],0,[1.0779910064302385],2018_Apr_21_1424,59.8839663816,sequenceLearningTask,001,080,
min1.png,min2.png,min3.png,min4.png,allBlank.png,,,,,0,0,0,0,['num_1'],1,0.0563187922817,1,['num_1'],0,[1.1884603849612176],2018_Apr_21_1424,59.8839663816,sequenceLearningTask,001,080,
min1.png,min2.png,min3.png,min4.png,allBlank.png,,,,,0,0,0,0,['num_0'],1,0.0525099702645,1,['num_0'],0,[0.7759958056267351],2018_Apr_21_1424,59.8839663816,sequenceLearningTask,001,080,
min1.png,min2.png,min3.png,min4.png,allBlank.png,,,,,0,1,1,1,['num_7'],2,0.0504258668516,1,['num_7'],0,[1.1742667381186038],2018_Apr_21_1424,59.8839663816,sequenceLearningTask,001,080,
min1.png,min2.png,min3.png,min4.png,allBlank.png,,,,,0,1,1,1,['num_1'],2,0.0498453537002,0,"['num_4', 'num_1']",0,"[0.2942286334000528, 1.078377468045801]",2018_Apr_21_1424,59.8839663816,sequenceLearningTask,001,080,
min1.png,min2.png,min3.png,min4.png,allBlank.png,,,,,0,1,1,1,['num_4'],2,0.0534129450098,0,"['num_0', 'num_4']",0,"[0.2743426766246557, 0.824918492231518]",2018_Apr_21_1424,59.8839663816,sequenceLearningTask,001,080,
min1.png,min2.png,min3.png,min4.png,allBlank.png,,,,,0,1,1,1,['num_0'],2,0.0535922271665,1,['num_0'],0,[0.9743979382328689],2018_Apr_21_1424,59.8839663816,sequenceLearningTask,001,080,
min1.png,min2.png,min3.png,min4.png,allBlank.png,,,,,0,1,1,1,['num_0'],2,0.0529017653316,1,['num_0'],0,[0.9585891112219542],2018_Apr_21_1424,59.8839663816,sequenceLearningTask,001,080,
min1.png,min2.png,min3.png,min4.png,allBlank.png,,,,,0,1,1,1,['num_4'],2,0.056016023038,1,['num_4'],0,[1.1552993457298726],2018_Apr_21_1424,59.8839663816,sequenceLearningTask,001,080,
min1.png,min2.png,min3.png,min4.png,allBlank.png,,,,,0,1,1,1,['num_1'],2,0.055590176722,0,"['num_0', 'num_1']",0,"[0.6545364737976342, 1.3882844671607018]",2018_Apr_21_1424,59.8839663816,sequenceLearningTask,001,080,
min1.png,min2.png,min3.png,min4.png,allBlank.png,,,,,0,1,1,1,['num_0'],2,0.0578995109536,1,['num_0'],0,[1.1031729653477669],2018_Apr_21_1424,59.8839663816,sequenceLearningTask,001,080,
min1.png,min2.png,min3.png,min4.png,allBlank.png,,,,,0,2,2,2,['num_7'],3,0.0543852532282,0,"['num_4', 'num_0', 'num_1', 'num_0', 'num_7']",0,"[0.7042476735077798, 1.8371076255571097, 2.4187968897167593, 2.8710772804915905, 3.4204924802761525]",2018_Apr_21_1424,59.8839663816,sequenceLearningTask,001,080,
min1.png,min2.png,min3.png,min4.png,allBlank.png,,,,,0,2,2,2,['num_1'],3,0.051502790302,0,"['num_4', 'num_1']",0,"[0.5423875043634325, 1.2594429780729115]",2018_Apr_21_1424,59.8839663816,sequenceLearningTask,001,080,
min1.png,min2.png,min3.png,min4.png,allBlank.png,,,,,0,2,2,2,['num_4'],3,0.0598978707567,0,"['num_7', 'num_1', 'num_7', 'num_4']",0,"[0.4502475692424923, 1.5500855590216815, 2.6841795628424734, 3.249904512660578]",2018_Apr_21_1424,59.8839663816,sequenceLearningTask,001,080,
min1.png,min2.png,min3.png,min4.png,allBlank.png,,,,,0,2,2,2,['num_0'],3,0.0566675104201,1,['num_0'],0,[1.8376421895809472],2018_Apr_21_1424,59.8839663816,sequenceLearningTask,001,080,
min1.png,min2.png,min3.png,min4.png,allBlank.png,,,,,0,2,2,2,['num_0'],3,0.0531126370188,1,['num_0'],0,[1.041750170988962],2018_Apr_21_1424,59.8839663816,sequenceLearningTask,001,080,
min1.png,min2.png,min3.png,min4.png,allBlank.png,,,,,0,2,2,2,['num_4'],3,0.0503269950859,0,"['num_0', 'num_1', 'num_4']",0,"[1.0608139736577868, 1.678280483232811, 2.1448218028526753]",2018_Apr_21_1424,59.8839663816,sequenceLearningTask,001,080,
min1.png,min2.png,min3.png,min4.png,allBlank.png,,,,,0,2,2,2,['num_1'],3,0.0541218684521,0,"['num_0', 'num_1']",0,"[1.0075191827490926, 1.55732904933393]",2018_Apr_21_1424,59.8839663816,sequenceLearningTask,001,080,
min1.png,min2.png,min3.png,min4.png,allBlank.png,,,,,0,2,2,2,['num_0'],3,0.0570285362191,1,['num_0'],0,[0.8041943812277168],2018_Apr_21_1424,59.8839663816,sequenceLearningTask,001,080,
min1.png,min2.png,min3.png,min4.png,allBlank.png,,,,,0,3,3,3,['num_7'],4,0.049790789606,1,['num_7'],0,[1.3601966607384384],2018_Apr_21_1424,59.8839663816,sequenceLearningTask,001,080,
min1.png,min2.png,min3.png,min4.png,allBlank.png,,,,,0,3,3,3,['num_1'],4,0.0522465854883,0,"['num_4', 'num_1']",0,"[0.6760359697509557, 1.2426950740627944]",2018_Apr_21_1424,59.8839663816,sequenceLearningTask,001,080,
min1.png,min2.png,min3.png,min4.png,allBlank.png,,,,,0,3,3,3,['num_4'],4,0.0523626881186,1,['num_4'],0,[2.1926835663616657],2018_Apr_21_1424,59.8839663816,sequenceLearningTask,001,080,
min1.png,min2.png,min3.png,min4.png,allBlank.png,,,,,0,3,3,3,['num_0'],4,0.0540336633567,1,['num_0'],0,[0.7417603044304997],2018_Apr_21_1424,59.8839663816,sequenceLearningTask,001,080,
min1.png,min2.png,min3.png,min4.png,allBlank.png,,,,,0,3,3,3,['num_0'],4,0.0522088420112,1,['num_0'],0,[0.8092622805852443],2018_Apr_21_1424,59.8839663816,sequenceLearningTask,001,080,
min1.png,min2.png,min3.png,min4.png,allBlank.png,,,,,0,3,3,3,['num_4'],4,0.0598117168993,1,['num_4'],0,[0.901233600685373],2018_Apr_21_1424,59.8839663816,sequenceLearningTask,001,080,
min1.png,min2.png,min3.png,min4.png,allBlank.png,,,,,0,3,3,3,['num_1'],4,0.0576911005192,1,['num_1'],0,[0.9036594475619495],2018_Apr_21_1424,59.8839663816,sequenceLearningTask,001,080,
min1.png,min2.png,min3.png,min4.png,allBlank.png,,,,,0,3,3,3,['num_0'],4,0.059976229677,1,['num_0'],0,[0.5674193096347153],2018_Apr_21_1424,59.8839663816,sequenceLearningTask,001,080,
min1.png,min2.png,min3.png,min4.png,allBlank.png,,,,,0,4,4,4,['num_7'],5,0.0490560203325,1,['num_7'],0,[1.2111918816808611],2018_Apr_21_1424,59.8839663816,sequenceLearningTask,001,080,
min1.png,min2.png,min3.png,min4.png,allBlank.png,,,,,0,4,4,4,['num_1'],5,0.05091776466,1,['num_1'],0,[0.9776270678266883],2018_Apr_21_1424,59.8839663816,sequenceLearningTask,001,080,
min1.png,min2.png,min3.png,min4.png,allBlank.png,,,,,0,4,4,4,['num_4'],5,0.0519983803388,1,['num_4'],0,[1.1433551355730742],2018_Apr_21_1424,59.8839663816,sequenceLearningTask,001,080,
min1.png,min2.png,min3.png,min4.png,allBlank.png,,,,,0,4,4,4,['num_0'],5,0.055814176565,1,['num_0'],0,[0.6051485559437424],2018_Apr_21_1424,59.8839663816,sequenceLearningTask,001,080,
min1.png,min2.png,min3.png,min4.png,allBlank.png,,,,,0,4,4,4,['num_0'],5,0.0540607401635,1,['num_0'],0,[1.2591730293352157],2018_Apr_21_1424,59.8839663816,sequenceLearningTask,001,080,
min1.png,min2.png,min3.png,min4.png,allBlank.png,,,,,0,4,4,4,['num_4'],5,0.0529042268172,1,['num_4'],0,[1.2421412274707109],2018_Apr_21_1424,59.8839663816,sequenceLearningTask,001,080,
min1.png,min2.png,min3.png,min4.png,allBlank.png,,,,,0,4,4,4,['num_1'],5,0.0500997127965,1,['num_1'],0,[0.828511109109968],2018_Apr_21_1424,59.8839663816,sequenceLearningTask,001,080,
min1.png,min2.png,min3.png,min4.png,allBlank.png,,,,,0,4,4,4,['num_0'],5,0.0517440212425,1,['num_0'],0,[0.6591941164806485],2018_Apr_21_1424,59.8839663816,sequenceLearningTask,001,080,
min1.png,min2.png,min3.png,min4.png,allBlank.png,,,,,0,5,5,5,['num_7'],6,0.0528529449366,1,['num_7'],0,[1.1558929870370775],2018_Apr_21_1424,59.8839663816,sequenceLearningTask,001,080,
min1.png,min2.png,min3.png,min4.png,allBlank.png,,,,,0,5,5,5,['num_1'],6,0.0509140721988,1,['num_1'],0,[0.8611367635894567],2018_Apr_21_1424,59.8839663816,sequenceLearningTask,001,080,
min1.png,min2.png,min3.png,min4.png,allBlank.png,,,,,0,5,5,5,['num_4'],6,0.0404816577211,1,['num_4'],0,[1.4883189694955945],2018_Apr_21_1424,59.8839663816,sequenceLearningTask,001,080,
min1.png,min2.png,min3.png,min4.png,allBlank.png,,,,,0,5,5,5,['num_0'],6,0.053233662853,0,"['num_1', 'num_0']",0,"[0.49096307321451604, 1.0079995931591839]",2018_Apr_21_1424,59.8839663816,sequenceLearningTask,001,080,
min1.png,min2.png,min3.png,min4.png,allBlank.png,,,,,0,5,5,5,['num_0'],6,0.0494568408467,1,['num_0'],0,[1.178697919473052],2018_Apr_21_1424,59.8839663816,sequenceLearningTask,001,080,
min1.png,min2.png,min3.png,min4.png,allBlank.png,,,,,0,5,5,5,['num_4'],6,0.0518043290358,1,['num_4'],0,[0.7431949716992676],2018_Apr_21_1424,59.8839663816,sequenceLearningTask,001,080,
min1.png,min2.png,min3.png,min4.png,allBlank.png,,,,,0,5,5,5,['num_1'],6,0.0599659732543,0,"['num_1', 'num_0', 'num_0', 'num_1']",0,"[0.03267488512210548, 0.6008601440116763, 1.1509358568582684, 1.501454564742744]",2018_Apr_21_1424,59.8839663816,sequenceLearningTask,001,080,
min1.png,min2.png,min3.png,min4.png,allBlank.png,,,,,0,5,5,5,['num_0'],6,0.0510449439753,0,"['num_1', 'num_0']",0,"[0.643702007830143, 1.160474732518196]",2018_Apr_21_1424,59.8839663816,sequenceLearningTask,001,080,
min1.png,min2.png,min3.png,min4.png,allBlank.png,,,,,0,6,6,6,['num_7'],7,0.0590597165283,0,"['num_4', 'num_7']",0,"[0.8333484444301575, 1.566667309263721]",2018_Apr_21_1424,59.8839663816,sequenceLearningTask,001,080,
min1.png,min2.png,min3.png,min4.png,allBlank.png,,,,,0,6,6,6,['num_1'],7,0.0581965364981,0,"['num_0', 'num_0', 'num_0', 'num_1']",0,"[0.452208595816046, 1.135985696921125, 1.9866408151574433, 3.2521084111649543]",2018_Apr_21_1424,59.8839663816,sequenceLearningTask,001,080,
min1.png,min2.png,min3.png,min4.png,allBlank.png,,,,,0,6,6,6,['num_4'],7,0.0559109973256,1,['num_4'],0,[0.7222333219833672],2018_Apr_21_1424,59.8839663816,sequenceLearningTask,001,080,
min1.png,min2.png,min3.png,min4.png,allBlank.png,,,,,0,6,6,6,['num_0'],7,0.0565772540867,0,"['num_7', 'num_0']",0,"[0.6886525901500136, 1.3356054709292948]",2018_Apr_21_1424,59.8839663816,sequenceLearningTask,001,080,
min1.png,min2.png,min3.png,min4.png,allBlank.png,,,,,0,6,6,6,['num_0'],7,0.0527844317257,0,"['num_0', 'num_0']",0,"[0.0002888208255171776, 0.8920163661241531]",2018_Apr_21_1424,59.8839663816,sequenceLearningTask,001,080,
min1.png,min2.png,min3.png,min4.png,allBlank.png,,,,,0,6,6,6,['num_4'],7,0.0540320221335,0,"['num_0', 'num_0', 'num_4']",0,"[1.173920891713351, 1.1906983344815671, 4.406677910359576]",2018_Apr_21_1424,59.8839663816,sequenceLearningTask,001,080,
min1.png,min2.png,min3.png,min4.png,allBlank.png,,,,,0,6,6,6,['num_1'],7,0.0541575606912,0,"['num_0', 'num_1']",0,"[1.040955914184451, 1.9739343482069671]",2018_Apr_21_1424,59.8839663816,sequenceLearningTask,001,080,
min1.png,min2.png,min3.png,min4.png,allBlank.png,,,,,0,6,6,6,['num_0'],7,0.0580275109969,1,['num_0'],0,[3.2205010135658085],2018_Apr_21_1424,59.8839663816,sequenceLearningTask,001,080,
min1.png,min2.png,min3.png,min4.png,allBlank.png,,,,,0,7,7,7,['num_7'],8,0.0537374578416,1,['num_7'],0,[3.2206380392890424],2018_Apr_21_1424,59.8839663816,sequenceLearningTask,001,080,
min1.png,min2.png,min3.png,min4.png,allBlank.png,,,,,0,7,7,7,['num_1'],8,0.0583614599891,1,['num_1'],0,[1.670037608128041],2018_Apr_21_1424,59.8839663816,sequenceLearningTask,001,080,
min1.png,min2.png,min3.png,min4.png,allBlank.png,,,,,0,7,7,7,['num_4'],8,0.0536648426205,0,"['num_7', 'num_4']",0,"[0.8574465056881309, 1.5408564270474017]",2018_Apr_21_1424,59.8839663816,sequenceLearningTask,001,080,
min1.png,min2.png,min3.png,min4.png,allBlank.png,,,,,0,7,7,7,['num_0'],8,0.0485825841315,1,['num_0'],0,[1.0811155203264207],2018_Apr_21_1424,59.8839663816,sequenceLearningTask,001,080,
min1.png,min2.png,min3.png,min4.png,allBlank.png,,,,,0,7,7,7,['num_0'],8,0.0506847386714,0,"['num_1', 'num_0']",0,"[0.8440590130630881, 1.2932957101147622]",2018_Apr_21_1424,59.8839663816,sequenceLearningTask,001,080,
min1.png,min2.png,min3.png,min4.png,allBlank.png,,,,,0,7,7,7,['num_4'],8,0.0519524316769,0,"['num_1', 'num_4']",0,"[1.7760753952898085, 2.476080195279792]",2018_Apr_21_1424,59.8839663816,sequenceLearningTask,001,080,
min1.png,min2.png,min3.png,min4.png,allBlank.png,,,,,0,7,7,7,['num_1'],8,0.0526067907922,0,"['num_4', 'num_1']",0,"[0.7584704651962966, 1.0740525433793664]",2018_Apr_21_1424,59.8839663816,sequenceLearningTask,001,080,
min1.png,min2.png,min3.png,min4.png,allBlank.png,,,,,0,7,7,7,['num_0'],8,0.0707860803232,1,['num_0'],0,[0.504956514807418],2018_Apr_21_1424,59.8839663816,sequenceLearningTask,001,080,
min1.png,min2.png,min3.png,min4.png,allBlank.png,,,,,0,8,8,8,['num_7'],9,0.0574654594529,1,['num_7'],0,[0.6837336136959493],2018_Apr_21_1424,59.8839663816,sequenceLearningTask,001,080,
min1.png,min2.png,min3.png,min4.png,allBlank.png,,,,,0,8,8,8,['num_1'],9,0.0534010475967,0,"['num_4', 'num_0', 'num_1']",0,"[0.3403160369489342, 0.8242247484158725, 1.0737021840177476]",2018_Apr_21_1424,59.8839663816,sequenceLearningTask,001,080,
min1.png,min2.png,min3.png,min4.png,allBlank.png,,,,,0,8,8,8,['num_4'],9,0.057671408169,1,['num_4'],0,[0.4362943328451365],2018_Apr_21_1424,59.8839663816,sequenceLearningTask,001,080,
min1.png,min2.png,min3.png,min4.png,allBlank.png,,,,,0,8,8,8,['num_0'],9,0.0537481245119,1,['num_0'],0,[0.5738919277209789],2018_Apr_21_1424,59.8839663816,sequenceLearningTask,001,080,
min1.png,min2.png,min3.png,min4.png,allBlank.png,,,,,0,8,8,8,['num_0'],9,0.0564861770254,0,"['num_4', 'num_1', 'num_0']",0,"[0.4050963711924851, 0.870709280250594, 1.2049764941912144]",2018_Apr_21_1424,59.8839663816,sequenceLearningTask,001,080,
min1.png,min2.png,min3.png,min4.png,allBlank.png,,,,,0,8,8,8,['num_4'],9,0.0548115095589,0,"['num_1', 'num_4']",0,"[0.44072264223359525, 0.8895741086453199]",2018_Apr_21_1424,59.8839663816,sequenceLearningTask,001,080,
min1.png,min2.png,min3.png,min4.png,allBlank.png,,,,,0,8,8,8,['num_1'],9,0.0507844309323,1,['num_1'],0,[0.1442289820406586],2018_Apr_21_1424,59.8839663816,sequenceLearningTask,001,080,
min1.png,min2.png,min3.png,min4.png,allBlank.png,,,,,0,8,8,8,['num_0'],9,0.0639868981671,0,"['num_0', 'num_0']",0,"[0.0003684104885905981, 0.8636709183920175]",2018_Apr_21_1424,59.8839663816,sequenceLearningTask,001,080,
min1.png,min2.png,min3.png,min4.png,allBlank.png,,,,,0,9,9,9,['num_7'],10,0.0577871005516,1,['num_7'],0,[0.1680328892543912],2018_Apr_21_1424,59.8839663816,sequenceLearningTask,001,080,
min1.png,min2.png,min3.png,min4.png,allBlank.png,,,,,0,9,9,9,['num_1'],10,0.052481662482,0,"['num_4', 'num_1']",0,"[0.40847729588858783, 1.1756821235176176]",2018_Apr_21_1424,59.8839663816,sequenceLearningTask,001,080,
min1.png,min2.png,min3.png,min4.png,allBlank.png,,,,,0,9,9,9,['num_4'],10,0.0601181783713,0,"['num_0', 'num_7', 'num_4']",0,"[0.0002880000974982977, 0.9349378193728626, 1.501383180031553]",2018_Apr_21_1424,59.8839663816,sequenceLearningTask,001,080,
min1.png,min2.png,min3.png,min4.png,allBlank.png,,,,,0,9,9,9,['num_0'],10,0.0516644313466,0,"['num_1', 'num_0']",0,"[0.0003310770262032747, 0.5583948958665133]",2018_Apr_21_1424,59.8839663816,sequenceLearningTask,001,080,
min1.png,min2.png,min3.png,min4.png,allBlank.png,,,,,0,9,9,9,['num_0'],10,0.0609583840705,0,"['num_7', 'num_4', 'num_1', 'num_0']",0,"[0.499811076791957, 1.1171840480528772, 1.632965592900291, 2.133295644307509]",2018_Apr_21_1424,59.8839663816,sequenceLearningTask,001,080,
min1.png,min2.png,min3.png,min4.png,allBlank.png,,,,,0,9,9,9,['num_4'],10,0.0493378664833,0,"['num_7', 'num_4']",0,"[0.11147368676029146, 0.5954919366631657]",2018_Apr_21_1424,59.8839663816,sequenceLearningTask,001,080,
min1.png,min2.png,min3.png,min4.png,allBlank.png,,,,,0,9,9,9,['num_1'],10,0.0644115135074,0,"['num_1', 'num_0', 'num_1']",0,"[0.0009534361306577921, 0.4455772084183991, 0.828821673290804]",2018_Apr_21_1424,59.8839663816,sequenceLearningTask,001,080,
min1.png,min2.png,min3.png,min4.png,allBlank.png,,,,,0,9,9,9,['num_0'],10,0.0638449492399,0,"['num_4', 'num_7', 'num_4', 'num_1', 'num_0']",0,"[0.0007868721149861813, 0.17811371409334242, 0.760797850554809, 1.3450889619998634, 1.6281003602780402]",2018_Apr_21_1424,59.8839663816,sequenceLearningTask,001,080,
min1.png,min2.png,min3.png,min4.png,allBlank.png,,,,,0,0,0,0,['num_7'],1,0.0522662778385,0,"['num_1', 'num_4', 'num_4', 'num_1', 'num_7', 'num_4', 'num_7', 'num_1', 'num_0', 'num_4', 'num_7', 'num_1', 'num_4', 'num_1', 'num_4', 'num_4', 'num_1', 'num_1', 'num_1', 'num_1', 'num_1', 'num_0', 'num_0', 'num_0', 'num_7']",0,"[0.00028307712636888027, 0.36822045873850584, 1.2833350906148553]",2018_Apr_21_1424,59.8839663816,sequenceLearningTask,001,080,
min1.png,min2.png,min3.png,min4.png,allBlank.png,,,,,0,0,0,0,['num_1'],1,0.0545977661386,0,"['num_0', 'num_1']",0,"[0.49030461139045656, 0.972975168377161]",2018_Apr_21_1424,59.8839663816,sequenceLearningTask,001,080,
min1.png,min2.png,min3.png,min4.png,allBlank.png,,,,,0,0,0,0,['num_4'],1,0.0523684315849,0,"['num_7', 'num_7', 'num_4']",0,"[0.692318232730031, 10.890998929738998, 11.541550991358235]",2018_Apr_21_1424,59.8839663816,sequenceLearningTask,001,080,
min1.png,min2.png,min3.png,min4.png,allBlank.png,,,,,0,0,0,0,['num_0'],1,0.055629150942,1,['num_0'],0,[0.889086723793298],2018_Apr_21_1424,59.8839663816,sequenceLearningTask,001,080,
min1.png,min2.png,min3.png,min4.png,allBlank.png,,,,,0,0,0,0,['num_0'],1,0.0514576621354,0,"['num_1', 'num_0']",0,"[0.7771264726761729, 1.5600022810976952]",2018_Apr_21_1424,59.8839663816,sequenceLearningTask,001,080,
min1.png,min2.png,min3.png,min4.png,allBlank.png,,,,,0,0,0,0,['num_4'],1,0.057513049338,0,"['num_1', 'num_0', 'num_7', 'num_4']",0,"[0.3375172666274011, 0.48709517414681613, 2.1041510170325637, 2.220502244308591]",2018_Apr_21_1424,59.8839663816,sequenceLearningTask,001,080,
min1.png,min2.png,min3.png,min4.png,allBlank.png,,,,,0,0,0,0,['num_1'],1,0.0515852519311,0,"['num_7', 'num_7', 'num_1']",0,"[0.0003503591287881136, 0.14283780218102038, 2.2256062463857234]",2018_Apr_21_1424,59.8839663816,sequenceLearningTask,001,080,
min1.png,min2.png,min3.png,min4.png,allBlank.png,,,,,0,0,0,0,['num_0'],1,0.0544492530171,1,['num_0'],0,[1.2561859514098614],2018_Apr_21_1424,59.8839663816,sequenceLearningTask,001,080,
min1.png,min2.png,min3.png,min4.png,allBlank.png,,,,,0,1,1,1,['num_7'],2,0.0549686378799,1,['num_7'],0,[1.537674477091059],2018_Apr_21_1424,59.8839663816,sequenceLearningTask,001,080,
min1.png,min2.png,min3.png,min4.png,allBlank.png,,,,,0,1,1,1,['num_1'],2,0.0556611509528,1,['num_1'],0,[0.8388003441505134],2018_Apr_21_1424,59.8839663816,sequenceLearningTask,001,080,
min1.png,min2.png,min3.png,min4.png,allBlank.png,,,,,0,1,1,1,['num_4'],2,0.0486215583514,1,['num_4'],0,[0.8962309318594635],2018_Apr_21_1424,59.8839663816,sequenceLearningTask,001,080,
min1.png,min2.png,min3.png,min4.png,allBlank.png,,,,,0,1,1,1,['num_0'],2,0.0569715104066,1,['num_0'],0,[0.6211621009279042],2018_Apr_21_1424,59.8839663816,sequenceLearningTask,001,080,
min1.png,min2.png,min3.png,min4.png,allBlank.png,,,,,0,1,1,1,['num_0'],2,0.0535265861545,1,['num_0'],0,[0.7572462595999241],2018_Apr_21_1424,59.8839663816,sequenceLearningTask,001,080,
min1.png,min2.png,min3.png,min4.png,allBlank.png,,,,,0,1,1,1,['num_4'],2,0.0538014578633,1,['num_4'],0,[0.8411720374133438],2018_Apr_21_1424,59.8839663816,sequenceLearningTask,001,080,
min1.png,min2.png,min3.png,min4.png,allBlank.png,,,,,0,1,1,1,['num_1'],2,0.0474711989518,0,"['num_0', 'num_0', 'num_0', 'num_0', 'num_0', 'num_0', 'num_1']",0,"[0.7146977290976793, 1.430521612521261, 2.065003924071789, 2.6630587335675955, 2.9638334210030735, 3.230552709894255, 3.4308727921452373]",2018_Apr_21_1424,59.8839663816,sequenceLearningTask,001,080,
min1.png,min2.png,min3.png,min4.png,allBlank.png,,,,,0,1,1,1,['num_0'],2,0.0487479174044,1,['num_0'],0,[0.678671047789976],2018_Apr_21_1424,59.8839663816,sequenceLearningTask,001,080,
min1.png,min2.png,min3.png,min4.png,allBlank.png,,,,,0,2,2,2,['num_7'],3,0.0552127405535,1,['num_7'],0,[1.2711110855452716],2018_Apr_21_1424,59.8839663816,sequenceLearningTask,001,080,
min1.png,min2.png,min3.png,min4.png,allBlank.png,,,,,0,2,2,2,['num_1'],3,0.0550309969112,1,['num_1'],0,[0.906071346020326],2018_Apr_21_1424,59.8839663816,sequenceLearningTask,001,080,
min1.png,min2.png,min3.png,min4.png,allBlank.png,,,,,0,2,2,2,['num_4'],3,0.0570986899547,1,['num_4'],0,[0.9707162957638502],2018_Apr_21_1424,59.8839663816,sequenceLearningTask,001,080,
min1.png,min2.png,min3.png,min4.png,allBlank.png,,,,,0,2,2,2,['num_0'],3,0.0554047406185,1,['num_0'],0,[0.8229906966444105],2018_Apr_21_1424,59.8839663816,sequenceLearningTask,001,080,
min1.png,min2.png,min3.png,min4.png,allBlank.png,,,,,0,2,2,2,['num_0'],3,0.0537998168729,1,['num_0'],0,[0.7902009396348149],2018_Apr_21_1424,59.8839663816,sequenceLearningTask,001,080,
min1.png,min2.png,min3.png,min4.png,allBlank.png,,,,,0,2,2,2,['num_4'],3,0.0525497652125,0,"['num_1', 'num_4']",0,"[0.9084578084293753, 1.4755850154906511]",2018_Apr_21_1424,59.8839663816,sequenceLearningTask,001,080,
min1.png,min2.png,min3.png,min4.png,allBlank.png,,,,,0,2,2,2,['num_1'],3,0.0598232038319,1,['num_1'],0,[1.150788984959945],2018_Apr_21_1424,59.8839663816,sequenceLearningTask,001,080,
min1.png,min2.png,min3.png,min4.png,allBlank.png,,,,,0,2,2,2,['num_0'],3,0.0543614584021,1,['num_0'],0,[0.8572672235313803],2018_Apr_21_1424,59.8839663816,sequenceLearningTask,001,080,
min1.png,min2.png,min3.png,min4.png,allBlank.png,,,,,0,3,3,3,['num_7'],4,0.0509653543122,1,['num_7'],0,[0.9927154842298478],2018_Apr_21_1424,59.8839663816,sequenceLearningTask,001,080,
min1.png,min2.png,min3.png,min4.png,allBlank.png,,,,,0,3,3,3,['num_1'],4,0.0480246350635,0,"['num_4', 'num_1']",0,"[0.5300002174917608, 1.147393291350454]",2018_Apr_21_1424,59.8839663816,sequenceLearningTask,001,080,
min1.png,min2.png,min3.png,min4.png,allBlank.png,,,,,0,3,3,3,['num_4'],4,0.0530687398277,0,"['num_0', 'num_7', 'num_7', 'num_4']",0,"[0.04054647823795676, 1.474684912711382, 2.441214129794389, 2.9580328033771366]",2018_Apr_21_1424,59.8839663816,sequenceLearningTask,001,080,
min1.png,min2.png,min3.png,min4.png,allBlank.png,,,,,0,3,3,3,['num_0'],4,0.05723366444,0,"['num_1', 'num_0']",0,"[0.22072091116569936, 1.0042404120322317]",2018_Apr_21_1424,59.8839663816,sequenceLearningTask,001,080,
min1.png,min2.png,min3.png,min4.png,allBlank.png,,,,,0,3,3,3,['num_0'],4,0.0555770485662,0,"['num_1', 'num_4', 'num_7', 'num_4', 'num_1', 'num_1', 'num_0']",0,"[0.32168587553314865, 0.8054120228625834, 1.4715817319229245, 1.8390382931102067, 2.220944090746343, 2.471706449985504, 2.721535885706544]",2018_Apr_21_1424,59.8839663816,sequenceLearningTask,001,080,
min1.png,min2.png,min3.png,min4.png,allBlank.png,,,,,0,3,3,3,['num_4'],4,0.0500943795778,0,"['num_0', 'num_7', 'num_4']",0,"[0.0003003077581524849, 1.0611425891984254, 1.628240667982027]",2018_Apr_21_1424,59.8839663816,sequenceLearningTask,001,080,
min1.png,min2.png,min3.png,min4.png,allBlank.png,,,,,0,3,3,3,['num_1'],4,0.0554978689179,0,"['num_0', 'num_1']",0,"[0.38923256983980536, 3.4889085083268583]",2018_Apr_21_1424,59.8839663816,sequenceLearningTask,001,080,
min1.png,min2.png,min3.png,min4.png,allBlank.png,,,,,0,3,3,3,['num_0'],4,0.0542798172683,0,"['num_1', 'num_1', 'num_0']",0,"[1.0397107854951173, 2.072953876107931, 3.0401062730234116]",2018_Apr_21_1424,59.8839663816,sequenceLearningTask,001,080,
min1.png,min2.png,min3.png,min4.png,allBlank.png,,,,,0,4,4,4,['num_7'],5,0.0529321241193,1,['num_7'],0,[1.3903435447718948],2018_Apr_21_1424,59.8839663816,sequenceLearningTask,001,080,
min1.png,min2.png,min3.png,min4.png,allBlank.png,,,,,0,4,4,4,['num_1'],5,0.0526227906812,0,"['num_4', 'num_1']",0,"[0.2250277844723314, 0.991525329882279]",2018_Apr_21_1424,59.8839663816,sequenceLearningTask,001,080,
min1.png,min2.png,min3.png,min4.png,allBlank.png,,,,,0,4,4,4,['num_4'],5,0.0657304883935,0,"['num_0', 'num_0', 'num_7', 'num_4']",0,"[0.0009513851255178452, 0.6605508350767195, 1.32819787831977, 1.9931766125373542]",2018_Apr_21_1424,59.8839663816,sequenceLearningTask,001,080,
min1.png,min2.png,min3.png,min4.png,allBlank.png,,,,,0,4,4,4,['num_0'],5,0.0541514069773,0,"['num_1', 'num_0']",0,"[0.7396122007630765, 1.291167298797518]",2018_Apr_21_1424,59.8839663816,sequenceLearningTask,001,080,
min1.png,min2.png,min3.png,min4.png,allBlank.png,,,,,0,4,4,4,['num_0'],5,0.0547064840794,0,"['num_7', 'num_4', 'num_1', 'num_0']",0,"[0.4556366999167949, 1.0734072097111493, 1.5733540814835578, 2.040009452495724]",2018_Apr_21_1424,59.8839663816,sequenceLearningTask,001,080,
min1.png,min2.png,min3.png,min4.png,allBlank.png,,,,,0,4,4,4,['num_4'],5,0.050423405366,0,"['num_7', 'num_4']",0,"[0.459508701460436, 1.7923519148025662]",2018_Apr_21_1424,59.8839663816,sequenceLearningTask,001,080,
min1.png,min2.png,min3.png,min4.png,allBlank.png,,,,,0,4,4,4,['num_1'],5,0.0610445376951,0,"['num_4', 'num_1']",0,"[0.46665167855098844, 1.014914057450369]",2018_Apr_21_1424,59.8839663816,sequenceLearningTask,001,080,
min1.png,min2.png,min3.png,min4.png,allBlank.png,,,,,0,4,4,4,['num_0'],5,0.0558580742218,1,['num_0'],0,[0.48962317523546517],2018_Apr_21_1424,59.8839663816,sequenceLearningTask,001,080,
min1.png,min2.png,min3.png,min4.png,allBlank.png,,,,,0,5,5,5,['num_7'],6,0.0574170490727,1,['num_7'],0,[0.3844912345521152],2018_Apr_21_1424,59.8839663816,sequenceLearningTask,001,080,
min1.png,min2.png,min3.png,min4.png,allBlank.png,,,,,0,5,5,5,['num_1'],6,0.0496500716545,0,"['num_4', 'num_1']",0,"[0.2781428834423423, 1.5117745690513402]",2018_Apr_21_1424,59.8839663816,sequenceLearningTask,001,080,
min1.png,min2.png,min3.png,min4.png,allBlank.png,,,,,0,5,5,5,['num_4'],6,0.0531487397384,0,"['num_0', 'num_0', 'num_0', 'num_0', 'num_1', 'num_4']",0,"[0.6911494119558483, 1.7418390735983849, 2.0753017745446414, 2.3416079350281507, 2.673777097137645, 3.2581465675029904]",2018_Apr_21_1424,59.8839663816,sequenceLearningTask,001,080,
min1.png,min2.png,min3.png,min4.png,allBlank.png,,,,,0,5,5,5,['num_0'],6,0.0498100717086,1,['num_0'],0,[1.3110528455581516],2018_Apr_21_1424,59.8839663816,sequenceLearningTask,001,080,
min1.png,min2.png,min3.png,min4.png,allBlank.png,,,,,0,5,5,5,['num_0'],6,0.0559786895756,1,['num_0'],0,[0.8220639270730317],2018_Apr_21_1424,59.8839663816,sequenceLearningTask,001,080,
min1.png,min2.png,min3.png,min4.png,allBlank.png,,,,,0,5,5,5,['num_4'],6,0.0557669973932,0,"['num_0', 'num_4']",0,"[0.3057888434268534, 1.389189082896337]",2018_Apr_21_1424,59.8839663816,sequenceLearningTask,001,080,
min1.png,min2.png,min3.png,min4.png,allBlank.png,,,,,0,5,5,5,['num_1'],6,0.0577382801566,0,"['num_0', 'num_1']",0,"[1.653087857645005, 2.236473532859236]",2018_Apr_21_1424,59.8839663816,sequenceLearningTask,001,080,
min1.png,min2.png,min3.png,min4.png,allBlank.png,,,,,0,5,5,5,['num_0'],6,0.0538100732956,1,['num_0'],0,[0.5407185808289796],2018_Apr_21_1424,59.8839663816,sequenceLearningTask,001,080,
min1.png,min2.png,min3.png,min4.png,allBlank.png,,,,,0,6,6,6,['num_7'],7,0.0538954066578,0,"['num_1', 'num_4', 'num_0', 'num_4', 'num_0', 'num_4', 'num_7']",0,"[0.18988889851607382, 0.9074731930159032, 1.5225187784526497, 2.1733034558128566, 2.9730207070242614, 3.9892935340758413, 4.58888639556244]",2018_Apr_21_1424,59.8839663816,sequenceLearningTask,001,080,
min1.png,min2.png,min3.png,min4.png,allBlank.png,,,,,0,6,6,6,['num_1'],7,0.0507992003113,1,['num_1'],0,[1.0269448314793408],2018_Apr_21_1424,59.8839663816,sequenceLearningTask,001,080,
min1.png,min2.png,min3.png,min4.png,allBlank.png,,,,,0,6,6,6,['num_4'],7,0.0540078170598,0,"['num_4', 'num_7', 'num_7', 'num_7', 'num_4']",0,"[0.020370880141854286, 0.9901727139949799, 2.323275209637359, 3.339687113882974, 3.9067732952535152]",2018_Apr_21_1424,59.8839663816,sequenceLearningTask,001,080,
min1.png,min2.png,min3.png,min4.png,allBlank.png,,,,,0,6,6,6,['num_0'],7,0.0551823815331,1,['num_0'],0,[0.9053558586165309],2018_Apr_21_1424,59.8839663816,sequenceLearningTask,001,080,
min1.png,min2.png,min3.png,min4.png,allBlank.png,,,,,0,6,6,6,['num_0'],7,0.0551996123977,1,['num_0'],0,[0.8555002484936267],2018_Apr_21_1424,59.8839663816,sequenceLearningTask,001,080,
min1.png,min2.png,min3.png,min4.png,allBlank.png,,,,,0,6,6,6,['num_4'],7,0.0626408460084,1,['num_4'],0,[0.9974711784161627],2018_Apr_21_1424,59.8839663816,sequenceLearningTask,001,080,
min1.png,min2.png,min3.png,min4.png,allBlank.png,,,,,0,6,6,6,['num_1'],7,0.0505600206088,0,"['num_0', 'num_1']",0,"[0.7103219323325902, 1.3767665135674179]",2018_Apr_21_1424,59.8839663816,sequenceLearningTask,001,080,
min1.png,min2.png,min3.png,min4.png,allBlank.png,,,,,0,6,6,6,['num_0'],7,0.0555914074648,1,['num_0'],0,[0.5547743814531714],2018_Apr_21_1424,59.8839663816,sequenceLearningTask,001,080,
min1.png,min2.png,min3.png,min4.png,allBlank.png,,,,,0,7,7,7,['num_7'],8,0.0546736633405,1,['num_7'],0,[1.4544014174025506],2018_Apr_21_1424,59.8839663816,sequenceLearningTask,001,080,
min1.png,min2.png,min3.png,min4.png,allBlank.png,,,,,0,7,7,7,['num_1'],8,0.0533116115257,0,"['num_4', 'num_1']",0,"[0.5409146833699197, 1.041599196381867]",2018_Apr_21_1424,59.8839663816,sequenceLearningTask,001,080,
min1.png,min2.png,min3.png,min4.png,allBlank.png,,,,,0,7,7,7,['num_4'],8,0.0663877194747,0,"['num_0', 'num_4']",0,"[0.2094950603786856, 1.0426453507971019]",2018_Apr_21_1424,59.8839663816,sequenceLearningTask,001,080,
min1.png,min2.png,min3.png,min4.png,allBlank.png,,,,,0,7,7,7,['num_0'],8,0.0303392945789,1,['num_0'],0,[0.8480770660098642],2018_Apr_21_1424,59.8839663816,sequenceLearningTask,001,080,
min1.png,min2.png,min3.png,min4.png,allBlank.png,,,,,0,7,7,7,['num_0'],8,0.0558100743219,0,"['num_1', 'num_0']",0,"[0.40531462780199945, 1.6889906416181475]",2018_Apr_21_1424,59.8839663816,sequenceLearningTask,001,080,
min1.png,min2.png,min3.png,min4.png,allBlank.png,,,,,0,7,7,7,['num_4'],8,0.0611044352408,0,"['num_1', 'num_4']",0,"[0.5834197264630347, 1.2659098526928574]",2018_Apr_21_1424,59.8839663816,sequenceLearningTask,001,080,
min1.png,min2.png,min3.png,min4.png,allBlank.png,,,,,0,7,7,7,['num_1'],8,0.0566621772014,0,"['num_0', 'num_4', 'num_1', 'num_4', 'num_4', 'num_1']",0,"[0.6208355366252363, 1.2217272704001516, 1.7548757968470454, 2.4216034549754113, 3.237936918158084]",2018_Apr_21_1424,59.8839663816,sequenceLearningTask,001,080,
min1.png,min2.png,min3.png,min4.png,allBlank.png,,,,,0,7,7,7,['num_0'],8,0.0532833037432,1,['num_0'],0,[0.45536264847032726],2018_Apr_21_1424,59.8839663816,sequenceLearningTask,001,080,
min1.png,min2.png,min3.png,min4.png,allBlank.png,,,,,0,8,8,8,['num_7'],9,0.0499676102772,1,['num_7'],0,[0.6585528855212033],2018_Apr_21_1424,59.8839663816,sequenceLearningTask,001,080,
min1.png,min2.png,min3.png,min4.png,allBlank.png,,,,,0,8,8,8,['num_1'],9,0.0549337661359,0,"['num_4', 'num_1']",0,"[0.0006006155163049698, 0.3896867239382118]",2018_Apr_21_1424,59.8839663816,sequenceLearningTask,001,080,
min1.png,min2.png,min3.png,min4.png,allBlank.png,,,,,0,8,8,8,['num_4'],9,0.0557698691264,0,"['num_1', 'num_1', 'num_4']",0,"[0.0006198978517204523, 0.7877804257441312]",2018_Apr_21_1424,59.8839663816,sequenceLearningTask,001,080,
min1.png,min2.png,min3.png,min4.png,allBlank.png,,,,,0,8,8,8,['num_0'],9,0.0520677135792,0,"['num_1', 'num_1', 'num_0', 'num_1', 'num_1', 'num_0']",0,"[0.4253938156180084, 1.1081280442886055, 2.1263951286673546, 2.708682547090575, 3.642049904447049]",2018_Apr_21_1424,59.8839663816,sequenceLearningTask,001,080,
min1.png,min2.png,min3.png,min4.png,allBlank.png,,,,,0,8,8,8,['num_0'],9,0.0500525333919,1,['num_0'],0,[0.6947851055301726],2018_Apr_21_1424,59.8839663816,sequenceLearningTask,001,080,
min1.png,min2.png,min3.png,min4.png,allBlank.png,,,,,0,8,8,8,['num_4'],9,0.0600644347724,1,['num_4'],0,[1.083276341902092],2018_Apr_21_1424,59.8839663816,sequenceLearningTask,001,080,
min1.png,min2.png,min3.png,min4.png,allBlank.png,,,,,0,8,8,8,['num_1'],9,0.0530580731574,0,"['num_4', 'num_1']",0,"[0.7243777331896126, 1.440238949842751]",2018_Apr_21_1424,59.8839663816,sequenceLearningTask,001,080,
min1.png,min2.png,min3.png,min4.png,allBlank.png,,,,,0,8,8,8,['num_0'],9,0.0557296639308,1,['num_0'],0,[0.42517720023170114],2018_Apr_21_1424,59.8839663816,sequenceLearningTask,001,080,
min1.png,min2.png,min3.png,min4.png,allBlank.png,,,,,0,9,9,9,['num_7'],10,0.0495762254577,1,['num_7'],0,[0.7429910742212087],2018_Apr_21_1424,59.8839663816,sequenceLearningTask,001,080,
min1.png,min2.png,min3.png,min4.png,allBlank.png,,,,,0,9,9,9,['num_1'],10,0.0564188947901,0,"['num_4', 'num_4', 'num_1']",0,"[0.7210985522251576, 1.3217260804958642, 2.021689855027944]",2018_Apr_21_1424,59.8839663816,sequenceLearningTask,001,080,
min1.png,min2.png,min3.png,min4.png,allBlank.png,,,,,0,9,9,9,['num_4'],10,0.0585592035204,0,"['num_0', 'num_1', 'num_4']",0,"[0.06916269497014582, 0.7688109818845987, 1.4188760691322386]",2018_Apr_21_1424,59.8839663816,sequenceLearningTask,001,080,
min1.png,min2.png,min3.png,min4.png,allBlank.png,,,,,0,9,9,9,['num_0'],10,0.0536660731304,0,"['num_7', 'num_4', 'num_1', 'num_0']",0,"[0.10739450552500784, 0.822551311692223, 1.3733605633024126, 1.907014115480706]",2018_Apr_21_1424,59.8839663816,sequenceLearningTask,001,080,
min1.png,min2.png,min3.png,min4.png,allBlank.png,,,,,0,9,9,9,['num_0'],10,0.0504160209093,1,['num_0'],0,[0.24441815167665482],2018_Apr_21_1424,59.8839663816,sequenceLearningTask,001,080,
min1.png,min2.png,min3.png,min4.png,allBlank.png,,,,,0,9,9,9,['num_4'],10,0.056182176806,0,"['num_1', 'num_4']",0,"[0.0003343592397868633, 0.5368666818831116]",2018_Apr_21_1424,59.8839663816,sequenceLearningTask,001,080,
min1.png,min2.png,min3.png,min4.png,allBlank.png,,,,,0,9,9,9,['num_1'],10,0.0597542808391,0,"['num_7', 'num_4', 'num_1']",0,"[0.3011172516271472, 0.9347499217838049, 1.8011650466360152]",2018_Apr_21_1424,59.8839663816,sequenceLearningTask,001,080,
min1.png,min2.png,min3.png,min4.png,allBlank.png,,,,,0,9,9,9,['num_0'],10,0.0536943811458,1,['num_0'],0,[0.19030079594813287],2018_Apr_21_1424,59.8839663816,sequenceLearningTask,001,080,
