pawPatrol1,pawPatrol2,pawPatrol3,pawPatrol4,blank,allowableKey,correctKey,correctKeyPressNum,posLoc,correctKeyPress,randomPaw,im_size,trials.thisRepN,trials.thisTrialN,trials.thisN,trials.thisIndex,trials_3.thisRepN,trials_3.thisTrialN,trials_3.thisN,trials_3.thisIndex,trials_2.thisRepN,trials_2.thisTrialN,trials_2.thisN,trials_2.thisIndex,trials_questions.thisRepN,trials_questions.thisTrialN,trials_questions.thisN,trials_questions.thisIndex,trials_test.thisRepN,trials_test.thisTrialN,trials_test.thisN,trials_test.thisIndex,trials_recogtest.thisRepN,trials_recogtest.thisTrialN,trials_recogtest.thisN,trials_recogtest.thisIndex,correctLocation,correctImage,repetitionNumber,stimulusPresent.t,responseTimeCorrect,pressLoc,responseTimeIncorrect,trialIncorrect,anticipatoryResponse,questionsResponses,AnswerFinished.keys,AnswerFinished.rt,RecordAnswer.keys,correctKey,trialCorrect,recallResponse,recallResponseTime,date,frameRate,expName,session,participant,
min1.png,min2.png,min3.png,min4.png,allBlank.png,,,,,,,,,,,,0,0,0,0,,,,,,,,,,,,,,,,,"(-0.75, -0.04)",images/min1.png,1,0.0398793682543,0.558066232588,[ 0.76866764 -0.046875  ],,,,,,,,,,,,2018_Jun_22_1610,59.9622391799,sequenceLearningTask,001,087,
min1.png,min2.png,min3.png,min4.png,allBlank.png,,,,,,,,,,,,0,0,0,0,,,,,,,,,,,,,,,,,"(0.25, -0.04)",images/min3.png,1,0.059394847427,0.424436338692,[-0.62225476 -0.06770833],,,,,,,,,,,,2018_Jun_22_1610,59.9622391799,sequenceLearningTask,001,087,
min1.png,min2.png,min3.png,min4.png,allBlank.png,,,,,,,,,,,,0,0,0,0,,,,,,,,,,,,,,,,,"(-0.25, -0.04)",images/min2.png,1,0.0495052104598,0.402692347614,[ 0.21669107 -0.15625   ],,,,,,,,,,,,2018_Jun_22_1610,59.9622391799,sequenceLearningTask,001,087,
min1.png,min2.png,min3.png,min4.png,allBlank.png,,,,,,,,,,,,0,0,0,0,,,,,,,,,,,,,,,,,"(0.75, -0.04)",images/min4.png,1,0.0604044880392,0.406449884534,[-0.26500732 -0.37239583],,,,,,,,,,,,2018_Jun_22_1610,59.9622391799,sequenceLearningTask,001,087,
min1.png,min2.png,min3.png,min4.png,allBlank.png,,,,,,,,,,,,0,0,0,0,,,,,,,,,,,,,,,,,"(0.75, -0.04)",images/min4.png,1,0.0563651050816,0.427806183464,[ 0.79795022 -0.12239583],,,,,,,,,,,,2018_Jun_22_1610,59.9622391799,sequenceLearningTask,001,087,
min1.png,min2.png,min3.png,min4.png,allBlank.png,,,,,,,,,,,,0,0,0,0,,,,,,,,,,,,,,,,,"(-0.25, -0.04)",images/min2.png,1,0.0652668450184,0.987185646283,[ 0.71449488 -0.14583333],,,,,,,,,,,,2018_Jun_22_1610,59.9622391799,sequenceLearningTask,001,087,
min1.png,min2.png,min3.png,min4.png,allBlank.png,,,,,,,,,,,,0,0,0,0,,,,,,,,,,,,,,,,,"(0.25, -0.04)",images/min3.png,1,0.0618239746364,0.405548961826,[-0.15959004 -0.14322917],,,,,,,,,,,,2018_Jun_22_1610,59.9622391799,sequenceLearningTask,001,087,
min1.png,min2.png,min3.png,min4.png,allBlank.png,,,,,,,,,,,,0,0,0,0,,,,,,,,,,,,,,,,,"(0.75, -0.04)",images/min4.png,1,0.0610760775071,0.439466896629,[ 0.21522694 -0.0859375 ],,,,,,,,,,,,2018_Jun_22_1610,59.9622391799,sequenceLearningTask,001,087,
min1.png,min2.png,min3.png,min4.png,allBlank.png,,,,,,,,,,,,0,1,1,1,,,,,,,,,,,,,,,,,"(-0.75, -0.04)",images/min1.png,2,0.0561017205737,0.477305240081,[ 0.68960469 -0.07552083],,,,,,,,,,,,2018_Jun_22_1610,59.9622391799,sequenceLearningTask,001,087,
min1.png,min2.png,min3.png,min4.png,allBlank.png,,,,,,,,,,,,0,1,1,1,,,,,,,,,,,,,,,,,"(0.25, -0.04)",images/min3.png,2,0.061639769584,0.439236742877,[-0.69106881 -0.1953125 ],,,,,,,,,,,,2018_Jun_22_1610,59.9622391799,sequenceLearningTask,001,087,
min1.png,min2.png,min3.png,min4.png,allBlank.png,,,,,,,,,,,,0,1,1,1,,,,,,,,,,,,,,,,,"(-0.25, -0.04)",images/min2.png,2,0.0585911554499,0.441848434114,[ 0.26500732 -0.04166667],,,,,,,,,,,,2018_Jun_22_1610,59.9622391799,sequenceLearningTask,001,087,
min1.png,min2.png,min3.png,min4.png,allBlank.png,,,,,,,,,,,,0,1,1,1,,,,,,,,,,,,,,,,,"(0.75, -0.04)",images/min4.png,2,0.0645132043019,0.402657886089,[-0.24743777 -0.19791667],,,,,,,,,,,,2018_Jun_22_1610,59.9622391799,sequenceLearningTask,001,087,
min1.png,min2.png,min3.png,min4.png,allBlank.png,,,,,,,,,,,,0,1,1,1,,,,,,,,,,,,,,,,,"(0.75, -0.04)",images/min4.png,2,0.0527220296517,0.449372123334,[ 0.79941435  0.02083333],,,,,,,,,,,,2018_Jun_22_1610,59.9622391799,sequenceLearningTask,001,087,
min1.png,min2.png,min3.png,min4.png,allBlank.png,,,,,,,,,,,,0,1,1,1,,,,,,,,,,,,,,,,,"(-0.25, -0.04)",images/min2.png,2,0.0598276677629,0.458942170691,[ 0.77452416 -0.078125  ],,,,,,,,,,,,2018_Jun_22_1610,59.9622391799,sequenceLearningTask,001,087,
min1.png,min2.png,min3.png,min4.png,allBlank.png,,,,,,,,,,,,0,1,1,1,,,,,,,,,,,,,,,,,"(0.25, -0.04)",images/min3.png,2,0.0755646869475,0.392199223714,[-0.29136164 -0.2109375 ],,,,,,,,,,,,2018_Jun_22_1610,59.9622391799,sequenceLearningTask,001,087,
min1.png,min2.png,min3.png,min4.png,allBlank.png,,,,,,,,,,,,0,1,1,1,,,,,,,,,,,,,,,,,"(0.75, -0.04)",images/min4.png,2,0.0578391557583,0.45953499096,[ 0.19765739 -0.0703125 ],,,,,,,,,,,,2018_Jun_22_1610,59.9622391799,sequenceLearningTask,001,087,
min1.png,min2.png,min3.png,min4.png,allBlank.png,,,,,,,,,,,,0,2,2,2,,,,,,,,,,,,,,,,,"(-0.75, -0.04)",images/min1.png,3,0.0588180271516,0.574475251497,[ 0.73206442 -0.01041667],,,,,,,,,,,,2018_Jun_22_1610,59.9622391799,sequenceLearningTask,001,087,
min1.png,min2.png,min3.png,min4.png,allBlank.png,,,,,,,,,,,,0,2,2,2,,,,,,,,,,,,,,,,,"(0.25, -0.04)",images/min3.png,3,0.0615938208848,0.422339108783,[-0.76427526 -0.078125  ],,,,,,,,,,,,2018_Jun_22_1610,59.9622391799,sequenceLearningTask,001,087,
min1.png,min2.png,min3.png,min4.png,allBlank.png,,,,,,,,,,,,0,2,2,2,,,,,,,,,,,,,,,,,"(-0.25, -0.04)",images/min2.png,3,0.0550067466638,0.446193868228,[ 0.26500732 -0.1328125 ],,,,,,,,,,,,2018_Jun_22_1610,59.9622391799,sequenceLearningTask,001,087,
min1.png,min2.png,min3.png,min4.png,allBlank.png,,,,,,,,,,,,0,2,2,2,,,,,,,,,,,,,,,,,"(0.75, -0.04)",images/min4.png,3,0.0621480770678,0.440592229501,[-0.18740849 -0.15625   ],,,,,,,,,,,,2018_Jun_22_1610,59.9622391799,sequenceLearningTask,001,087,
min1.png,min2.png,min3.png,min4.png,allBlank.png,,,,,,,,,,,,0,2,2,2,,,,,,,,,,,,,,,,,"(0.75, -0.04)",images/min4.png,3,0.0577312583664,0.459627298615,[ 0.79502196 -0.07552083],,,,,,,,,,,,2018_Jun_22_1610,59.9622391799,sequenceLearningTask,001,087,
min1.png,min2.png,min3.png,min4.png,allBlank.png,,,,,,,,,,,,0,2,2,2,,,,,,,,,,,,,,,,,"(-0.25, -0.04)",images/min2.png,3,0.0580118736361,0.444691509871,[ 0.72913616 -0.0859375 ],,,,,,,,,,,,2018_Jun_22_1610,59.9622391799,sequenceLearningTask,001,087,
min1.png,min2.png,min3.png,min4.png,allBlank.png,,,,,,,,,,,,0,2,2,2,,,,,,,,,,,,,,,,,"(0.25, -0.04)",images/min3.png,3,0.0555798746345,0.461964118168,[-0.22693997 -0.07291667],,,,,,,,,,,,2018_Jun_22_1610,59.9622391799,sequenceLearningTask,001,087,
min1.png,min2.png,min3.png,min4.png,allBlank.png,,,,,,,,,,,,0,2,2,2,,,,,,,,,,,,,,,,,"(0.75, -0.04)",images/min4.png,3,0.054525926349,0.496488411697,[ 0.26061493 -0.140625  ],,,,,,,,,,,,2018_Jun_22_1610,59.9622391799,sequenceLearningTask,001,087,
min1.png,min2.png,min3.png,min4.png,allBlank.png,,,,,,,,,,,,0,3,3,3,,,,,,,,,,,,,,,,,"(-0.75, -0.04)",images/min1.png,4,0.0455117762003,0.487596928166,[ 0.70717423 -0.04166667],,,,,,,,,,,,2018_Jun_22_1610,59.9622391799,sequenceLearningTask,001,087,
min1.png,min2.png,min3.png,min4.png,allBlank.png,,,,,,,,,,,,0,3,3,3,,,,,,,,,,,,,,,,,"(0.25, -0.04)",images/min3.png,4,0.0602506419482,0.424856441085,[-0.82284041 -0.22135417],,,,,,,,,,,,2018_Jun_22_1610,59.9622391799,sequenceLearningTask,001,087,
min1.png,min2.png,min3.png,min4.png,allBlank.png,,,,,,,,,,,,0,3,3,3,,,,,,,,,,,,,,,,,"(-0.25, -0.04)",images/min2.png,4,0.0479326982841,0.43707387197,[ 0.18448023 -0.09375   ],,,,,,,,,,,,2018_Jun_22_1610,59.9622391799,sequenceLearningTask,001,087,
min1.png,min2.png,min3.png,min4.png,allBlank.png,,,,,,,,,,,,0,3,3,3,,,,,,,,,,,,,,,,,"(0.75, -0.04)",images/min4.png,4,0.0532795678846,0.7157264756,[-0.29282577 -0.17447917],,,,,,,,,,,,2018_Jun_22_1610,59.9622391799,sequenceLearningTask,001,087,
min1.png,min2.png,min3.png,min4.png,allBlank.png,,,,,,,,,,,,0,3,3,3,,,,,,,,,,,,,,,,,"(0.75, -0.04)",images/min4.png,4,0.0520414145467,0.549004902973,[ 0.83162518 -0.19010417],,,,,,,,,,,,2018_Jun_22_1610,59.9622391799,sequenceLearningTask,001,087,
min1.png,min2.png,min3.png,min4.png,allBlank.png,,,,,,,,,,,,0,3,3,3,,,,,,,,,,,,,,,,,"(-0.25, -0.04)",images/min2.png,4,0.0547326954947,0.428789157419,[ 0.77013177 -0.11458333],,,,,,,,,,,,2018_Jun_22_1610,59.9622391799,sequenceLearningTask,001,087,
min1.png,min2.png,min3.png,min4.png,allBlank.png,,,,,,,,,,,,0,3,3,3,,,,,,,,,,,,,,,,,"(0.25, -0.04)",images/min3.png,4,0.0515786455062,0.417843931141,[-0.25183016 -0.11458333],,,,,,,,,,,,2018_Jun_22_1610,59.9622391799,sequenceLearningTask,001,087,
min1.png,min2.png,min3.png,min4.png,allBlank.png,,,,,,,,,,,,0,3,3,3,,,,,,,,,,,,,,,,,"(0.75, -0.04)",images/min4.png,4,0.0666822290532,0.468213551501,[ 0.23133236 -0.0625    ],,,,,,,,,,,,2018_Jun_22_1610,59.9622391799,sequenceLearningTask,001,087,
min1.png,min2.png,min3.png,min4.png,allBlank.png,,,,,,,,,,,,0,4,4,4,,,,,,,,,,,,,,,,,"(-0.75, -0.04)",images/min1.png,5,0.0591224372829,0.439534178652,[ 0.77452416 -0.01041667],,,,,,,,,,,,2018_Jun_22_1610,59.9622391799,sequenceLearningTask,001,087,
min1.png,min2.png,min3.png,min4.png,allBlank.png,,,,,,,,,,,,0,4,4,4,,,,,,,,,,,,,,,,,"(0.25, -0.04)",images/min3.png,5,0.0487454158992,0.386680867003,[-0.88726208 -0.27864583],,,,,,,,,,,,2018_Jun_22_1610,59.9622391799,sequenceLearningTask,001,087,
min1.png,min2.png,min3.png,min4.png,allBlank.png,,,,,,,,,,,,0,4,4,4,,,,,,,,,,,,,,,,,"(-0.25, -0.04)",images/min2.png,5,0.0566633613689,0.411676959312,[ 0.19619327 -0.0703125 ],,,,,,,,,,,,2018_Jun_22_1610,59.9622391799,sequenceLearningTask,001,087,
min1.png,min2.png,min3.png,min4.png,allBlank.png,,,,,,,,,,,,0,4,4,4,,,,,,,,,,,,,,,,,"(0.75, -0.04)",images/min4.png,5,0.0445312637821,0.373467333962,[-0.22547584 -0.15104167],,,,,,,,,,,,2018_Jun_22_1610,59.9622391799,sequenceLearningTask,001,087,
min1.png,min2.png,min3.png,min4.png,allBlank.png,,,,,,,,,,,,0,4,4,4,,,,,,,,,,,,,,,,,"(0.75, -0.04)",images/min4.png,5,0.0576340276366,1.39615245286,[ 0.75988287 -0.00260417],,,,,,,,,,,,2018_Jun_22_1610,59.9622391799,sequenceLearningTask,001,087,
min1.png,min2.png,min3.png,min4.png,allBlank.png,,,,,,,,,,,,0,4,4,4,,,,,,,,,,,,,,,,,"(-0.25, -0.04)",images/min2.png,5,0.0445185458384,0.689941460537,[ 0.73645681 -0.1328125 ],,,,,,,,,,,,2018_Jun_22_1610,59.9622391799,sequenceLearningTask,001,087,
min1.png,min2.png,min3.png,min4.png,allBlank.png,,,,,,,,,,,,0,4,4,4,,,,,,,,,,,,,,,,,"(0.25, -0.04)",images/min3.png,5,0.0583716683605,0.426192645665,[-0.16105417 -0.2578125 ],,,,,,,,,,,,2018_Jun_22_1610,59.9622391799,sequenceLearningTask,001,087,
min1.png,min2.png,min3.png,min4.png,allBlank.png,,,,,,,,,,,,0,4,4,4,,,,,,,,,,,,,,,,,"(0.75, -0.04)",images/min4.png,5,0.0566284895876,0.444208638273,[ 0.24304539 -0.1796875 ],,,,,,,,,,,,2018_Jun_22_1610,59.9622391799,sequenceLearningTask,001,087,
min1.png,min2.png,min3.png,min4.png,allBlank.png,,,,,,,,,,,,0,5,5,5,,,,,,,,,,,,,,,,,"(-0.75, -0.04)",images/min1.png,6,0.0625398717784,0.453629762614,[ 0.78477306 -0.27604167],,,,,,,,,,,,2018_Jun_22_1610,59.9622391799,sequenceLearningTask,001,087,
min1.png,min2.png,min3.png,min4.png,allBlank.png,,,,,,,,,,,,0,5,5,5,,,,,,,,,,,,,,,,,"(0.25, -0.04)",images/min3.png,6,0.0556647976764,0.363097697191,[-0.57979502 -0.20052083],,,,,,,,,,,,2018_Jun_22_1610,59.9622391799,sequenceLearningTask,001,087,
min1.png,min2.png,min3.png,min4.png,allBlank.png,,,,,,,,,,,,0,5,5,5,,,,,,,,,,,,,,,,,"(-0.25, -0.04)",images/min2.png,6,0.0461768015684,0.389181378797,[ 0.25036603 -0.19791667],,,,,,,,,,,,2018_Jun_22_1610,59.9622391799,sequenceLearningTask,001,087,
min1.png,min2.png,min3.png,min4.png,allBlank.png,,,,,,,,,,,,0,5,5,5,,,,,,,,,,,,,,,,,"(0.75, -0.04)",images/min4.png,6,0.0606391546089,0.257680304541,[-0.18301611 -0.30989583],,,,,,,,,,,,2018_Jun_22_1610,59.9622391799,sequenceLearningTask,001,087,
min1.png,min2.png,min3.png,min4.png,allBlank.png,,,,,,,,,,,,0,5,5,5,,,,,,,,,,,,,,,,,"(0.75, -0.04)",images/min4.png,6,0.0540475675698,0.398057272592,[ 0.75695461 -0.25      ],,,,,,,,,,,,2018_Jun_22_1610,59.9622391799,sequenceLearningTask,001,087,
min1.png,min2.png,min3.png,min4.png,allBlank.png,,,,,,,,,,,,0,5,5,5,,,,,,,,,,,,,,,,,"(-0.25, -0.04)",images/min2.png,6,0.0577808993721,0.461687195206,[ 0.79355783 -0.13020833],,,,,,,,,,,,2018_Jun_22_1610,59.9622391799,sequenceLearningTask,001,087,
min1.png,min2.png,min3.png,min4.png,allBlank.png,,,,,,,,,,,,0,5,5,5,,,,,,,,,,,,,,,,,"(0.25, -0.04)",images/min3.png,6,0.0563470538063,0.395197786585,[-0.17569546 -0.28125   ],,,,,,,,,,,,2018_Jun_22_1610,59.9622391799,sequenceLearningTask,001,087,
min1.png,min2.png,min3.png,min4.png,allBlank.png,,,,,,,,,,,,0,5,5,5,,,,,,,,,,,,,,,,,"(0.75, -0.04)",images/min4.png,6,0.0622046924291,0.372481488213,[ 0.25622255 -0.23177083],,,,,,,,,,,,2018_Jun_22_1610,59.9622391799,sequenceLearningTask,001,087,
min1.png,min2.png,min3.png,min4.png,allBlank.png,,,,,,,,,,,,0,6,6,6,,,,,,,,,,,,,,,,,"(-0.75, -0.04)",images/min1.png,7,0.059910539524,0.439801255466,[ 0.68960469 -0.1796875 ],,,,,,,,,,,,2018_Jun_22_1610,59.9622391799,sequenceLearningTask,001,087,
min1.png,min2.png,min3.png,min4.png,allBlank.png,,,,,,,,,,,,0,6,6,6,,,,,,,,,,,,,,,,,"(0.25, -0.04)",images/min3.png,7,0.0571610021907,0.477685547616,[-0.73060029 -0.38802083],,,,,,,,,,,,2018_Jun_22_1610,59.9622391799,sequenceLearningTask,001,087,
min1.png,min2.png,min3.png,min4.png,allBlank.png,,,,,,,,,,,,0,6,6,6,,,,,,,,,,,,,,,,,"(-0.25, -0.04)",images/min2.png,7,0.0524106451649,0.482613955851,[ 0.15519766 -0.2265625 ],,,,,,,,,,,,2018_Jun_22_1610,59.9622391799,sequenceLearningTask,001,087,
min1.png,min2.png,min3.png,min4.png,allBlank.png,,,,,,,,,,,,0,6,6,6,,,,,,,,,,,,,,,,,"(0.75, -0.04)",images/min4.png,7,0.0582650017377,0.377027947886,[-0.1727672  -0.26302083],,,,,,,,,,,,2018_Jun_22_1610,59.9622391799,sequenceLearningTask,001,087,
min1.png,min2.png,min3.png,min4.png,allBlank.png,,,,,,,,,,,,0,6,6,6,,,,,,,,,,,,,,,,,"(0.75, -0.04)",images/min4.png,7,0.0574001815794,0.311355359444,[ 0.72181552 -0.12239583],,,,,,,,,,,,2018_Jun_22_1610,59.9622391799,sequenceLearningTask,001,087,
min1.png,min2.png,min3.png,min4.png,allBlank.png,,,,,,,,,,,,0,6,6,6,,,,,,,,,,,,,,,,,"(-0.25, -0.04)",images/min2.png,7,0.0571577201399,0.31121053899,[ 0.71742313 -0.15364583],,,,,,,,,,,,2018_Jun_22_1610,59.9622391799,sequenceLearningTask,001,087,
min1.png,min2.png,min3.png,min4.png,allBlank.png,,,,,,,,,,,,0,6,6,6,,,,,,,,,,,,,,,,,"(0.25, -0.04)",images/min3.png,7,0.0607138212454,0.273402144246,[-0.25768668 -0.0625    ],,,,,,,,,,,,2018_Jun_22_1610,59.9622391799,sequenceLearningTask,001,087,
min1.png,min2.png,min3.png,min4.png,allBlank.png,,,,,,,,,,,,0,6,6,6,,,,,,,,,,,,,,,,,"(0.75, -0.04)",images/min4.png,7,0.0601279753328,0.874933384643,[ 0.25622255 -0.11979167],0.357670827622,1,,,,,,,,,,2018_Jun_22_1610,59.9622391799,sequenceLearningTask,001,087,
min1.png,min2.png,min3.png,min4.png,allBlank.png,,,,,,,,,,,,0,7,7,7,,,,,,,,,,,,,,,,,"(-0.75, -0.04)",images/min1.png,8,0.0532853114728,0.479445136638,[ 0.69253294  0.01302083],,,,,,,,,,,,2018_Jun_22_1610,59.9622391799,sequenceLearningTask,001,087,
min1.png,min2.png,min3.png,min4.png,allBlank.png,,,,,,,,,,,,0,7,7,7,,,,,,,,,,,,,,,,,"(0.25, -0.04)",images/min3.png,8,0.0547581313813,0.414929470798,[-0.57101025 -0.1171875 ],,,,,,,,,,,,2018_Jun_22_1610,59.9622391799,sequenceLearningTask,001,087,
min1.png,min2.png,min3.png,min4.png,allBlank.png,,,,,,,,,,,,0,7,7,7,,,,,,,,,,,,,,,,,"(-0.25, -0.04)",images/min2.png,8,0.0629127947032,0.322481098469,[ 0.15959004 -0.00260417],,,,,,,,,,,,2018_Jun_22_1610,59.9622391799,sequenceLearningTask,001,087,
min1.png,min2.png,min3.png,min4.png,allBlank.png,,,,,,,,,,,,0,7,7,7,,,,,,,,,,,,,,,,,"(0.75, -0.04)",images/min4.png,8,0.0562444897459,0.412660753781,[-0.16837482 -0.19010417],,,,,,,,,,,,2018_Jun_22_1610,59.9622391799,sequenceLearningTask,001,087,
min1.png,min2.png,min3.png,min4.png,allBlank.png,,,,,,,,,,,,0,7,7,7,,,,,,,,,,,,,,,,,"(0.75, -0.04)",images/min4.png,8,0.061236487697,0.223291805829,[ 0.6852123 -0.0546875],,,,,,,,,,,,2018_Jun_22_1610,59.9622391799,sequenceLearningTask,001,087,
min1.png,min2.png,min3.png,min4.png,allBlank.png,,,,,,,,,,,,0,7,7,7,,,,,,,,,,,,,,,,,"(-0.25, -0.04)",images/min2.png,8,0.0820479663389,0.185240539388,[ 0.69985359  0.        ],,,,,,,,,,,,2018_Jun_22_1610,59.9622391799,sequenceLearningTask,001,087,
min1.png,min2.png,min3.png,min4.png,allBlank.png,,,,,,,,,,,,0,7,7,7,,,,,,,,,,,,,,,,,"(0.25, -0.04)",images/min3.png,8,0.0580003864616,0.276093014936,[-0.26939971 -0.04947917],,,,,,,,,,,,2018_Jun_22_1610,59.9622391799,sequenceLearningTask,001,087,
min1.png,min2.png,min3.png,min4.png,allBlank.png,,,,,,,,,,,,0,7,7,7,,,,,,,,,,,,,,,,,"(0.75, -0.04)",images/min4.png,8,0.0590268475789,0.874806615464,[ 0.32650073 -0.0546875 ],0.30819966843,1,,,,,,,,,,2018_Jun_22_1610,59.9622391799,sequenceLearningTask,001,087,
min1.png,min2.png,min3.png,min4.png,allBlank.png,,,,,,,,,,,,0,8,8,8,,,,,,,,,,,,,,,,,"(-0.75, -0.04)",images/min1.png,9,0.0592828474737,0.456773145939,[ 0.65592972 -0.09635417],,,,,,,,,,,,2018_Jun_22_1610,59.9622391799,sequenceLearningTask,001,087,
min1.png,min2.png,min3.png,min4.png,allBlank.png,,,,,,,,,,,,0,8,8,8,,,,,,,,,,,,,,,,,"(0.25, -0.04)",images/min3.png,9,0.065231973238,0.319096484473,[-0.58711567 -0.1640625 ],,,,,,,,,,,,2018_Jun_22_1610,59.9622391799,sequenceLearningTask,001,087,
min1.png,min2.png,min3.png,min4.png,allBlank.png,,,,,,,,,,,,0,8,8,8,,,,,,,,,,,,,,,,,"(-0.25, -0.04)",images/min2.png,9,0.0572143355012,0.244139387019,[ 0.26207906 -0.0546875 ],,,,,,,,,,,,2018_Jun_22_1610,59.9622391799,sequenceLearningTask,001,087,
min1.png,min2.png,min3.png,min4.png,allBlank.png,,,,,,,,,,,,0,8,8,8,,,,,,,,,,,,,,,,,"(0.75, -0.04)",images/min4.png,9,0.0678592542108,0.483006571075,[-0.23718887 -0.015625  ],,,,,,,,,,,,2018_Jun_22_1610,59.9622391799,sequenceLearningTask,001,087,
min1.png,min2.png,min3.png,min4.png,allBlank.png,,,,,,,,,,,,0,8,8,8,,,,,,,,,,,,,,,,,"(0.75, -0.04)",images/min4.png,9,0.0359039852701,0.28242326875,[ 0.6295754  -0.01822917],,,,,,,,,,,,2018_Jun_22_1610,59.9622391799,sequenceLearningTask,001,087,
min1.png,min2.png,min3.png,min4.png,allBlank.png,,,,,,,,,,,,0,8,8,8,,,,,,,,,,,,,,,,,"(-0.25, -0.04)",images/min2.png,9,0.0572471560017,0.276158655935,[ 0.70278184 -0.03385417],,,,,,,,,,,,2018_Jun_22_1610,59.9622391799,sequenceLearningTask,001,087,
min1.png,min2.png,min3.png,min4.png,allBlank.png,,,,,,,,,,,,0,8,8,8,,,,,,,,,,,,,,,,,"(0.25, -0.04)",images/min3.png,9,0.0584684888336,0.343905910192,[-0.26793558 -0.08854167],,,,,,,,,,,,2018_Jun_22_1610,59.9622391799,sequenceLearningTask,001,087,
min1.png,min2.png,min3.png,min4.png,allBlank.png,,,,,,,,,,,,0,8,8,8,,,,,,,,,,,,,,,,,"(0.75, -0.04)",images/min4.png,9,0.0586625400356,0.442684946591,[ 0.28696925 -0.12239583],,,,,,,,,,,,2018_Jun_22_1610,59.9622391799,sequenceLearningTask,001,087,
min1.png,min2.png,min3.png,min4.png,allBlank.png,,,,,,,,,,,,0,9,9,9,,,,,,,,,,,,,,,,,"(-0.75, -0.04)",images/min1.png,10,0.0649259220818,0.184554180696,[ 0.76573939 -0.06770833],,,,,,,,,,,,2018_Jun_22_1610,59.9622391799,sequenceLearningTask,001,087,
min1.png,min2.png,min3.png,min4.png,allBlank.png,,,,,,,,,,,,0,9,9,9,,,,,,,,,,,,,,,,,"(0.25, -0.04)",images/min3.png,10,0.0556582335757,0.54729126265,[-0.72327965  0.0234375 ],0.262443379511,1,,,,,,,,,,2018_Jun_22_1610,59.9622391799,sequenceLearningTask,001,087,
min1.png,min2.png,min3.png,min4.png,allBlank.png,,,,,,,,,,,,0,9,9,9,,,,,,,,,,,,,,,,,"(-0.25, -0.04)",images/min2.png,10,0.0247171180645,0.00294276802379,[ 0.22254758 -0.06770833],,,1,,,,,,,,,2018_Jun_22_1610,59.9622391799,sequenceLearningTask,001,087,
min1.png,min2.png,min3.png,min4.png,allBlank.png,,,,,,,,,,,,0,9,9,9,,,,,,,,,,,,,,,,,"(0.75, -0.04)",images/min4.png,10,0.0450182379409,0.573424175005,[-0.20644217 -0.17708333],,,,,,,,,,,,2018_Jun_22_1610,59.9622391799,sequenceLearningTask,001,087,
min1.png,min2.png,min3.png,min4.png,allBlank.png,,,,,,,,,,,,0,9,9,9,,,,,,,,,,,,,,,,,"(0.75, -0.04)",images/min4.png,10,0.0602046932499,0.341043142136,[ 0.71742313 -0.11197917],,,,,,,,,,,,2018_Jun_22_1610,59.9622391799,sequenceLearningTask,001,087,
min1.png,min2.png,min3.png,min4.png,allBlank.png,,,,,,,,,,,,0,9,9,9,,,,,,,,,,,,,,,,,"(-0.25, -0.04)",images/min2.png,10,0.0592311551873,0.42523469734,[ 0.70424597 -0.1171875 ],,,,,,,,,,,,2018_Jun_22_1610,59.9622391799,sequenceLearningTask,001,087,
min1.png,min2.png,min3.png,min4.png,allBlank.png,,,,,,,,,,,,0,9,9,9,,,,,,,,,,,,,,,,,"(0.25, -0.04)",images/min3.png,10,0.0535511575172,0.664847316986,[-0.31918009 -0.1328125 ],0.18127541281,1,,,,,,,,,,2018_Jun_22_1610,59.9622391799,sequenceLearningTask,001,087,
min1.png,min2.png,min3.png,min4.png,allBlank.png,,,,,,,,,,,,0,9,9,9,,,,,,,,,,,,,,,,,"(0.75, -0.04)",images/min4.png,10,0.0563335153511,0.494809643154,[ 0.36163982 -0.13020833],,,,,,,,,,,,2018_Jun_22_1610,59.9622391799,sequenceLearningTask,001,087,
min1.png,min2.png,min3.png,min4.png,allBlank.png,,,,,,,,,,,,0,0,0,0,,,,,,,,,,,,,,,,,"(-0.75, -0.04)",images/min1.png,1,0.0336188580022,0.522915067521,[ 0.89311859 -0.07552083],,,,,,,,,,,,2018_Jun_22_1610,59.9622391799,sequenceLearningTask,001,087,
min1.png,min2.png,min3.png,min4.png,allBlank.png,,,,,,,,,,,,0,0,0,0,,,,,,,,,,,,,,,,,"(0.25, -0.04)",images/min3.png,1,0.0703728942062,0.430357567033,[-0.64568082 -0.24479167],,,,,,,,,,,,2018_Jun_22_1610,59.9622391799,sequenceLearningTask,001,087,
min1.png,min2.png,min3.png,min4.png,allBlank.png,,,,,,,,,,,,0,0,0,0,,,,,,,,,,,,,,,,,"(-0.25, -0.04)",images/min2.png,1,0.0584332067965,0.376289076394,[ 0.19180088 -0.23958333],,,,,,,,,,,,2018_Jun_22_1610,59.9622391799,sequenceLearningTask,001,087,
min1.png,min2.png,min3.png,min4.png,allBlank.png,,,,,,,,,,,,0,0,0,0,,,,,,,,,,,,,,,,,"(0.75, -0.04)",images/min4.png,1,0.0572615149704,0.328136070509,[-0.21669107 -0.30729167],,,,,,,,,,,,2018_Jun_22_1610,59.9622391799,sequenceLearningTask,001,087,
min1.png,min2.png,min3.png,min4.png,allBlank.png,,,,,,,,,,,,0,0,0,0,,,,,,,,,,,,,,,,,"(0.75, -0.04)",images/min4.png,1,0.0555445925966,0.327852583445,[ 0.73206442 -0.20833333],,,,,,,,,,,,2018_Jun_22_1610,59.9622391799,sequenceLearningTask,001,087,
min1.png,min2.png,min3.png,min4.png,allBlank.png,,,,,,,,,,,,0,0,0,0,,,,,,,,,,,,,,,,,"(-0.25, -0.04)",images/min2.png,1,0.0575035661523,0.39400188964,[ 0.76427526 -0.20833333],,,,,,,,,,,,2018_Jun_22_1610,59.9622391799,sequenceLearningTask,001,087,
min1.png,min2.png,min3.png,min4.png,allBlank.png,,,,,,,,,,,,0,0,0,0,,,,,,,,,,,,,,,,,"(0.25, -0.04)",images/min3.png,1,0.0454231608519,0.339236373647,[-0.2489019  -0.14583333],,,,,,,,,,,,2018_Jun_22_1610,59.9622391799,sequenceLearningTask,001,087,
min1.png,min2.png,min3.png,min4.png,allBlank.png,,,,,,,,,,,,0,0,0,0,,,,,,,,,,,,,,,,,"(0.75, -0.04)",images/min4.png,1,0.0608771032303,0.42364946722,[ 0.21229868 -0.11979167],,,,,,,,,,,,2018_Jun_22_1610,59.9622391799,sequenceLearningTask,001,087,
min1.png,min2.png,min3.png,min4.png,allBlank.png,,,,,,,,,,,,0,1,1,1,,,,,,,,,,,,,,,,,"(-0.75, -0.04)",images/min1.png,2,0.0512053123257,0.163610599545,[ 0.73938507 -0.0859375 ],,,,,,,,,,,,2018_Jun_22_1610,59.9622391799,sequenceLearningTask,001,087,
min1.png,min2.png,min3.png,min4.png,allBlank.png,,,,,,,,,,,,0,1,1,1,,,,,,,,,,,,,,,,,"(0.25, -0.04)",images/min3.png,2,0.0517333121097,0.599402010502,[-0.65446559 -0.09895833],0.233115801799,1,,,,,,,,,,2018_Jun_22_1610,59.9622391799,sequenceLearningTask,001,087,
min1.png,min2.png,min3.png,min4.png,allBlank.png,,,,,,,,,,,,0,1,1,1,,,,,,,,,,,,,,,,,"(-0.25, -0.04)",images/min2.png,2,0.0610682826391,0.239846055448,[ 0.22693997 -0.1953125 ],,,,,,,,,,,,2018_Jun_22_1610,59.9622391799,sequenceLearningTask,001,087,
min1.png,min2.png,min3.png,min4.png,allBlank.png,,,,,,,,,,,,0,1,1,1,,,,,,,,,,,,,,,,,"(0.75, -0.04)",images/min4.png,2,0.0590953603714,0.393187120743,[-0.24743777 -0.22395833],,,,,,,,,,,,2018_Jun_22_1610,59.9622391799,sequenceLearningTask,001,087,
min1.png,min2.png,min3.png,min4.png,allBlank.png,,,,,,,,,,,,0,1,1,1,,,,,,,,,,,,,,,,,"(0.75, -0.04)",images/min4.png,2,0.0502834665504,0.0499474666885,[ 0.6193265 -0.1328125],,,1,,,,,,,,,2018_Jun_22_1610,59.9622391799,sequenceLearningTask,001,087,
min1.png,min2.png,min3.png,min4.png,allBlank.png,,,,,,,,,,,,0,1,1,1,,,,,,,,,,,,,,,,,"(-0.25, -0.04)",images/min2.png,2,0.0521177222081,0.149262297739,[ 0.73206442 -0.1171875 ],,,,,,,,,,,,2018_Jun_22_1610,59.9622391799,sequenceLearningTask,001,087,
min1.png,min2.png,min3.png,min4.png,allBlank.png,,,,,,,,,,,,0,1,1,1,,,,,,,,,,,,,,,,,"(0.25, -0.04)",images/min3.png,2,0.0583134119743,0.559439770486,[-0.25915081 -0.06510417],0.209455093557,1,,,,,,,,,,2018_Jun_22_1610,59.9622391799,sequenceLearningTask,001,087,
min1.png,min2.png,min3.png,min4.png,allBlank.png,,,,,,,,,,,,0,1,1,1,,,,,,,,,,,,,,,,,"(0.75, -0.04)",images/min4.png,2,0.0553476696005,0.195670483828,[ 0.22254758 -0.15104167],,,,,,,,,,,,2018_Jun_22_1610,59.9622391799,sequenceLearningTask,001,087,
min1.png,min2.png,min3.png,min4.png,allBlank.png,,,,,,,,,,,,0,2,2,2,,,,,,,,,,,,,,,,,"(-0.75, -0.04)",images/min1.png,3,0.0556430540946,0.193607305187,[ 0.69985359 -0.18489583],,,,,,,,,,,,2018_Jun_22_1610,59.9622391799,sequenceLearningTask,001,087,
min1.png,min2.png,min3.png,min4.png,allBlank.png,,,,,,,,,,,,0,2,2,2,,,,,,,,,,,,,,,,,"(0.25, -0.04)",images/min3.png,3,0.0550079774321,0.345557191567,[-0.62225476 -0.15104167],,,,,,,,,,,,2018_Jun_22_1610,59.9622391799,sequenceLearningTask,001,087,
min1.png,min2.png,min3.png,min4.png,allBlank.png,,,,,,,,,,,,0,2,2,2,,,,,,,,,,,,,,,,,"(-0.25, -0.04)",images/min2.png,3,0.0554362849498,0.0621956667919,[ 0.22986823 -0.08333333],,,,,,,,,,,,2018_Jun_22_1610,59.9622391799,sequenceLearningTask,001,087,
min1.png,min2.png,min3.png,min4.png,allBlank.png,,,,,,,,,,,,0,2,2,2,,,,,,,,,,,,,,,,,"(0.75, -0.04)",images/min4.png,3,0.0606957699711,0.30811679667,[-0.25475842 -0.0703125 ],,,,,,,,,,,,2018_Jun_22_1610,59.9622391799,sequenceLearningTask,001,087,
min1.png,min2.png,min3.png,min4.png,allBlank.png,,,,,,,,,,,,0,2,2,2,,,,,,,,,,,,,,,,,"(0.75, -0.04)",images/min4.png,3,0.0509115688574,0.117675438903,[ 0.65885798 -0.05729167],,,,,,,,,,,,2018_Jun_22_1610,59.9622391799,sequenceLearningTask,001,087,
min1.png,min2.png,min3.png,min4.png,allBlank.png,,,,,,,,,,,,0,2,2,2,,,,,,,,,,,,,,,,,"(-0.25, -0.04)",images/min2.png,3,0.0586243862053,0.159437883308,[ 0.67203514 -0.13020833],,,,,,,,,,,,2018_Jun_22_1610,59.9622391799,sequenceLearningTask,001,087,
min1.png,min2.png,min3.png,min4.png,allBlank.png,,,,,,,,,,,,0,2,2,2,,,,,,,,,,,,,,,,,"(0.25, -0.04)",images/min3.png,3,0.0529045936801,0.23168441777,[-0.25183016 -0.1875    ],,,,,,,,,,,,2018_Jun_22_1610,59.9622391799,sequenceLearningTask,001,087,
min1.png,min2.png,min3.png,min4.png,allBlank.png,,,,,,,,,,,,0,2,2,2,,,,,,,,,,,,,,,,,"(0.75, -0.04)",images/min4.png,3,0.0680660233575,0.200762584303,[ 0.26207906 -0.07552083],,,,,,,,,,,,2018_Jun_22_1610,59.9622391799,sequenceLearningTask,001,087,
min1.png,min2.png,min3.png,min4.png,allBlank.png,,,,,,,,,,,,0,3,3,3,,,,,,,,,,,,,,,,,"(-0.75, -0.04)",images/min1.png,4,0.0535556703362,0.177627824563,[ 0.63250366 -0.12239583],,,,,,,,,,,,2018_Jun_22_1610,59.9622391799,sequenceLearningTask,001,087,
min1.png,min2.png,min3.png,min4.png,allBlank.png,,,,,,,,,,,,0,3,3,3,,,,,,,,,,,,,,,,,"(0.25, -0.04)",images/min3.png,4,0.0594219243394,0.592336167247,[-0.6295754  -0.10416667],0.191242588208,1,,,,,,,,,,2018_Jun_22_1610,59.9622391799,sequenceLearningTask,001,087,
min1.png,min2.png,min3.png,min4.png,allBlank.png,,,,,,,,,,,,0,3,3,3,,,,,,,,,,,,,,,,,"(-0.25, -0.04)",images/min2.png,4,0.0238851184058,0.0264492199176,[ 0.22986823  0.00520833],,,,,,,,,,,,2018_Jun_22_1610,59.9622391799,sequenceLearningTask,001,087,
min1.png,min2.png,min3.png,min4.png,allBlank.png,,,,,,,,,,,,0,3,3,3,,,,,,,,,,,,,,,,,"(0.75, -0.04)",images/min4.png,4,0.0526826450532,0.266529121423,[-0.31185944  0.01302083],,,,,,,,,,,,2018_Jun_22_1610,59.9622391799,sequenceLearningTask,001,087,
min1.png,min2.png,min3.png,min4.png,allBlank.png,,,,,,,,,,,,0,3,3,3,,,,,,,,,,,,,,,,,"(0.75, -0.04)",images/min4.png,4,0.0622075642232,0.172432339516,[ 0.62079063 -0.015625  ],,,,,,,,,,,,2018_Jun_22_1610,59.9622391799,sequenceLearningTask,001,087,
min1.png,min2.png,min3.png,min4.png,allBlank.png,,,,,,,,,,,,0,3,3,3,,,,,,,,,,,,,,,,,"(-0.25, -0.04)",images/min2.png,4,0.0559326950024,0.561788897728,[ 0.68374817 -0.0859375 ],0.227947803918,1,,,,,,,,,,2018_Jun_22_1610,59.9622391799,sequenceLearningTask,001,087,
min1.png,min2.png,min3.png,min4.png,allBlank.png,,,,,,,,,,,,0,3,3,3,,,,,,,,,,,,,,,,,"(0.25, -0.04)",images/min3.png,4,0.0484057237309,0.0350481907499,[-0.29575403 -0.109375  ],,,1,,,,,,,,,2018_Jun_22_1610,59.9622391799,sequenceLearningTask,001,087,
min1.png,min2.png,min3.png,min4.png,allBlank.png,,,,,,,,,,,,0,3,3,3,,,,,,,,,,,,,,,,,"(0.75, -0.04)",images/min4.png,4,0.0583433606789,0.726020214966,[ 0.17862372 -0.1015625 ],0.209462478169,1,,,,,,,,,,2018_Jun_22_1610,59.9622391799,sequenceLearningTask,001,087,
min1.png,min2.png,min3.png,min4.png,allBlank.png,,,,,,,,,,,,0,4,4,4,,,,,,,,,,,,,,,,,"(-0.75, -0.04)",images/min1.png,5,0.0515630557693,0.197471098473,[ 0.77891654 -0.11458333],,,,,,,,,,,,2018_Jun_22_1610,59.9622391799,sequenceLearningTask,001,087,
min1.png,min2.png,min3.png,min4.png,allBlank.png,,,,,,,,,,,,0,4,4,4,,,,,,,,,,,,,,,,,"(0.25, -0.04)",images/min3.png,5,0.0572705406075,0.743203387404,[-0.68667643 -0.0625    ],0.425664235625,1,,,,,,,,,,2018_Jun_22_1610,59.9622391799,sequenceLearningTask,001,087,
min1.png,min2.png,min3.png,min4.png,allBlank.png,,,,,,,,,,,,0,4,4,4,,,,,,,,,,,,,,,,,"(-0.25, -0.04)",images/min2.png,5,0.0535269523998,0.16549531672,[ 0.12005857 -0.05729167],,,,,,,,,,,,2018_Jun_22_1610,59.9622391799,sequenceLearningTask,001,087,
min1.png,min2.png,min3.png,min4.png,allBlank.png,,,,,,,,,,,,0,4,4,4,,,,,,,,,,,,,,,,,"(0.75, -0.04)",images/min4.png,5,0.0551220286679,0.278627167742,[-0.22547584 -0.07291667],,,,,,,,,,,,2018_Jun_22_1610,59.9622391799,sequenceLearningTask,001,087,
min1.png,min2.png,min3.png,min4.png,allBlank.png,,,,,,,,,,,,0,4,4,4,,,,,,,,,,,,,,,,,"(0.75, -0.04)",images/min4.png,5,0.0501156717473,0.13592732885,[ 0.77598829 -0.1796875 ],,,,,,,,,,,,2018_Jun_22_1610,59.9622391799,sequenceLearningTask,001,087,
min1.png,min2.png,min3.png,min4.png,allBlank.png,,,,,,,,,,,,0,4,4,4,,,,,,,,,,,,,,,,,"(-0.25, -0.04)",images/min2.png,5,0.0404081885508,0.494477335599,[ 0.75402635 -0.13802083],,,,,,,,,,,,2018_Jun_22_1610,59.9622391799,sequenceLearningTask,001,087,
min1.png,min2.png,min3.png,min4.png,allBlank.png,,,,,,,,,,,,0,4,4,4,,,,,,,,,,,,,,,,,"(0.25, -0.04)",images/min3.png,5,0.0586604887549,0.0926469363494,[-0.33235725 -0.2109375 ],,,,,,,,,,,,2018_Jun_22_1610,59.9622391799,sequenceLearningTask,001,087,
min1.png,min2.png,min3.png,min4.png,allBlank.png,,,,,,,,,,,,0,4,4,4,,,,,,,,,,,,,,,,,"(0.75, -0.04)",images/min4.png,5,0.044994853336,0.157892448044,[ 0.16837482 -0.2734375 ],,,,,,,,,,,,2018_Jun_22_1610,59.9622391799,sequenceLearningTask,001,087,
min1.png,min2.png,min3.png,min4.png,allBlank.png,,,,,,,,,,,,0,5,5,5,,,,,,,,,,,,,,,,,"(-0.75, -0.04)",images/min1.png,6,0.0600036676906,0.155240551696,[ 0.72767204 -0.125     ],,,,,,,,,,,,2018_Jun_22_1610,59.9622391799,sequenceLearningTask,001,087,
min1.png,min2.png,min3.png,min4.png,allBlank.png,,,,,,,,,,,,0,5,5,5,,,,,,,,,,,,,,,,,"(0.25, -0.04)",images/min3.png,6,0.0530116705595,0.15040075881,[-0.69985359 -0.12760417],,,,,,,,,,,,2018_Jun_22_1610,59.9622391799,sequenceLearningTask,001,087,
min1.png,min2.png,min3.png,min4.png,allBlank.png,,,,,,,,,,,,0,5,5,5,,,,,,,,,,,,,,,,,"(-0.25, -0.04)",images/min2.png,6,0.0574444892536,0.0932545258447,[ 0.19912152 -0.06770833],,,,,,,,,,,,2018_Jun_22_1610,59.9622391799,sequenceLearningTask,001,087,
min1.png,min2.png,min3.png,min4.png,allBlank.png,,,,,,,,,,,,0,5,5,5,,,,,,,,,,,,,,,,,"(0.75, -0.04)",images/min4.png,6,0.0509177227004,0.168006084921,[-0.3601757  -0.04427083],,,,,,,,,,,,2018_Jun_22_1610,59.9622391799,sequenceLearningTask,001,087,
min1.png,min2.png,min3.png,min4.png,allBlank.png,,,,,,,,,,,,0,5,5,5,,,,,,,,,,,,,,,,,"(0.75, -0.04)",images/min4.png,6,0.0528910552239,0.149142502916,[ 0.65007321  0.03125   ],,,,,,,,,,,,2018_Jun_22_1610,59.9622391799,sequenceLearningTask,001,087,
min1.png,min2.png,min3.png,min4.png,allBlank.png,,,,,,,,,,,,0,5,5,5,,,,,,,,,,,,,,,,,"(-0.25, -0.04)",images/min2.png,6,0.0576118737999,0.727213240118,[ 0.61054173  0.01302083],0.143702094892,1,,,,,,,,,,2018_Jun_22_1610,59.9622391799,sequenceLearningTask,001,087,
min1.png,min2.png,min3.png,min4.png,allBlank.png,,,,,,,,,,,,0,5,5,5,,,,,,,,,,,,,,,,,"(0.25, -0.04)",images/min3.png,6,0.0528155680759,0.115696773048,[-0.21229868 -0.09895833],,,,,,,,,,,,2018_Jun_22_1610,59.9622391799,sequenceLearningTask,001,087,
min1.png,min2.png,min3.png,min4.png,allBlank.png,,,,,,,,,,,,0,5,5,5,,,,,,,,,,,,,,,,,"(0.75, -0.04)",images/min4.png,6,0.0566998741742,0.360658723833,[ 0.26939971 -0.078125  ],,,,,,,,,,,,2018_Jun_22_1610,59.9622391799,sequenceLearningTask,001,087,
min1.png,min2.png,min3.png,min4.png,allBlank.png,,,,,,,,,,,,0,6,6,6,,,,,,,,,,,,,,,,,"(-0.75, -0.04)",images/min1.png,7,0.0452906480859,0.438456435505,[ 0.63396779  0.0078125 ],,,,,,,,,,,,2018_Jun_22_1610,59.9622391799,sequenceLearningTask,001,087,
min1.png,min2.png,min3.png,min4.png,allBlank.png,,,,,,,,,,,,0,6,6,6,,,,,,,,,,,,,,,,,"(0.25, -0.04)",images/min3.png,7,0.0557480796924,0.615383542407,[-0.64421669 -0.26302083],,,,,,,,,,,,2018_Jun_22_1610,59.9622391799,sequenceLearningTask,001,087,
min1.png,min2.png,min3.png,min4.png,allBlank.png,,,,,,,,,,,,0,6,6,6,,,,,,,,,,,,,,,,,"(-0.25, -0.04)",images/min2.png,7,0.0665029470765,0.684830488274,[-0.26500732 -0.046875  ],,,,,,,,,,,,2018_Jun_22_1610,59.9622391799,sequenceLearningTask,001,087,
min1.png,min2.png,min3.png,min4.png,allBlank.png,,,,,,,,,,,,0,6,6,6,,,,,,,,,,,,,,,,,"(0.75, -0.04)",images/min4.png,7,0.0618699233355,0.239676209364,[-0.20937042 -0.29427083],,,,,,,,,,,,2018_Jun_22_1610,59.9622391799,sequenceLearningTask,001,087,
min1.png,min2.png,min3.png,min4.png,allBlank.png,,,,,,,,,,,,0,6,6,6,,,,,,,,,,,,,,,,,"(0.75, -0.04)",images/min4.png,7,0.0532807986538,0.181057977002,[ 0.70717423 -0.08854167],,,,,,,,,,,,2018_Jun_22_1610,59.9622391799,sequenceLearningTask,001,087,
min1.png,min2.png,min3.png,min4.png,allBlank.png,,,,,,,,,,,,0,6,6,6,,,,,,,,,,,,,,,,,"(-0.25, -0.04)",images/min2.png,7,0.0598887959432,0.407493166157,[ 0.69106881 -0.1640625 ],,,,,,,,,,,,2018_Jun_22_1610,59.9622391799,sequenceLearningTask,001,087,
min1.png,min2.png,min3.png,min4.png,allBlank.png,,,,,,,,,,,,0,6,6,6,,,,,,,,,,,,,,,,,"(0.25, -0.04)",images/min3.png,7,0.0571536175776,0.193782484602,[-0.27964861 -0.13802083],,,,,,,,,,,,2018_Jun_22_1610,59.9622391799,sequenceLearningTask,001,087,
min1.png,min2.png,min3.png,min4.png,allBlank.png,,,,,,,,,,,,0,6,6,6,,,,,,,,,,,,,,,,,"(0.75, -0.04)",images/min4.png,7,0.0574547456599,0.228040111573,[ 0.25183016 -0.19270833],,,,,,,,,,,,2018_Jun_22_1610,59.9622391799,sequenceLearningTask,001,087,
min1.png,min2.png,min3.png,min4.png,allBlank.png,,,,,,,,,,,,0,7,7,7,,,,,,,,,,,,,,,,,"(-0.75, -0.04)",images/min1.png,8,0.0535819267352,0.379955946684,[ 0.59150805 -0.13541667],,,,,,,,,,,,2018_Jun_22_1610,59.9622391799,sequenceLearningTask,001,087,
min1.png,min2.png,min3.png,min4.png,allBlank.png,,,,,,,,,,,,0,7,7,7,,,,,,,,,,,,,,,,,"(0.25, -0.04)",images/min3.png,8,0.054298234134,0.316011357533,[-0.7057101  -0.28645833],,,,,,,,,,,,2018_Jun_22_1610,59.9622391799,sequenceLearningTask,001,087,
min1.png,min2.png,min3.png,min4.png,allBlank.png,,,,,,,,,,,,0,7,7,7,,,,,,,,,,,,,,,,,"(-0.25, -0.04)",images/min2.png,8,0.0555224387599,0.180228849137,[ 0.20058565 -0.12239583],,,,,,,,,,,,2018_Jun_22_1610,59.9622391799,sequenceLearningTask,001,087,
min1.png,min2.png,min3.png,min4.png,allBlank.png,,,,,,,,,,,,0,7,7,7,,,,,,,,,,,,,,,,,"(0.75, -0.04)",images/min4.png,8,0.0366202926689,0.249191282383,[-0.17130307 -0.15364583],,,,,,,,,,,,2018_Jun_22_1610,59.9622391799,sequenceLearningTask,001,087,
min1.png,min2.png,min3.png,min4.png,allBlank.png,,,,,,,,,,,,0,7,7,7,,,,,,,,,,,,,,,,,"(0.75, -0.04)",images/min4.png,8,0.0641045890861,0.103221290986,[ 0.66471449 -0.046875  ],,,,,,,,,,,,2018_Jun_22_1610,59.9622391799,sequenceLearningTask,001,087,
min1.png,min2.png,min3.png,min4.png,allBlank.png,,,,,,,,,,,,0,7,7,7,,,,,,,,,,,,,,,,,"(-0.25, -0.04)",images/min2.png,8,0.0589968988734,0.326090943143,[ 0.75549048  0.04427083],,,,,,,,,,,,2018_Jun_22_1610,59.9622391799,sequenceLearningTask,001,087,
min1.png,min2.png,min3.png,min4.png,allBlank.png,,,,,,,,,,,,0,7,7,7,,,,,,,,,,,,,,,,,"(0.25, -0.04)",images/min3.png,8,0.0633300253003,0.154913987728,[-0.32650073 -0.14322917],,,,,,,,,,,,2018_Jun_22_1610,59.9622391799,sequenceLearningTask,001,087,
min1.png,min2.png,min3.png,min4.png,allBlank.png,,,,,,,,,,,,0,7,7,7,,,,,,,,,,,,,,,,,"(0.75, -0.04)",images/min4.png,8,0.0553365926826,0.0788102240776,[ 0.20351391 -0.1328125 ],,,,,,,,,,,,2018_Jun_22_1610,59.9622391799,sequenceLearningTask,001,087,
min1.png,min2.png,min3.png,min4.png,allBlank.png,,,,,,,,,,,,0,8,8,8,,,,,,,,,,,,,,,,,"(-0.75, -0.04)",images/min1.png,9,0.0525464399807,0.0804783259582,[ 0.80380673  0.125     ],,,,,,,,,,,,2018_Jun_22_1610,59.9622391799,sequenceLearningTask,001,087,
min1.png,min2.png,min3.png,min4.png,allBlank.png,,,,,,,,,,,,0,8,8,8,,,,,,,,,,,,,,,,,"(0.25, -0.04)",images/min3.png,9,0.0383983432212,0.413295830443,[-0.73938507 -0.02083333],,,,,,,,,,,,2018_Jun_22_1610,59.9622391799,sequenceLearningTask,001,087,
min1.png,min2.png,min3.png,min4.png,allBlank.png,,,,,,,,,,,,0,8,8,8,,,,,,,,,,,,,,,,,"(-0.25, -0.04)",images/min2.png,9,0.0560139257386,0.112710928119,[ 0.21522694 -0.02604167],,,,,,,,,,,,2018_Jun_22_1610,59.9622391799,sequenceLearningTask,001,087,
min1.png,min2.png,min3.png,min4.png,allBlank.png,,,,,,,,,,,,0,8,8,8,,,,,,,,,,,,,,,,,"(0.75, -0.04)",images/min4.png,9,0.054351977702,0.413285984293,[-0.27525622 -0.01302083],,,,,,,,,,,,2018_Jun_22_1610,59.9622391799,sequenceLearningTask,001,087,
min1.png,min2.png,min3.png,min4.png,allBlank.png,,,,,,,,,,,,0,8,8,8,,,,,,,,,,,,,,,,,"(0.75, -0.04)",images/min4.png,9,0.0404750603175,0.0444438792028,[ 0.6749634  -0.05989583],,,,,,,,,,,,2018_Jun_22_1610,59.9622391799,sequenceLearningTask,001,087,
min1.png,min2.png,min3.png,min4.png,allBlank.png,,,,,,,,,,,,0,8,8,8,,,,,,,,,,,,,,,,,"(-0.25, -0.04)",images/min2.png,9,0.0576053097002,0.627288358036,[ 0.64860908 -0.23177083],0.344533191987,1,,,,,,,,,,2018_Jun_22_1610,59.9622391799,sequenceLearningTask,001,087,
min1.png,min2.png,min3.png,min4.png,allBlank.png,,,,,,,,,,,,0,8,8,8,,,,,,,,,,,,,,,,,"(0.25, -0.04)",images/min3.png,9,0.0452582378421,0.389560455566,[-0.21376281 -0.13020833],,,,,,,,,,,,2018_Jun_22_1610,59.9622391799,sequenceLearningTask,001,087,
min1.png,min2.png,min3.png,min4.png,allBlank.png,,,,,,,,,,,,0,8,8,8,,,,,,,,,,,,,,,,,"(0.75, -0.04)",images/min4.png,9,0.0535039780498,0.630227433753,[ 0.29721816 -0.13802083],0.181142489788,1,,,,,,,,,,2018_Jun_22_1610,59.9622391799,sequenceLearningTask,001,087,
min1.png,min2.png,min3.png,min4.png,allBlank.png,,,,,,,,,,,,0,9,9,9,,,,,,,,,,,,,,,,,"(-0.75, -0.04)",images/min1.png,10,0.0565111563028,0.292771982452,[ 0.66178624 -0.14322917],,,,,,,,,,,,2018_Jun_22_1610,59.9622391799,sequenceLearningTask,001,087,
min1.png,min2.png,min3.png,min4.png,allBlank.png,,,,,,,,,,,,0,9,9,9,,,,,,,,,,,,,,,,,"(0.25, -0.04)",images/min3.png,10,0.0626625383948,0.388700148225,[-0.69985359 -0.16666667],,,,,,,,,,,,2018_Jun_22_1610,59.9622391799,sequenceLearningTask,001,087,
min1.png,min2.png,min3.png,min4.png,allBlank.png,,,,,,,,,,,,0,9,9,9,,,,,,,,,,,,,,,,,"(-0.25, -0.04)",images/min2.png,10,0.0643441787306,0.072447149766,[ 0.18301611 -0.10416667],,,,,,,,,,,,2018_Jun_22_1610,59.9622391799,sequenceLearningTask,001,087,
min1.png,min2.png,min3.png,min4.png,allBlank.png,,,,,,,,,,,,0,9,9,9,,,,,,,,,,,,,,,,,"(0.75, -0.04)",images/min4.png,10,0.0591523859894,0.34239206466,[-0.26061493 -0.11458333],,,,,,,,,,,,2018_Jun_22_1610,59.9622391799,sequenceLearningTask,001,087,
min1.png,min2.png,min3.png,min4.png,allBlank.png,,,,,,,,,,,,0,9,9,9,,,,,,,,,,,,,,,,,"(0.75, -0.04)",images/min4.png,10,0.0485099288162,0.85356190623,[ 0.6749634  -0.11458333],0.452771916811,1,,,,,,,,,,2018_Jun_22_1610,59.9622391799,sequenceLearningTask,001,087,
min1.png,min2.png,min3.png,min4.png,allBlank.png,,,,,,,,,,,,0,9,9,9,,,,,,,,,,,,,,,,,"(-0.25, -0.04)",images/min2.png,10,0.0524463374577,0.632144150915,[ 0.65592972 -0.19791667],0.265562557718,1,,,,,,,,,,2018_Jun_22_1610,59.9622391799,sequenceLearningTask,001,087,
min1.png,min2.png,min3.png,min4.png,allBlank.png,,,,,,,,,,,,0,9,9,9,,,,,,,,,,,,,,,,,"(0.25, -0.04)",images/min3.png,10,0.0305517823381,0.405608859237,[ 0.19033675 -0.01302083],,,,,,,,,,,,2018_Jun_22_1610,59.9622391799,sequenceLearningTask,001,087,
min1.png,min2.png,min3.png,min4.png,allBlank.png,,,,,,,,,,,,0,9,9,9,,,,,,,,,,,,,,,,,"(0.75, -0.04)",images/min4.png,10,0.0646083837501,0.185843616064,[ 0.26793558 -0.05729167],,,,,,,,,,,,2018_Jun_22_1610,59.9622391799,sequenceLearningTask,001,087,
min1.png,min2.png,min3.png,min4.png,images/allBlank.png,"['num_7', 'num_4', 'num_1', 'num_0']",['num_7'],num_7,[1],'num_7',images/min1.png,"[(0.45, 0.79)]",,,,,0,-1,-1,0,0,0,0,0,,,,,,,,,,,,,"(-0.25, 0.04)",images/min2.png,1,0.0316586536783,0.445494791592,[ 0.61639824 -0.21354167],,,,,,,,['num_7'],,,,2018_Jun_22_1610,59.9622391799,sequenceLearningTask,001,087,
min1.png,min2.png,min3.png,min4.png,images/allBlank.png,"['num_7', 'num_4', 'num_1', 'num_0']",['num_7'],num_7,[1],'num_7',images/min1.png,"[(0.45, 0.79)]",,,,,0,-1,-1,0,0,0,0,0,,,,,,,,,,,,,"(-0.75, 0.04)",images/min1.png,1,0.062805307567,0.504987280005,[-0.21083455 -0.1953125 ],,,,,,,,['num_7'],,,,2018_Jun_22_1610,59.9622391799,sequenceLearningTask,001,087,
min1.png,min2.png,min3.png,min4.png,images/allBlank.png,"['num_7', 'num_4', 'num_1', 'num_0']",['num_7'],num_7,[1],'num_7',images/min1.png,"[(0.45, 0.79)]",,,,,0,-1,-1,0,0,0,0,0,,,,,,,,,,,,,"(-0.75, 0.04)",images/min1.png,1,0.0597103344771,0.664028855784,[-0.65592972 -0.1953125 ],0.240988208826,1,,,,,,['num_7'],,,,2018_Jun_22_1610,59.9622391799,sequenceLearningTask,001,087,
min1.png,min2.png,min3.png,min4.png,images/allBlank.png,"['num_7', 'num_4', 'num_1', 'num_0']",['num_7'],num_7,[1],'num_7',images/min1.png,"[(0.45, 0.79)]",,,,,0,-1,-1,0,0,0,0,0,,,,,,,,,,,,,"(-0.75, 0.04)",images/min1.png,1,0.0573386431433,0.543814340999,[-0.6749634  -0.18489583],,,,,,,,['num_7'],,,,2018_Jun_22_1610,59.9622391799,sequenceLearningTask,001,087,
min1.png,min2.png,min3.png,min4.png,images/allBlank.png,"['num_7', 'num_4', 'num_1', 'num_0']",['num_0'],num_0,[4],'num_0',images/min4.png,"[(0.45, 0.79)]",,,,,0,-1,-1,0,0,1,1,3,,,,,,,,,,,,,"(-0.75, 0.04)",images/min1.png,2,0.058303155568,0.474489651491,[-0.54465593 -0.2734375 ],,,,,,,,['num_0'],,,,2018_Jun_22_1610,59.9622391799,sequenceLearningTask,001,087,
min1.png,min2.png,min3.png,min4.png,images/allBlank.png,"['num_7', 'num_4', 'num_1', 'num_0']",['num_0'],num_0,[4],'num_0',images/min4.png,"[(0.45, 0.79)]",,,,,0,-1,-1,0,0,1,1,3,,,,,,,,,,,,,"(0.25, 0.04)",images/min3.png,2,0.0558838745092,0.461989964311,[-0.6954612  -0.21614583],,,,,,,,['num_0'],,,,2018_Jun_22_1610,59.9622391799,sequenceLearningTask,001,087,
min1.png,min2.png,min3.png,min4.png,images/allBlank.png,"['num_7', 'num_4', 'num_1', 'num_0']",['num_0'],num_0,[4],'num_0',images/min4.png,"[(0.45, 0.79)]",,,,,0,-1,-1,0,0,1,1,3,,,,,,,,,,,,,"(-0.75, 0.04)",images/min1.png,2,0.0562678743518,0.447171919109,[ 0.16691069 -0.23958333],,,,,,,,['num_0'],,,,2018_Jun_22_1610,59.9622391799,sequenceLearningTask,001,087,
min1.png,min2.png,min3.png,min4.png,images/allBlank.png,"['num_7', 'num_4', 'num_1', 'num_0']",['num_0'],num_0,[4],'num_0',images/min4.png,"[(0.45, 0.79)]",,,,,0,-1,-1,0,0,1,1,3,,,,,,,,,,,,,"(0.75, 0.04)",images/min4.png,2,0.0532516704607,0.466823603355,[-0.74231332 -0.31510417],,,,,,,,['num_0'],,,,2018_Jun_22_1610,59.9622391799,sequenceLearningTask,001,087,
min1.png,min2.png,min3.png,min4.png,images/allBlank.png,"['num_7', 'num_4', 'num_1', 'num_0']",['num_4'],num_4,[2],'num_4',images/min2.png,"[(0.45, 0.79)]",,,,,0,-1,-1,0,0,2,2,1,,,,,,,,,,,,,"(-0.25, 0.04)",images/min2.png,3,0.0560278744497,0.409716344732,[ 0.65446559 -0.19010417],,,,,,,,['num_4'],,,,2018_Jun_22_1610,59.9622391799,sequenceLearningTask,001,087,
min1.png,min2.png,min3.png,min4.png,images/allBlank.png,"['num_7', 'num_4', 'num_1', 'num_0']",['num_4'],num_4,[2],'num_4',images/min2.png,"[(0.45, 0.79)]",,,,,0,-1,-1,0,0,2,2,1,,,,,,,,,,,,,"(-0.75, 0.04)",images/min1.png,3,0.0556643874197,0.479190777767,[-0.28989751 -0.2109375 ],,,,,,,,['num_4'],,,,2018_Jun_22_1610,59.9622391799,sequenceLearningTask,001,087,
min1.png,min2.png,min3.png,min4.png,images/allBlank.png,"['num_7', 'num_4', 'num_1', 'num_0']",['num_4'],num_4,[2],'num_4',images/min2.png,"[(0.45, 0.79)]",,,,,0,-1,-1,0,0,2,2,1,,,,,,,,,,,,,"(-0.25, 0.04)",images/min2.png,3,0.051810030026,0.497987488005,[-0.71303075 -0.16145833],,,,,,,,['num_4'],,,,2018_Jun_22_1610,59.9622391799,sequenceLearningTask,001,087,
min1.png,min2.png,min3.png,min4.png,images/allBlank.png,"['num_7', 'num_4', 'num_1', 'num_0']",['num_4'],num_4,[2],'num_4',images/min2.png,"[(0.45, 0.79)]",,,,,0,-1,-1,0,0,2,2,1,,,,,,,,,,,,,"(0.25, 0.04)",images/min3.png,3,0.0520291068606,0.414718188834,[-0.23279649 -0.1875    ],,,,,,,,['num_4'],,,,2018_Jun_22_1610,59.9622391799,sequenceLearningTask,001,087,
min1.png,min2.png,min3.png,min4.png,images/allBlank.png,"['num_7', 'num_4', 'num_1', 'num_0']",['num_1'],num_1,[3],'num_1',images/min3.png,"[(0.45, 0.79)]",,,,,0,-1,-1,0,0,3,3,2,,,,,,,,,,,,,"(0.25, 0.04)",images/min3.png,4,0.0552557722021,0.36086303144,[ 0.23133236 -0.19791667],,,,,,,,['num_1'],,,,2018_Jun_22_1610,59.9622391799,sequenceLearningTask,001,087,
min1.png,min2.png,min3.png,min4.png,images/allBlank.png,"['num_7', 'num_4', 'num_1', 'num_0']",['num_1'],num_1,[3],'num_1',images/min3.png,"[(0.45, 0.79)]",,,,,0,-1,-1,0,0,3,3,2,,,,,,,,,,,,,"(0.25, 0.04)",images/min3.png,4,0.05342972167,0.364774004195,[ 0.2079063 -0.2109375],,,,,,,,['num_1'],,,,2018_Jun_22_1610,59.9622391799,sequenceLearningTask,001,087,
min1.png,min2.png,min3.png,min4.png,images/allBlank.png,"['num_7', 'num_4', 'num_1', 'num_0']",['num_1'],num_1,[3],'num_1',images/min3.png,"[(0.45, 0.79)]",,,,,0,-1,-1,0,0,3,3,2,,,,,,,,,,,,,"(0.75, 0.04)",images/min4.png,4,0.0587191553977,0.614019030146,[ 0.25475842 -0.27083333],0.258552509312,1,,,,,,['num_1'],,,,2018_Jun_22_1610,59.9622391799,sequenceLearningTask,001,087,
min1.png,min2.png,min3.png,min4.png,images/allBlank.png,"['num_7', 'num_4', 'num_1', 'num_0']",['num_1'],num_1,[3],'num_1',images/min3.png,"[(0.45, 0.79)]",,,,,0,-1,-1,0,0,3,3,2,,,,,,,,,,,,,"(-0.25, 0.04)",images/min2.png,4,0.0587630528153,0.375815640691,[ 0.69692533 -0.28125   ],,,,,,,,['num_1'],,,,2018_Jun_22_1610,59.9622391799,sequenceLearningTask,001,087,
min1.png,min2.png,min3.png,min4.png,images/allBlank.png,"['num_7', 'num_4', 'num_1', 'num_0']",['num_7'],num_7,[1],'num_7',images/min1.png,"[(0.45, 0.79)]",,,,,0,-1,-1,0,1,0,4,0,,,,,,,,,,,,,"(-0.25, 0.04)",images/min2.png,5,0.0566822331557,0.425632645894,[-0.23279649 -0.26041667],,,,,,,,['num_7'],,,,2018_Jun_22_1610,59.9622391799,sequenceLearningTask,001,087,
min1.png,min2.png,min3.png,min4.png,images/allBlank.png,"['num_7', 'num_4', 'num_1', 'num_0']",['num_7'],num_7,[1],'num_7',images/min1.png,"[(0.45, 0.79)]",,,,,0,-1,-1,0,1,0,4,0,,,,,,,,,,,,,"(-0.75, 0.04)",images/min1.png,5,0.0603806931767,0.44050935774,[-0.33235725 -0.22395833],,,,,,,,['num_7'],,,,2018_Jun_22_1610,59.9622391799,sequenceLearningTask,001,087,
min1.png,min2.png,min3.png,min4.png,images/allBlank.png,"['num_7', 'num_4', 'num_1', 'num_0']",['num_7'],num_7,[1],'num_7',images/min1.png,"[(0.45, 0.79)]",,,,,0,-1,-1,0,1,0,4,0,,,,,,,,,,,,,"(-0.25, 0.04)",images/min2.png,5,0.057209822683,0.410225472728,[-0.78916545 -0.0625    ],,,,,,,,['num_7'],,,,2018_Jun_22_1610,59.9622391799,sequenceLearningTask,001,087,
min1.png,min2.png,min3.png,min4.png,images/allBlank.png,"['num_7', 'num_4', 'num_1', 'num_0']",['num_7'],num_7,[1],'num_7',images/min1.png,"[(0.45, 0.79)]",,,,,0,-1,-1,0,1,0,4,0,,,,,,,,,,,,,"(-0.75, 0.04)",images/min1.png,5,0.0487930056233,0.470069960998,[-0.17715959 -0.08854167],,,,,,,,['num_7'],,,,2018_Jun_22_1610,59.9622391799,sequenceLearningTask,001,087,
min1.png,min2.png,min3.png,min4.png,images/allBlank.png,"['num_7', 'num_4', 'num_1', 'num_0']",['num_4'],num_4,[2],'num_4',images/min2.png,"[(0.45, 0.79)]",,,,,0,-1,-1,0,1,1,5,1,,,,,,,,,,,,,"(-0.75, 0.04)",images/min1.png,6,0.0493989540928,0.484351801292,[-0.7057101  -0.24479167],,,,,,,,['num_4'],,,,2018_Jun_22_1610,59.9622391799,sequenceLearningTask,001,087,
min1.png,min2.png,min3.png,min4.png,images/allBlank.png,"['num_7', 'num_4', 'num_1', 'num_0']",['num_4'],num_4,[2],'num_4',images/min2.png,"[(0.45, 0.79)]",,,,,0,-1,-1,0,1,1,5,1,,,,,,,,,,,,,"(-0.75, 0.04)",images/min1.png,6,0.0524619271946,0.16771029017,[-0.66178624 -0.328125  ],,,,,,,,['num_4'],,,,2018_Jun_22_1610,59.9622391799,sequenceLearningTask,001,087,
min1.png,min2.png,min3.png,min4.png,images/allBlank.png,"['num_7', 'num_4', 'num_1', 'num_0']",['num_4'],num_4,[2],'num_4',images/min2.png,"[(0.45, 0.79)]",,,,,0,-1,-1,0,1,1,5,1,,,,,,,,,,,,,"(0.25, 0.04)",images/min3.png,6,0.0513804917418,0.383143227428,[-0.62371889 -0.18489583],,,,,,,,['num_4'],,,,2018_Jun_22_1610,59.9622391799,sequenceLearningTask,001,087,
min1.png,min2.png,min3.png,min4.png,images/allBlank.png,"['num_7', 'num_4', 'num_1', 'num_0']",['num_4'],num_4,[2],'num_4',images/min2.png,"[(0.45, 0.79)]",,,,,0,-1,-1,0,1,1,5,1,,,,,,,,,,,,,"(0.25, 0.04)",images/min3.png,6,0.0518366966826,0.46604903957,[ 0.25475842 -0.12760417],,,,,,,,['num_4'],,,,2018_Jun_22_1610,59.9622391799,sequenceLearningTask,001,087,
min1.png,min2.png,min3.png,min4.png,images/allBlank.png,"['num_7', 'num_4', 'num_1', 'num_0']",['num_0'],num_0,[4],'num_0',images/min4.png,"[(0.45, 0.79)]",,,,,0,-1,-1,0,1,2,6,3,,,,,,,,,,,,,"(-0.25, 0.04)",images/min2.png,7,0.0522042862749,0.462888425482,[ 0.18740849 -0.06510417],,,,,,,,['num_0'],,,,2018_Jun_22_1610,59.9622391799,sequenceLearningTask,001,087,
min1.png,min2.png,min3.png,min4.png,images/allBlank.png,"['num_7', 'num_4', 'num_1', 'num_0']",['num_0'],num_0,[4],'num_0',images/min4.png,"[(0.45, 0.79)]",,,,,0,-1,-1,0,1,2,6,3,,,,,,,,,,,,,"(0.25, 0.04)",images/min3.png,7,0.0632409996961,0.438770691787,[-0.30893119 -0.26822917],,,,,,,,['num_0'],,,,2018_Jun_22_1610,59.9622391799,sequenceLearningTask,001,087,
min1.png,min2.png,min3.png,min4.png,images/allBlank.png,"['num_7', 'num_4', 'num_1', 'num_0']",['num_0'],num_0,[4],'num_0',images/min4.png,"[(0.45, 0.79)]",,,,,0,-1,-1,0,1,2,6,3,,,,,,,,,,,,,"(-0.75, 0.04)",images/min1.png,7,0.0528922859921,0.564663973471,[ 0.25475842 -0.2421875 ],,,,,,,,['num_0'],,,,2018_Jun_22_1610,59.9622391799,sequenceLearningTask,001,087,
min1.png,min2.png,min3.png,min4.png,images/allBlank.png,"['num_7', 'num_4', 'num_1', 'num_0']",['num_0'],num_0,[4],'num_0',images/min4.png,"[(0.45, 0.79)]",,,,,0,-1,-1,0,1,2,6,3,,,,,,,,,,,,,"(0.25, 0.04)",images/min3.png,7,0.0597177190903,0.523997733744,[-0.80966325 -0.30989583],,,,,,,,['num_0'],,,,2018_Jun_22_1610,59.9622391799,sequenceLearningTask,001,087,
min1.png,min2.png,min3.png,min4.png,images/allBlank.png,"['num_7', 'num_4', 'num_1', 'num_0']",['num_1'],num_1,[3],'num_1',images/min3.png,"[(0.45, 0.79)]",,,,,0,-1,-1,0,1,3,7,2,,,,,,,,,,,,,"(0.25, 0.04)",images/min3.png,8,0.0566633613689,0.5081712787,[ 0.18740849 -0.19270833],,,,,,,,['num_1'],,,,2018_Jun_22_1610,59.9622391799,sequenceLearningTask,001,087,
min1.png,min2.png,min3.png,min4.png,images/allBlank.png,"['num_7', 'num_4', 'num_1', 'num_0']",['num_1'],num_1,[3],'num_1',images/min3.png,"[(0.45, 0.79)]",,,,,0,-1,-1,0,1,3,7,2,,,,,,,,,,,,,"(0.75, 0.04)",images/min4.png,8,0.0524332092582,0.550658645884,[ 0.2181552  -0.26822917],,,,,,,,['num_1'],,,,2018_Jun_22_1610,59.9622391799,sequenceLearningTask,001,087,
min1.png,min2.png,min3.png,min4.png,images/allBlank.png,"['num_7', 'num_4', 'num_1', 'num_0']",['num_1'],num_1,[3],'num_1',images/min3.png,"[(0.45, 0.79)]",,,,,0,-1,-1,0,1,3,7,2,,,,,,,,,,,,,"(0.25, 0.04)",images/min3.png,8,0.0558953616837,0.596901908963,[ 0.70131772 -0.26041667],0.294904494398,1,,,,,,['num_1'],,,,2018_Jun_22_1610,59.9622391799,sequenceLearningTask,001,087,
min1.png,min2.png,min3.png,min4.png,images/allBlank.png,"['num_7', 'num_4', 'num_1', 'num_0']",['num_1'],num_1,[3],'num_1',images/min3.png,"[(0.45, 0.79)]",,,,,0,-1,-1,0,1,3,7,2,,,,,,,,,,,,,"(0.75, 0.04)",images/min4.png,8,0.0520836709402,0.566774741837,[ 0.25915081 -0.24479167],,,,,,,,['num_1'],,,,2018_Jun_22_1610,59.9622391799,sequenceLearningTask,001,087,
min1.png,min2.png,min3.png,min4.png,images/allBlank.png,"['num_7', 'num_4', 'num_1', 'num_0']",['num_7'],num_7,[1],'num_7',images/min1.png,"[(0.45, 0.79)]",,,,,0,-1,-1,0,2,0,8,0,,,,,,,,,,,,,"(0.75, 0.04)",images/min4.png,9,0.0613144363842,0.710479298265,[ 0.53001464 -0.26041667],,,,,,,,['num_7'],,,,2018_Jun_22_1610,59.9622391799,sequenceLearningTask,001,087,
min1.png,min2.png,min3.png,min4.png,images/allBlank.png,"['num_7', 'num_4', 'num_1', 'num_0']",['num_7'],num_7,[1],'num_7',images/min1.png,"[(0.45, 0.79)]",,,,,0,-1,-1,0,2,0,8,0,,,,,,,,,,,,,"(-0.75, 0.04)",images/min1.png,9,0.0499745436,0.600619240771,[ 0.70278184 -0.27604167],,,,,,,,['num_7'],,,,2018_Jun_22_1610,59.9622391799,sequenceLearningTask,001,087,
min1.png,min2.png,min3.png,min4.png,images/allBlank.png,"['num_7', 'num_4', 'num_1', 'num_0']",['num_7'],num_7,[1],'num_7',images/min1.png,"[(0.45, 0.79)]",,,,,0,-1,-1,0,2,0,8,0,,,,,,,,,,,,,"(0.75, 0.04)",images/min4.png,9,0.0536574138841,1.47949846995,[-0.73499268 -0.26041667],0.947244329336,1,,,,,,['num_7'],,,,2018_Jun_22_1610,59.9622391799,sequenceLearningTask,001,087,
min1.png,min2.png,min3.png,min4.png,images/allBlank.png,"['num_7', 'num_4', 'num_1', 'num_0']",['num_7'],num_7,[1],'num_7',images/min1.png,"[(0.45, 0.79)]",,,,,0,-1,-1,0,2,0,8,0,,,,,,,,,,,,,"(0.75, 0.04)",images/min4.png,9,0.056841822834,0.52773721939,[ 0.71888726 -0.32291667],0.31076294943,1,,,,,,['num_7'],,,,2018_Jun_22_1610,59.9622391799,sequenceLearningTask,001,087,
min1.png,min2.png,min3.png,min4.png,images/allBlank.png,"['num_7', 'num_4', 'num_1', 'num_0']",['num_0'],num_0,[4],'num_0',images/min4.png,"[(0.45, 0.79)]",,,,,0,-1,-1,0,2,1,9,3,,,,,,,,,,,,,"(0.25, 0.04)",images/min3.png,10,0.056152182091,0.344368679233,[ 0.74377745 -0.2421875 ],,,,,,,,['num_0'],,,,2018_Jun_22_1610,59.9622391799,sequenceLearningTask,001,087,
min1.png,min2.png,min3.png,min4.png,images/allBlank.png,"['num_7', 'num_4', 'num_1', 'num_0']",['num_0'],num_0,[4],'num_0',images/min4.png,"[(0.45, 0.79)]",,,,,0,-1,-1,0,2,1,9,3,,,,,,,,,,,,,"(0.25, 0.04)",images/min3.png,10,0.0549205928537,0.578666839521,[ 0.25622255 -0.27604167],0.179571618637,1,,,,,,['num_0'],,,,2018_Jun_22_1610,59.9622391799,sequenceLearningTask,001,087,
min1.png,min2.png,min3.png,min4.png,images/allBlank.png,"['num_7', 'num_4', 'num_1', 'num_0']",['num_0'],num_0,[4],'num_0',images/min4.png,"[(0.45, 0.79)]",,,,,0,-1,-1,0,2,1,9,3,,,,,,,,,,,,,"(0.25, 0.04)",images/min3.png,10,0.0479429546904,0.38758507176,[ 0.37335286 -0.24739583],,,,,,,,['num_0'],,,,2018_Jun_22_1610,59.9622391799,sequenceLearningTask,001,087,
min1.png,min2.png,min3.png,min4.png,images/allBlank.png,"['num_7', 'num_4', 'num_1', 'num_0']",['num_0'],num_0,[4],'num_0',images/min4.png,"[(0.45, 0.79)]",,,,,0,-1,-1,0,2,1,9,3,,,,,,,,,,,,,"(0.75, 0.04)",images/min4.png,10,0.0416914700754,0.494971284114,[ 0.26647145 -0.23177083],,,,,,,,['num_0'],,,,2018_Jun_22_1610,59.9622391799,sequenceLearningTask,001,087,
min1.png,min2.png,min3.png,min4.png,images/allBlank.png,"['num_7', 'num_4', 'num_1', 'num_0']",['num_1'],num_1,[3],'num_1',images/min3.png,"[(0.45, 0.79)]",,,,,0,-1,-1,0,2,2,10,2,,,,,,,,,,,,,"(-0.75, 0.04)",images/min1.png,11,0.055721002781,1.02568450228,[ 0.65739385 -0.2109375 ],0.459428324337,1,,,,,,['num_1'],,,,2018_Jun_22_1610,59.9622391799,sequenceLearningTask,001,087,
min1.png,min2.png,min3.png,min4.png,images/allBlank.png,"['num_7', 'num_4', 'num_1', 'num_0']",['num_1'],num_1,[3],'num_1',images/min3.png,"[(0.45, 0.79)]",,,,,0,-1,-1,0,2,2,10,2,,,,,,,,,,,,,"(-0.25, 0.04)",images/min2.png,11,0.0587425400026,0.492653336347,[-0.61493411 -0.2890625 ],,,,,,,,['num_1'],,,,2018_Jun_22_1610,59.9622391799,sequenceLearningTask,001,087,
min1.png,min2.png,min3.png,min4.png,images/allBlank.png,"['num_7', 'num_4', 'num_1', 'num_0']",['num_1'],num_1,[3],'num_1',images/min3.png,"[(0.45, 0.79)]",,,,,0,-1,-1,0,2,2,10,2,,,,,,,,,,,,,"(-0.25, 0.04)",images/min2.png,11,0.0582182325261,0.459262580815,[-0.35285505 -0.1328125 ],,,,,,,,['num_1'],,,,2018_Jun_22_1610,59.9622391799,sequenceLearningTask,001,087,
min1.png,min2.png,min3.png,min4.png,images/allBlank.png,"['num_7', 'num_4', 'num_1', 'num_0']",['num_1'],num_1,[3],'num_1',images/min3.png,"[(0.45, 0.79)]",,,,,0,-1,-1,0,2,2,10,2,,,,,,,,,,,,,"(-0.75, 0.04)",images/min1.png,11,0.0611203851813,0.506514253738,[-0.30161054 -0.21875   ],,,,,,,,['num_1'],,,,2018_Jun_22_1610,59.9622391799,sequenceLearningTask,001,087,
min1.png,min2.png,min3.png,min4.png,images/allBlank.png,"['num_7', 'num_4', 'num_1', 'num_0']",['num_4'],num_4,[2],'num_4',images/min2.png,"[(0.45, 0.79)]",,,,,0,-1,-1,0,2,3,11,1,,,,,,,,,,,,,"(0.25, 0.04)",images/min3.png,12,0.0526793630033,0.362525389733,[-0.80673499 -0.27604167],,,,,,,,['num_4'],,,,2018_Jun_22_1610,59.9622391799,sequenceLearningTask,001,087,
min1.png,min2.png,min3.png,min4.png,images/allBlank.png,"['num_7', 'num_4', 'num_1', 'num_0']",['num_4'],num_4,[2],'num_4',images/min2.png,"[(0.45, 0.79)]",,,,,0,-1,-1,0,2,3,11,1,,,,,,,,,,,,,"(0.75, 0.04)",images/min4.png,12,0.0531770038251,0.897420760032,[ 0.1625183  -0.00260417],0.513644917479,1,,,,,,['num_4'],,,,2018_Jun_22_1610,59.9622391799,sequenceLearningTask,001,087,
min1.png,min2.png,min3.png,min4.png,images/allBlank.png,"['num_7', 'num_4', 'num_1', 'num_0']",['num_4'],num_4,[2],'num_4',images/min2.png,"[(0.45, 0.79)]",,,,,0,-1,-1,0,2,3,11,1,,,,,,,,,,,,,"(0.75, 0.04)",images/min4.png,12,0.0626666409571,0.503905844552,[ 0.63836018 -0.2109375 ],,,,,,,,['num_4'],,,,2018_Jun_22_1610,59.9622391799,sequenceLearningTask,001,087,
min1.png,min2.png,min3.png,min4.png,images/allBlank.png,"['num_7', 'num_4', 'num_1', 'num_0']",['num_4'],num_4,[2],'num_4',images/min2.png,"[(0.45, 0.79)]",,,,,0,-1,-1,0,2,3,11,1,,,,,,,,,,,,,"(-0.25, 0.04)",images/min2.png,12,0.0674247928519,0.533767165634,[ 0.7920937 -0.1171875],,,,,,,,['num_4'],,,,2018_Jun_22_1610,59.9622391799,sequenceLearningTask,001,087,
min1.png,min2.png,min3.png,min4.png,images/allBlank.png,"['num_7', 'num_4', 'num_1', 'num_0']",['num_4'],num_4,[2],'num_4',images/min2.png,"[(0.45, 0.79)]",,,,,0,-1,-1,0,3,0,12,1,,,,,,,,,,,,,"(-0.25, 0.04)",images/min2.png,13,0.0581058223161,0.556526540912,[-0.40409956 -0.08072917],,,,,,,,['num_4'],,,,2018_Jun_22_1610,59.9622391799,sequenceLearningTask,001,087,
min1.png,min2.png,min3.png,min4.png,images/allBlank.png,"['num_7', 'num_4', 'num_1', 'num_0']",['num_4'],num_4,[2],'num_4',images/min2.png,"[(0.45, 0.79)]",,,,,0,-1,-1,0,3,0,12,1,,,,,,,,,,,,,"(-0.75, 0.04)",images/min1.png,13,0.0491679798279,0.534938447205,[-0.38506589 -0.015625  ],,,,,,,,['num_4'],,,,2018_Jun_22_1610,59.9622391799,sequenceLearningTask,001,087,
min1.png,min2.png,min3.png,min4.png,images/allBlank.png,"['num_7', 'num_4', 'num_1', 'num_0']",['num_4'],num_4,[2],'num_4',images/min2.png,"[(0.45, 0.79)]",,,,,0,-1,-1,0,3,0,12,1,,,,,,,,,,,,,"(-0.25, 0.04)",images/min2.png,13,0.0562239769342,0.479966982578,[-0.93997072 -0.171875  ],,,,,,,,['num_4'],,,,2018_Jun_22_1610,59.9622391799,sequenceLearningTask,001,087,
min1.png,min2.png,min3.png,min4.png,images/allBlank.png,"['num_7', 'num_4', 'num_1', 'num_0']",['num_4'],num_4,[2],'num_4',images/min2.png,"[(0.45, 0.79)]",,,,,0,-1,-1,0,3,0,12,1,,,,,,,,,,,,,"(-0.25, 0.04)",images/min2.png,13,0.0630617177185,0.487115287337,[-0.19912152 -0.0859375 ],,,,,,,,['num_4'],,,,2018_Jun_22_1610,59.9622391799,sequenceLearningTask,001,087,
min1.png,min2.png,min3.png,min4.png,images/allBlank.png,"['num_7', 'num_4', 'num_1', 'num_0']",['num_7'],num_7,[1],'num_7',images/min1.png,"[(0.45, 0.79)]",,,,,0,-1,-1,0,3,1,13,0,,,,,,,,,,,,,"(0.25, 0.04)",images/min3.png,14,0.051017004711,0.414796547776,[-0.20351391 -0.20052083],,,,,,,,['num_7'],,,,2018_Jun_22_1610,59.9622391799,sequenceLearningTask,001,087,
min1.png,min2.png,min3.png,min4.png,images/allBlank.png,"['num_7', 'num_4', 'num_1', 'num_0']",['num_7'],num_7,[1],'num_7',images/min1.png,"[(0.45, 0.79)]",,,,,0,-1,-1,0,3,1,13,0,,,,,,,,,,,,,"(0.75, 0.04)",images/min4.png,14,0.0580069505613,0.392500762051,[ 0.26647145 -0.21354167],,,,,,,,['num_7'],,,,2018_Jun_22_1610,59.9622391799,sequenceLearningTask,001,087,
min1.png,min2.png,min3.png,min4.png,images/allBlank.png,"['num_7', 'num_4', 'num_1', 'num_0']",['num_7'],num_7,[1],'num_7',images/min1.png,"[(0.45, 0.79)]",,,,,0,-1,-1,0,3,1,13,0,,,,,,,,,,,,,"(-0.75, 0.04)",images/min1.png,14,0.0524102349082,0.348102421291,[ 0.65885798 -0.25      ],,,,,,,,['num_7'],,,,2018_Jun_22_1610,59.9622391799,sequenceLearningTask,001,087,
min1.png,min2.png,min3.png,min4.png,images/allBlank.png,"['num_7', 'num_4', 'num_1', 'num_0']",['num_7'],num_7,[1],'num_7',images/min1.png,"[(0.45, 0.79)]",,,,,0,-1,-1,0,3,1,13,0,,,,,,,,,,,,,"(0.75, 0.04)",images/min4.png,14,0.0522030555067,0.481427084543,[-0.60761347 -0.33854167],,,,,,,,['num_7'],,,,2018_Jun_22_1610,59.9622391799,sequenceLearningTask,001,087,
min1.png,min2.png,min3.png,min4.png,images/allBlank.png,"['num_7', 'num_4', 'num_1', 'num_0']",['num_1'],num_1,[3],'num_1',images/min3.png,"[(0.45, 0.79)]",,,,,0,-1,-1,0,3,2,14,2,,,,,,,,,,,,,"(0.75, 0.04)",images/min4.png,15,0.0577181301669,0.640667634598,[ 0.51537335 -0.3046875 ],0.324232482366,1,,,,,,['num_1'],,,,2018_Jun_22_1610,59.9622391799,sequenceLearningTask,001,087,
min1.png,min2.png,min3.png,min4.png,images/allBlank.png,"['num_7', 'num_4', 'num_1', 'num_0']",['num_1'],num_1,[3],'num_1',images/min3.png,"[(0.45, 0.79)]",,,,,0,-1,-1,0,3,2,14,2,,,,,,,,,,,,,"(0.75, 0.04)",images/min4.png,15,0.0565821306327,0.827303045209,[ 0.56222548 -0.19791667],,,,,,,,['num_1'],,,,2018_Jun_22_1610,59.9622391799,sequenceLearningTask,001,087,
min1.png,min2.png,min3.png,min4.png,images/allBlank.png,"['num_7', 'num_4', 'num_1', 'num_0']",['num_1'],num_1,[3],'num_1',images/min3.png,"[(0.45, 0.79)]",,,,,0,-1,-1,0,3,2,14,2,,,,,,,,,,,,,"(-0.75, 0.04)",images/min1.png,15,0.06661166498,1.55012038969,[ 0.71449488 -0.23958333],0.717516423583,1,,,,,,['num_1'],,,,2018_Jun_22_1610,59.9622391799,sequenceLearningTask,001,087,
min1.png,min2.png,min3.png,min4.png,images/allBlank.png,"['num_7', 'num_4', 'num_1', 'num_0']",['num_1'],num_1,[3],'num_1',images/min3.png,"[(0.45, 0.79)]",,,,,0,-1,-1,0,3,2,14,2,,,,,,,,,,,,,"(-0.75, 0.04)",images/min1.png,15,0.0621968975602,0.422093365295,[-0.55783309 -0.1171875 ],,,,,,,,['num_1'],,,,2018_Jun_22_1610,59.9622391799,sequenceLearningTask,001,087,
min1.png,min2.png,min3.png,min4.png,images/allBlank.png,"['num_7', 'num_4', 'num_1', 'num_0']",['num_0'],num_0,[4],'num_0',images/min4.png,"[(0.45, 0.79)]",,,,,0,-1,-1,0,3,3,15,3,,,,,,,,,,,,,"(-0.75, 0.04)",images/min1.png,16,0.0528758757437,0.444812125205,[-0.70131772 -0.11458333],,,,,,,,['num_0'],,,,2018_Jun_22_1610,59.9622391799,sequenceLearningTask,001,087,
min1.png,min2.png,min3.png,min4.png,images/allBlank.png,"['num_7', 'num_4', 'num_1', 'num_0']",['num_0'],num_0,[4],'num_0',images/min4.png,"[(0.45, 0.79)]",,,,,0,-1,-1,0,3,3,15,3,,,,,,,,,,,,,"(0.75, 0.04)",images/min4.png,16,0.0614280773625,0.771874965384,[-0.76281113 -0.15104167],,,,,,,,['num_0'],,,,2018_Jun_22_1610,59.9622391799,sequenceLearningTask,001,087,
min1.png,min2.png,min3.png,min4.png,images/allBlank.png,"['num_7', 'num_4', 'num_1', 'num_0']",['num_0'],num_0,[4],'num_0',images/min4.png,"[(0.45, 0.79)]",,,,,0,-1,-1,0,3,3,15,3,,,,,,,,,,,,,"(0.75, 0.04)",images/min4.png,16,0.0554715669859,0.528548706237,[ 0.62664714 -0.06770833],,,,,,,,['num_0'],,,,2018_Jun_22_1610,59.9622391799,sequenceLearningTask,001,087,
min1.png,min2.png,min3.png,min4.png,images/allBlank.png,"['num_7', 'num_4', 'num_1', 'num_0']",['num_0'],num_0,[4],'num_0',images/min4.png,"[(0.45, 0.79)]",,,,,0,-1,-1,0,3,3,15,3,,,,,,,,,,,,,"(-0.75, 0.04)",images/min1.png,16,0.0576028481628,0.525374963949,[ 0.57540264 -0.05208333],,,,,,,,['num_0'],,,,2018_Jun_22_1610,59.9622391799,sequenceLearningTask,001,087,
min1.png,min2.png,min3.png,min4.png,images/allBlank.png,"['num_7', 'num_4', 'num_1', 'num_0']",['num_1'],num_1,[3],'num_1',images/min3.png,"[(0.45, 0.79)]",,,,,0,-1,-1,0,4,0,16,2,,,,,,,,,,,,,"(-0.25, 0.04)",images/min2.png,17,0.0501127999532,0.431102592368,[-0.59736457 -0.30208333],,,,,,,,['num_1'],,,,2018_Jun_22_1610,59.9622391799,sequenceLearningTask,001,087,
min1.png,min2.png,min3.png,min4.png,images/allBlank.png,"['num_7', 'num_4', 'num_1', 'num_0']",['num_1'],num_1,[3],'num_1',images/min3.png,"[(0.45, 0.79)]",,,,,0,-1,-1,0,4,0,16,2,,,,,,,,,,,,,"(0.75, 0.04)",images/min4.png,17,0.0547601826629,1.395816453,[-0.28111274 -0.01302083],0.979312418744,1,,,,,,['num_1'],,,,2018_Jun_22_1610,59.9622391799,sequenceLearningTask,001,087,
min1.png,min2.png,min3.png,min4.png,images/allBlank.png,"['num_7', 'num_4', 'num_1', 'num_0']",['num_1'],num_1,[3],'num_1',images/min3.png,"[(0.45, 0.79)]",,,,,0,-1,-1,0,4,0,16,2,,,,,,,,,,,,,"(0.25, 0.04)",images/min3.png,17,0.0553394644758,0.396500350154,[ 0.81405564 -0.2890625 ],,,,,,,,['num_1'],,,,2018_Jun_22_1610,59.9622391799,sequenceLearningTask,001,087,
min1.png,min2.png,min3.png,min4.png,images/allBlank.png,"['num_7', 'num_4', 'num_1', 'num_0']",['num_1'],num_1,[3],'num_1',images/min3.png,"[(0.45, 0.79)]",,,,,0,-1,-1,0,4,0,16,2,,,,,,,,,,,,,"(-0.75, 0.04)",images/min1.png,17,0.0572779252198,1.52563752794,[ 0.30161054 -0.171875  ],0.99282872089,1,,,,,,['num_1'],,,,2018_Jun_22_1610,59.9622391799,sequenceLearningTask,001,087,
min1.png,min2.png,min3.png,min4.png,images/allBlank.png,"['num_7', 'num_4', 'num_1', 'num_0']",['num_7'],num_7,[1],'num_7',images/min1.png,"[(0.45, 0.79)]",,,,,0,-1,-1,0,4,1,17,0,,,,,,,,,,,,,"(0.25, 0.04)",images/min3.png,18,0.0538325932994,0.446273868196,[-0.65300146 -0.125     ],,,,,,,,['num_7'],,,,2018_Jun_22_1610,59.9622391799,sequenceLearningTask,001,087,
min1.png,min2.png,min3.png,min4.png,images/allBlank.png,"['num_7', 'num_4', 'num_1', 'num_0']",['num_7'],num_7,[1],'num_7',images/min1.png,"[(0.45, 0.79)]",,,,,0,-1,-1,0,4,1,17,0,,,,,,,,,,,,,"(0.75, 0.04)",images/min4.png,18,0.0518633633383,0.464892116967,[ 0.28843338 -0.02604167],,,,,,,,['num_7'],,,,2018_Jun_22_1610,59.9622391799,sequenceLearningTask,001,087,
min1.png,min2.png,min3.png,min4.png,images/allBlank.png,"['num_7', 'num_4', 'num_1', 'num_0']",['num_7'],num_7,[1],'num_7',images/min1.png,"[(0.45, 0.79)]",,,,,0,-1,-1,0,4,1,17,0,,,,,,,,,,,,,"(0.75, 0.04)",images/min4.png,18,0.0520081837913,0.448764944097,[ 0.76427526 -0.06510417],,,,,,,,['num_7'],,,,2018_Jun_22_1610,59.9622391799,sequenceLearningTask,001,087,
min1.png,min2.png,min3.png,min4.png,images/allBlank.png,"['num_7', 'num_4', 'num_1', 'num_0']",['num_7'],num_7,[1],'num_7',images/min1.png,"[(0.45, 0.79)]",,,,,0,-1,-1,0,4,1,17,0,,,,,,,,,,,,,"(0.25, 0.04)",images/min3.png,18,0.0599634625787,0.390490916722,[ 0.70424597  0.04427083],,,,,,,,['num_7'],,,,2018_Jun_22_1610,59.9622391799,sequenceLearningTask,001,087,
min1.png,min2.png,min3.png,min4.png,images/allBlank.png,"['num_7', 'num_4', 'num_1', 'num_0']",['num_0'],num_0,[4],'num_0',images/min4.png,"[(0.45, 0.79)]",,,,,0,-1,-1,0,4,2,18,3,,,,,,,,,,,,,"(0.75, 0.04)",images/min4.png,19,0.0517234659592,0.464383399228,[ 0.21376281 -0.02864583],,,,,,,,['num_0'],,,,2018_Jun_22_1610,59.9622391799,sequenceLearningTask,001,087,
min1.png,min2.png,min3.png,min4.png,images/allBlank.png,"['num_7', 'num_4', 'num_1', 'num_0']",['num_0'],num_0,[4],'num_0',images/min4.png,"[(0.45, 0.79)]",,,,,0,-1,-1,0,4,2,18,3,,,,,,,,,,,,,"(0.75, 0.04)",images/min4.png,19,0.0567897202918,0.427627311743,[ 0.74231332  0.02864583],,,,,,,,['num_0'],,,,2018_Jun_22_1610,59.9622391799,sequenceLearningTask,001,087,
min1.png,min2.png,min3.png,min4.png,images/allBlank.png,"['num_7', 'num_4', 'num_1', 'num_0']",['num_0'],num_0,[4],'num_0',images/min4.png,"[(0.45, 0.79)]",,,,,0,-1,-1,0,4,2,18,3,,,,,,,,,,,,,"(-0.25, 0.04)",images/min2.png,19,0.0540988496005,0.431693361356,[ 0.63689605  0.05729167],,,,,,,,['num_0'],,,,2018_Jun_22_1610,59.9622391799,sequenceLearningTask,001,087,
min1.png,min2.png,min3.png,min4.png,images/allBlank.png,"['num_7', 'num_4', 'num_1', 'num_0']",['num_0'],num_0,[4],'num_0',images/min4.png,"[(0.45, 0.79)]",,,,,0,-1,-1,0,4,2,18,3,,,,,,,,,,,,,"(-0.75, 0.04)",images/min1.png,19,0.0570100278928,0.493850464061,[-0.26939971 -0.1171875 ],,,,,,,,['num_0'],,,,2018_Jun_22_1610,59.9622391799,sequenceLearningTask,001,087,
min1.png,min2.png,min3.png,min4.png,images/allBlank.png,"['num_7', 'num_4', 'num_1', 'num_0']",['num_4'],num_4,[2],'num_4',images/min2.png,"[(0.45, 0.79)]",,,,,0,-1,-1,0,4,3,19,1,,,,,,,,,,,,,"(-0.75, 0.04)",images/min1.png,20,0.0552853106528,0.676403004552,[-0.61639824 -0.2109375 ],0.210537349523,1,,,,,,['num_4'],,,,2018_Jun_22_1610,59.9622391799,sequenceLearningTask,001,087,
min1.png,min2.png,min3.png,min4.png,images/allBlank.png,"['num_7', 'num_4', 'num_1', 'num_0']",['num_4'],num_4,[2],'num_4',images/min2.png,"[(0.45, 0.79)]",,,,,0,-1,-1,0,4,3,19,1,,,,,,,,,,,,,"(0.25, 0.04)",images/min3.png,20,0.0549599774522,0.445223612216,[-0.71156662 -0.18489583],,,,,,,,['num_4'],,,,2018_Jun_22_1610,59.9622391799,sequenceLearningTask,001,087,
min1.png,min2.png,min3.png,min4.png,images/allBlank.png,"['num_7', 'num_4', 'num_1', 'num_0']",['num_4'],num_4,[2],'num_4',images/min2.png,"[(0.45, 0.79)]",,,,,0,-1,-1,0,4,3,19,1,,,,,,,,,,,,,"(-0.25, 0.04)",images/min2.png,20,0.05449843918,0.380299331159,[ 0.22254758  0.046875  ],,,,,,,,['num_4'],,,,2018_Jun_22_1610,59.9622391799,sequenceLearningTask,001,087,
min1.png,min2.png,min3.png,min4.png,images/allBlank.png,"['num_7', 'num_4', 'num_1', 'num_0']",['num_4'],num_4,[2],'num_4',images/min2.png,"[(0.45, 0.79)]",,,,,0,-1,-1,0,4,3,19,1,,,,,,,,,,,,,"(-0.25, 0.04)",images/min2.png,20,0.051064594435,0.532729217342,[-0.20351391 -0.18229167],,,,,,,,['num_4'],,,,2018_Jun_22_1610,59.9622391799,sequenceLearningTask,001,087,
min1.png,min2.png,min3.png,min4.png,allBlank.png,"['num_7', 'num_4', 'num_1', 'num_0']",['num_4'],num_4,[2],'num_4',images/min2.png,"[(0.45, 0.79)]",,,,,0,0,0,0,4,3,19,1,,,,,,,,,,,,,"(-0.75, -0.04)",images/min1.png,1,0.0401735219803,0.583342940166,[-0.12152269 -0.13541667],,,,,,,,['num_4'],,,,2018_Jun_22_1610,59.9622391799,sequenceLearningTask,001,087,
min1.png,min2.png,min3.png,min4.png,allBlank.png,"['num_7', 'num_4', 'num_1', 'num_0']",['num_4'],num_4,[2],'num_4',images/min2.png,"[(0.45, 0.79)]",,,,,0,0,0,0,4,3,19,1,,,,,,,,,,,,,"(0.25, -0.04)",images/min3.png,1,0.0641127942099,0.352903650091,[-0.60175695 -0.1171875 ],,,,,,,,['num_4'],,,,2018_Jun_22_1610,59.9622391799,sequenceLearningTask,001,087,
min1.png,min2.png,min3.png,min4.png,allBlank.png,"['num_7', 'num_4', 'num_1', 'num_0']",['num_4'],num_4,[2],'num_4',images/min2.png,"[(0.45, 0.79)]",,,,,0,0,0,0,4,3,19,1,,,,,,,,,,,,,"(-0.25, -0.04)",images/min2.png,1,0.0584278734659,0.307730745547,[ 0.24011713 -0.15625   ],,,,,,,,['num_4'],,,,2018_Jun_22_1610,59.9622391799,sequenceLearningTask,001,087,
min1.png,min2.png,min3.png,min4.png,allBlank.png,"['num_7', 'num_4', 'num_1', 'num_0']",['num_4'],num_4,[2],'num_4',images/min2.png,"[(0.45, 0.79)]",,,,,0,0,0,0,4,3,19,1,,,,,,,,,,,,,"(0.75, -0.04)",images/min4.png,1,0.0558994642461,0.49524246349,[-0.18301611 -0.3671875 ],,,,,,,,['num_4'],,,,2018_Jun_22_1610,59.9622391799,sequenceLearningTask,001,087,
min1.png,min2.png,min3.png,min4.png,allBlank.png,"['num_7', 'num_4', 'num_1', 'num_0']",['num_4'],num_4,[2],'num_4',images/min2.png,"[(0.45, 0.79)]",,,,,0,0,0,0,4,3,19,1,,,,,,,,,,,,,"(0.75, -0.04)",images/min4.png,1,0.0527823373204,0.383197791509,[ 0.78623719 -0.203125  ],,,,,,,,['num_4'],,,,2018_Jun_22_1610,59.9622391799,sequenceLearningTask,001,087,
min1.png,min2.png,min3.png,min4.png,allBlank.png,"['num_7', 'num_4', 'num_1', 'num_0']",['num_4'],num_4,[2],'num_4',images/min2.png,"[(0.45, 0.79)]",,,,,0,0,0,0,4,3,19,1,,,,,,,,,,,,,"(-0.25, -0.04)",images/min2.png,1,0.0591782321317,0.530072808176,[ 0.6398243 -0.1484375],,,,,,,,['num_4'],,,,2018_Jun_22_1610,59.9622391799,sequenceLearningTask,001,087,
min1.png,min2.png,min3.png,min4.png,allBlank.png,"['num_7', 'num_4', 'num_1', 'num_0']",['num_4'],num_4,[2],'num_4',images/min2.png,"[(0.45, 0.79)]",,,,,0,0,0,0,4,3,19,1,,,,,,,,,,,,,"(0.25, -0.04)",images/min3.png,1,0.0590387450102,0.392669787623,[-0.23279649 -0.328125  ],,,,,,,,['num_4'],,,,2018_Jun_22_1610,59.9622391799,sequenceLearningTask,001,087,
min1.png,min2.png,min3.png,min4.png,allBlank.png,"['num_7', 'num_4', 'num_1', 'num_0']",['num_4'],num_4,[2],'num_4',images/min2.png,"[(0.45, 0.79)]",,,,,0,0,0,0,4,3,19,1,,,,,,,,,,,,,"(0.75, -0.04)",images/min4.png,1,0.051140081584,0.250337128067,[ 0.23718887 -0.25520833],,,,,,,,['num_4'],,,,2018_Jun_22_1610,59.9622391799,sequenceLearningTask,001,087,
min1.png,min2.png,min3.png,min4.png,allBlank.png,"['num_7', 'num_4', 'num_1', 'num_0']",['num_4'],num_4,[2],'num_4',images/min2.png,"[(0.45, 0.79)]",,,,,0,1,1,1,4,3,19,1,,,,,,,,,,,,,"(-0.75, -0.04)",images/min1.png,2,0.0628196665357,0.237812005001,[ 0.76573939 -0.2578125 ],,,,,,,,['num_4'],,,,2018_Jun_22_1610,59.9622391799,sequenceLearningTask,001,087,
min1.png,min2.png,min3.png,min4.png,allBlank.png,"['num_7', 'num_4', 'num_1', 'num_0']",['num_4'],num_4,[2],'num_4',images/min2.png,"[(0.45, 0.79)]",,,,,0,1,1,1,4,3,19,1,,,,,,,,,,,,,"(0.25, -0.04)",images/min3.png,2,0.0588085912577,0.27701937353,[-0.6295754  -0.20833333],,,,,,,,['num_4'],,,,2018_Jun_22_1610,59.9622391799,sequenceLearningTask,001,087,
min1.png,min2.png,min3.png,min4.png,allBlank.png,"['num_7', 'num_4', 'num_1', 'num_0']",['num_4'],num_4,[2],'num_4',images/min2.png,"[(0.45, 0.79)]",,,,,0,1,1,1,4,3,19,1,,,,,,,,,,,,,"(-0.25, -0.04)",images/min2.png,2,0.054943156947,0.17997859283,[ 0.23133236 -0.08072917],,,,,,,,['num_4'],,,,2018_Jun_22_1610,59.9622391799,sequenceLearningTask,001,087,
min1.png,min2.png,min3.png,min4.png,allBlank.png,"['num_7', 'num_4', 'num_1', 'num_0']",['num_4'],num_4,[2],'num_4',images/min2.png,"[(0.45, 0.79)]",,,,,0,1,1,1,4,3,19,1,,,,,,,,,,,,,"(0.75, -0.04)",images/min4.png,2,0.053024798759,0.181923617672,[-0.15666179  0.01041667],,,,,,,,['num_4'],,,,2018_Jun_22_1610,59.9622391799,sequenceLearningTask,001,087,
min1.png,min2.png,min3.png,min4.png,allBlank.png,"['num_7', 'num_4', 'num_1', 'num_0']",['num_4'],num_4,[2],'num_4',images/min2.png,"[(0.45, 0.79)]",,,,,0,1,1,1,4,3,19,1,,,,,,,,,,,,,"(0.75, -0.04)",images/min4.png,2,0.0551671568546,0.114368363336,[ 0.75841874 -0.1484375 ],,,,,,,,['num_4'],,,,2018_Jun_22_1610,59.9622391799,sequenceLearningTask,001,087,
min1.png,min2.png,min3.png,min4.png,allBlank.png,"['num_7', 'num_4', 'num_1', 'num_0']",['num_4'],num_4,[2],'num_4',images/min2.png,"[(0.45, 0.79)]",,,,,0,1,1,1,4,3,19,1,,,,,,,,,,,,,"(-0.25, -0.04)",images/min2.png,2,0.0539954650276,0.781197217971,[ 0.71010249 -0.15364583],0.14893573377,1,,,,,,['num_4'],,,,2018_Jun_22_1610,59.9622391799,sequenceLearningTask,001,087,
min1.png,min2.png,min3.png,min4.png,allBlank.png,"['num_7', 'num_4', 'num_1', 'num_0']",['num_4'],num_4,[2],'num_4',images/min2.png,"[(0.45, 0.79)]",,,,,0,1,1,1,4,3,19,1,,,,,,,,,,,,,"(0.25, -0.04)",images/min3.png,2,0.059370232053,0.174738389851,[-0.26207906 -0.01822917],,,,,,,,['num_4'],,,,2018_Jun_22_1610,59.9622391799,sequenceLearningTask,001,087,
min1.png,min2.png,min3.png,min4.png,allBlank.png,"['num_7', 'num_4', 'num_1', 'num_0']",['num_4'],num_4,[2],'num_4',images/min2.png,"[(0.45, 0.79)]",,,,,0,1,1,1,4,3,19,1,,,,,,,,,,,,,"(0.75, -0.04)",images/min4.png,2,0.0535552600795,0.231579802428,[ 0.2942899 -0.1484375],,,,,,,,['num_4'],,,,2018_Jun_22_1610,59.9622391799,sequenceLearningTask,001,087,
min1.png,min2.png,min3.png,min4.png,allBlank.png,"['num_7', 'num_4', 'num_1', 'num_0']",['num_4'],num_4,[2],'num_4',images/min2.png,"[(0.45, 0.79)]",,,,,0,2,2,2,4,3,19,1,,,,,,,,,,,,,"(-0.75, -0.04)",images/min1.png,3,0.0521882862822,0.497365949799,[ 0.82430454 -0.16145833],,,,,,,,['num_4'],,,,2018_Jun_22_1610,59.9622391799,sequenceLearningTask,001,087,
min1.png,min2.png,min3.png,min4.png,allBlank.png,"['num_7', 'num_4', 'num_1', 'num_0']",['num_4'],num_4,[2],'num_4',images/min2.png,"[(0.45, 0.79)]",,,,,0,2,2,2,4,3,19,1,,,,,,,,,,,,,"(0.25, -0.04)",images/min3.png,3,0.0525123887128,0.098258421227,[-0.69838946 -0.2421875 ],,,,,,,,['num_4'],,,,2018_Jun_22_1610,59.9622391799,sequenceLearningTask,001,087,
min1.png,min2.png,min3.png,min4.png,allBlank.png,"['num_7', 'num_4', 'num_1', 'num_0']",['num_4'],num_4,[2],'num_4',images/min2.png,"[(0.45, 0.79)]",,,,,0,2,2,2,4,3,19,1,,,,,,,,,,,,,"(-0.25, -0.04)",images/min2.png,3,0.0560356693186,0.0443458279606,[ 0.25475842 -0.15364583],,,1,,,,,['num_4'],,,,2018_Jun_22_1610,59.9622391799,sequenceLearningTask,001,087,
min1.png,min2.png,min3.png,min4.png,allBlank.png,"['num_7', 'num_4', 'num_1', 'num_0']",['num_4'],num_4,[2],'num_4',images/min2.png,"[(0.45, 0.79)]",,,,,0,2,2,2,4,3,19,1,,,,,,,,,,,,,"(0.75, -0.04)",images/min4.png,3,0.0579712582676,0.16097470319,[-0.25036603 -0.26041667],,,,,,,,['num_4'],,,,2018_Jun_22_1610,59.9622391799,sequenceLearningTask,001,087,
min1.png,min2.png,min3.png,min4.png,allBlank.png,"['num_7', 'num_4', 'num_1', 'num_0']",['num_4'],num_4,[2],'num_4',images/min2.png,"[(0.45, 0.79)]",,,,,0,2,2,2,4,3,19,1,,,,,,,,,,,,,"(0.75, -0.04)",images/min4.png,3,0.0595236678882,0.558363258107,[ 0.74670571 -0.17708333],0.140549275672,1,,,,,,['num_4'],,,,2018_Jun_22_1610,59.9622391799,sequenceLearningTask,001,087,
min1.png,min2.png,min3.png,min4.png,allBlank.png,"['num_7', 'num_4', 'num_1', 'num_0']",['num_4'],num_4,[2],'num_4',images/min2.png,"[(0.45, 0.79)]",,,,,0,2,2,2,4,3,19,1,,,,,,,,,,,,,"(-0.25, -0.04)",images/min2.png,3,0.0578514634453,0.476889240251,[ 0.68960469 -0.1171875 ],,,,,,,,['num_4'],,,,2018_Jun_22_1610,59.9622391799,sequenceLearningTask,001,087,
min1.png,min2.png,min3.png,min4.png,allBlank.png,"['num_7', 'num_4', 'num_1', 'num_0']",['num_4'],num_4,[2],'num_4',images/min2.png,"[(0.45, 0.79)]",,,,,0,2,2,2,4,3,19,1,,,,,,,,,,,,,"(0.25, -0.04)",images/min3.png,3,0.0505784407878,0.067889613174,[-0.20204978  0.0859375 ],,,,,,,,['num_4'],,,,2018_Jun_22_1610,59.9622391799,sequenceLearningTask,001,087,
min1.png,min2.png,min3.png,min4.png,allBlank.png,"['num_7', 'num_4', 'num_1', 'num_0']",['num_4'],num_4,[2],'num_4',images/min2.png,"[(0.45, 0.79)]",,,,,0,2,2,2,4,3,19,1,,,,,,,,,,,,,"(0.75, -0.04)",images/min4.png,3,0.056516899891,0.661960343811,[ 0.23133236 -0.0078125 ],,,,,,,,['num_4'],,,,2018_Jun_22_1610,59.9622391799,sequenceLearningTask,001,087,
min1.png,min2.png,min3.png,min4.png,allBlank.png,"['num_7', 'num_4', 'num_1', 'num_0']",['num_4'],num_4,[2],'num_4',images/min2.png,"[(0.45, 0.79)]",,,,,0,3,3,3,4,3,19,1,,,,,,,,,,,,,"(-0.75, -0.04)",images/min1.png,4,0.0498001846972,0.0831839658731,[ 0.5534407  -0.05989583],,,,,,,,['num_4'],,,,2018_Jun_22_1610,59.9622391799,sequenceLearningTask,001,087,
min1.png,min2.png,min3.png,min4.png,allBlank.png,"['num_7', 'num_4', 'num_1', 'num_0']",['num_4'],num_4,[2],'num_4',images/min2.png,"[(0.45, 0.79)]",,,,,0,3,3,3,4,3,19,1,,,,,,,,,,,,,"(0.25, -0.04)",images/min3.png,4,0.0634604867855,0.203615095952,[-0.68228404  0.01302083],,,,,,,,['num_4'],,,,2018_Jun_22_1610,59.9622391799,sequenceLearningTask,001,087,
min1.png,min2.png,min3.png,min4.png,allBlank.png,"['num_7', 'num_4', 'num_1', 'num_0']",['num_4'],num_4,[2],'num_4',images/min2.png,"[(0.45, 0.79)]",,,,,0,3,3,3,4,3,19,1,,,,,,,,,,,,,"(-0.25, -0.04)",images/min2.png,4,0.0611823338741,0.138760148201,[ 0.20937042 -0.13802083],,,,,,,,['num_4'],,,,2018_Jun_22_1610,59.9622391799,sequenceLearningTask,001,087,
min1.png,min2.png,min3.png,min4.png,allBlank.png,"['num_7', 'num_4', 'num_1', 'num_0']",['num_4'],num_4,[2],'num_4',images/min2.png,"[(0.45, 0.79)]",,,,,0,3,3,3,4,3,19,1,,,,,,,,,,,,,"(0.75, -0.04)",images/min4.png,4,0.0576270532811,0.177318081101,[-0.3250366  -0.15104167],,,,,,,,['num_4'],,,,2018_Jun_22_1610,59.9622391799,sequenceLearningTask,001,087,
min1.png,min2.png,min3.png,min4.png,allBlank.png,"['num_7', 'num_4', 'num_1', 'num_0']",['num_4'],num_4,[2],'num_4',images/min2.png,"[(0.45, 0.79)]",,,,,0,3,3,3,4,3,19,1,,,,,,,,,,,,,"(0.75, -0.04)",images/min4.png,4,0.0527778245014,0.131812458744,[ 0.76720351 -0.20833333],,,,,,,,['num_4'],,,,2018_Jun_22_1610,59.9622391799,sequenceLearningTask,001,087,
min1.png,min2.png,min3.png,min4.png,allBlank.png,"['num_7', 'num_4', 'num_1', 'num_0']",['num_4'],num_4,[2],'num_4',images/min2.png,"[(0.45, 0.79)]",,,,,0,3,3,3,4,3,19,1,,,,,,,,,,,,,"(-0.25, -0.04)",images/min2.png,4,0.0536057215977,0.0826699148029,[ 0.76281113 -0.140625  ],,,,,,,,['num_4'],,,,2018_Jun_22_1610,59.9622391799,sequenceLearningTask,001,087,
min1.png,min2.png,min3.png,min4.png,allBlank.png,"['num_7', 'num_4', 'num_1', 'num_0']",['num_4'],num_4,[2],'num_4',images/min2.png,"[(0.45, 0.79)]",,,,,0,3,3,3,4,3,19,1,,,,,,,,,,,,,"(0.25, -0.04)",images/min3.png,4,0.0352192676028,0.0286408087622,[-0.2942899  -0.11979167],,,1,,,,,['num_4'],,,,2018_Jun_22_1610,59.9622391799,sequenceLearningTask,001,087,
min1.png,min2.png,min3.png,min4.png,allBlank.png,"['num_7', 'num_4', 'num_1', 'num_0']",['num_4'],num_4,[2],'num_4',images/min2.png,"[(0.45, 0.79)]",,,,,0,3,3,3,4,3,19,1,,,,,,,,,,,,,"(0.75, -0.04)",images/min4.png,4,0.053568388279,0.51370153284,[ 0.29721816 -0.08072917],0.148141477685,1,,,,,,['num_4'],,,,2018_Jun_22_1610,59.9622391799,sequenceLearningTask,001,087,
min1.png,min2.png,min3.png,min4.png,allBlank.png,"['num_7', 'num_4', 'num_1', 'num_0']",['num_4'],num_4,[2],'num_4',images/min2.png,"[(0.45, 0.79)]",,,,,0,4,4,4,4,3,19,1,,,,,,,,,,,,,"(-0.75, -0.04)",images/min1.png,5,0.0577435660534,0.626028871372,[ 0.70424597 -0.19270833],0.0590358732152,1,,,,,,['num_4'],,,,2018_Jun_22_1610,59.9622391799,sequenceLearningTask,001,087,
min1.png,min2.png,min3.png,min4.png,allBlank.png,"['num_7', 'num_4', 'num_1', 'num_0']",['num_4'],num_4,[2],'num_4',images/min2.png,"[(0.45, 0.79)]",,,,,0,4,4,4,4,3,19,1,,,,,,,,,,,,,"(0.25, -0.04)",images/min3.png,5,0.0542740290157,0.113993799388,[-0.65007321 -0.0703125 ],,,,,,,,['num_4'],,,,2018_Jun_22_1610,59.9622391799,sequenceLearningTask,001,087,
min1.png,min2.png,min3.png,min4.png,allBlank.png,"['num_7', 'num_4', 'num_1', 'num_0']",['num_4'],num_4,[2],'num_4',images/min2.png,"[(0.45, 0.79)]",,,,,0,4,4,4,4,3,19,1,,,,,,,,,,,,,"(-0.25, -0.04)",images/min2.png,5,0.0296274750244,0.0201160943116,[ 0.25036603 -0.14322917],,,1,,,,,['num_4'],,,,2018_Jun_22_1610,59.9622391799,sequenceLearningTask,001,087,
min1.png,min2.png,min3.png,min4.png,allBlank.png,"['num_7', 'num_4', 'num_1', 'num_0']",['num_4'],num_4,[2],'num_4',images/min2.png,"[(0.45, 0.79)]",,,,,0,4,4,4,4,3,19,1,,,,,,,,,,,,,"(0.75, -0.04)",images/min4.png,5,0.0587109502721,1.50792061213,[-0.18301611 -0.07552083],1.09374355128,1,,,,,,['num_4'],,,,2018_Jun_22_1610,59.9622391799,sequenceLearningTask,001,087,
min1.png,min2.png,min3.png,min4.png,allBlank.png,"['num_7', 'num_4', 'num_1', 'num_0']",['num_4'],num_4,[2],'num_4',images/min2.png,"[(0.45, 0.79)]",,,,,0,4,4,4,4,3,19,1,,,,,,,,,,,,,"(0.75, -0.04)",images/min4.png,5,0.0598695138997,0.0746252001536,[ 0.72474378 -0.28645833],,,,,,,,['num_4'],,,,2018_Jun_22_1610,59.9622391799,sequenceLearningTask,001,087,
min1.png,min2.png,min3.png,min4.png,allBlank.png,"['num_7', 'num_4', 'num_1', 'num_0']",['num_4'],num_4,[2],'num_4',images/min2.png,"[(0.45, 0.79)]",,,,,0,4,4,4,4,3,19,1,,,,,,,,,,,,,"(-0.25, -0.04)",images/min2.png,5,0.0473989549137,0.621544770648,[ 0.79355783 -0.2578125 ],0.304005618869,1,,,,,,['num_4'],,,,2018_Jun_22_1610,59.9622391799,sequenceLearningTask,001,087,
min1.png,min2.png,min3.png,min4.png,allBlank.png,"['num_7', 'num_4', 'num_1', 'num_0']",['num_4'],num_4,[2],'num_4',images/min2.png,"[(0.45, 0.79)]",,,,,0,4,4,4,4,3,19,1,,,,,,,,,,,,,"(0.25, -0.04)",images/min3.png,5,0.0667651008143,0.401391835327,[-0.19326501 -0.0703125 ],,,,,,,,['num_4'],,,,2018_Jun_22_1610,59.9622391799,sequenceLearningTask,001,087,
min1.png,min2.png,min3.png,min4.png,allBlank.png,"['num_7', 'num_4', 'num_1', 'num_0']",['num_4'],num_4,[2],'num_4',images/min2.png,"[(0.45, 0.79)]",,,,,0,4,4,4,4,3,19,1,,,,,,,,,,,,,"(0.75, -0.04)",images/min4.png,5,0.0598768985119,0.141441582999,[ 0.25768668 -0.078125  ],,,,,,,,['num_4'],,,,2018_Jun_22_1610,59.9622391799,sequenceLearningTask,001,087,
min1.png,min2.png,min3.png,min4.png,allBlank.png,"['num_7', 'num_4', 'num_1', 'num_0']",['num_4'],num_4,[2],'num_4',images/min2.png,"[(0.45, 0.79)]",,,,,0,5,5,5,4,3,19,1,,,,,,,,,,,,,"(-0.75, -0.04)",images/min1.png,6,0.0533349524776,0.229928521055,[ 0.72767204 -0.06770833],,,,,,,,['num_4'],,,,2018_Jun_22_1610,59.9622391799,sequenceLearningTask,001,087,
min1.png,min2.png,min3.png,min4.png,allBlank.png,"['num_7', 'num_4', 'num_1', 'num_0']",['num_4'],num_4,[2],'num_4',images/min2.png,"[(0.45, 0.79)]",,,,,0,5,5,5,4,3,19,1,,,,,,,,,,,,,"(0.25, -0.04)",images/min3.png,6,0.0523474657039,0.370773591478,[-0.79648609 -0.20052083],,,,,,,,['num_4'],,,,2018_Jun_22_1610,59.9622391799,sequenceLearningTask,001,087,
min1.png,min2.png,min3.png,min4.png,allBlank.png,"['num_7', 'num_4', 'num_1', 'num_0']",['num_4'],num_4,[2],'num_4',images/min2.png,"[(0.45, 0.79)]",,,,,0,5,5,5,4,3,19,1,,,,,,,,,,,,,"(-0.25, -0.04)",images/min2.png,6,0.0592147449379,0.158241576106,[ 0.16983895 -0.15885417],,,,,,,,['num_4'],,,,2018_Jun_22_1610,59.9622391799,sequenceLearningTask,001,087,
min1.png,min2.png,min3.png,min4.png,allBlank.png,"['num_7', 'num_4', 'num_1', 'num_0']",['num_4'],num_4,[2],'num_4',images/min2.png,"[(0.45, 0.79)]",,,,,0,5,5,5,4,3,19,1,,,,,,,,,,,,,"(0.75, -0.04)",images/min4.png,6,0.0586453092737,0.312046641212,[-0.19765739 -0.125     ],,,,,,,,['num_4'],,,,2018_Jun_22_1610,59.9622391799,sequenceLearningTask,001,087,
min1.png,min2.png,min3.png,min4.png,allBlank.png,"['num_7', 'num_4', 'num_1', 'num_0']",['num_4'],num_4,[2],'num_4',images/min2.png,"[(0.45, 0.79)]",,,,,0,5,5,5,4,3,19,1,,,,,,,,,,,,,"(0.75, -0.04)",images/min4.png,6,0.0603441803723,0.177288132395,[ 0.71156662 -0.13541667],,,,,,,,['num_4'],,,,2018_Jun_22_1610,59.9622391799,sequenceLearningTask,001,087,
min1.png,min2.png,min3.png,min4.png,allBlank.png,"['num_7', 'num_4', 'num_1', 'num_0']",['num_4'],num_4,[2],'num_4',images/min2.png,"[(0.45, 0.79)]",,,,,0,5,5,5,4,3,19,1,,,,,,,,,,,,,"(-0.25, -0.04)",images/min2.png,6,0.0539326958224,0.263997019899,[ 0.715959   -0.10677083],,,,,,,,['num_4'],,,,2018_Jun_22_1610,59.9622391799,sequenceLearningTask,001,087,
min1.png,min2.png,min3.png,min4.png,allBlank.png,"['num_7', 'num_4', 'num_1', 'num_0']",['num_4'],num_4,[2],'num_4',images/min2.png,"[(0.45, 0.79)]",,,,,0,5,5,5,4,3,19,1,,,,,,,,,,,,,"(0.25, -0.04)",images/min3.png,6,0.0581636684456,0.192885664457,[-0.19912152 -0.15625   ],,,,,,,,['num_4'],,,,2018_Jun_22_1610,59.9622391799,sequenceLearningTask,001,087,
min1.png,min2.png,min3.png,min4.png,allBlank.png,"['num_7', 'num_4', 'num_1', 'num_0']",['num_4'],num_4,[2],'num_4',images/min2.png,"[(0.45, 0.79)]",,,,,0,5,5,5,4,3,19,1,,,,,,,,,,,,,"(0.75, -0.04)",images/min4.png,6,0.0525960809855,0.0983704211812,[ 0.19619327 -0.09375   ],,,,,,,,['num_4'],,,,2018_Jun_22_1610,59.9622391799,sequenceLearningTask,001,087,
min1.png,min2.png,min3.png,min4.png,allBlank.png,"['num_7', 'num_4', 'num_1', 'num_0']",['num_4'],num_4,[2],'num_4',images/min2.png,"[(0.45, 0.79)]",,,,,0,6,6,6,4,3,19,1,,,,,,,,,,,,,"(-0.75, -0.04)",images/min1.png,7,0.0563011051072,0.459683503719,[ 0.73499268 -0.09895833],,,,,,,,['num_4'],,,,2018_Jun_22_1610,59.9622391799,sequenceLearningTask,001,087,
min1.png,min2.png,min3.png,min4.png,allBlank.png,"['num_7', 'num_4', 'num_1', 'num_0']",['num_4'],num_4,[2],'num_4',images/min2.png,"[(0.45, 0.79)]",,,,,0,6,6,6,4,3,19,1,,,,,,,,,,,,,"(0.25, -0.04)",images/min3.png,7,0.0384241893644,0.629908254396,[-0.64275256 -0.05729167],0.163949060944,1,,,,,,['num_4'],,,,2018_Jun_22_1610,59.9622391799,sequenceLearningTask,001,087,
min1.png,min2.png,min3.png,min4.png,allBlank.png,"['num_7', 'num_4', 'num_1', 'num_0']",['num_4'],num_4,[2],'num_4',images/min2.png,"[(0.45, 0.79)]",,,,,0,6,6,6,4,3,19,1,,,,,,,,,,,,,"(-0.25, -0.04)",images/min2.png,7,0.0406502397336,0.0434732129343,[ 0.29575403 -0.08854167],,,,,,,,['num_4'],,,,2018_Jun_22_1610,59.9622391799,sequenceLearningTask,001,087,
min1.png,min2.png,min3.png,min4.png,allBlank.png,"['num_7', 'num_4', 'num_1', 'num_0']",['num_4'],num_4,[2],'num_4',images/min2.png,"[(0.45, 0.79)]",,,,,0,6,6,6,4,3,19,1,,,,,,,,,,,,,"(0.75, -0.04)",images/min4.png,7,0.0541866444364,0.214040937829,[-0.18887262  0.02083333],,,,,,,,['num_4'],,,,2018_Jun_22_1610,59.9622391799,sequenceLearningTask,001,087,
min1.png,min2.png,min3.png,min4.png,allBlank.png,"['num_7', 'num_4', 'num_1', 'num_0']",['num_4'],num_4,[2],'num_4',images/min2.png,"[(0.45, 0.79)]",,,,,0,6,6,6,4,3,19,1,,,,,,,,,,,,,"(0.75, -0.04)",images/min4.png,7,0.059074437303,0.17579520993,[ 0.73938507 -0.0703125 ],,,,,,,,['num_4'],,,,2018_Jun_22_1610,59.9622391799,sequenceLearningTask,001,087,
min1.png,min2.png,min3.png,min4.png,allBlank.png,"['num_7', 'num_4', 'num_1', 'num_0']",['num_4'],num_4,[2],'num_4',images/min2.png,"[(0.45, 0.79)]",,,,,0,6,6,6,4,3,19,1,,,,,,,,,,,,,"(-0.25, -0.04)",images/min2.png,7,0.0542186444227,0.747123796052,[ 0.77745242 -0.0703125 ],0.130057382541,1,,,,,,['num_4'],,,,2018_Jun_22_1610,59.9622391799,sequenceLearningTask,001,087,
min1.png,min2.png,min3.png,min4.png,allBlank.png,"['num_7', 'num_4', 'num_1', 'num_0']",['num_4'],num_4,[2],'num_4',images/min2.png,"[(0.45, 0.79)]",,,,,0,6,6,6,4,3,19,1,,,,,,,,,,,,,"(0.25, -0.04)",images/min3.png,7,0.0515634660251,0.43401377066,[-0.34553441 -0.08333333],,,,,,,,['num_4'],,,,2018_Jun_22_1610,59.9622391799,sequenceLearningTask,001,087,
min1.png,min2.png,min3.png,min4.png,allBlank.png,"['num_7', 'num_4', 'num_1', 'num_0']",['num_4'],num_4,[2],'num_4',images/min2.png,"[(0.45, 0.79)]",,,,,0,6,6,6,4,3,19,1,,,,,,,,,,,,,"(0.75, -0.04)",images/min4.png,7,0.0533599781093,0.613618620054,[ 0.22986823 -0.06770833],,,,,,,,['num_4'],,,,2018_Jun_22_1610,59.9622391799,sequenceLearningTask,001,087,
min1.png,min2.png,min3.png,min4.png,allBlank.png,"['num_7', 'num_4', 'num_1', 'num_0']",['num_4'],num_4,[2],'num_4',images/min2.png,"[(0.45, 0.79)]",,,,,0,7,7,7,4,3,19,1,,,,,,,,,,,,,"(-0.75, -0.04)",images/min1.png,8,0.0531655166506,0.129332049505,[ 0.59297218 -0.0703125 ],,,,,,,,['num_4'],,,,2018_Jun_22_1610,59.9622391799,sequenceLearningTask,001,087,
min1.png,min2.png,min3.png,min4.png,allBlank.png,"['num_7', 'num_4', 'num_1', 'num_0']",['num_4'],num_4,[2],'num_4',images/min2.png,"[(0.45, 0.79)]",,,,,0,7,7,7,4,3,19,1,,,,,,,,,,,,,"(0.25, -0.04)",images/min3.png,8,0.0576303353309,0.476725137754,[-0.80087848 -0.09635417],,,,,,,,['num_4'],,,,2018_Jun_22_1610,59.9622391799,sequenceLearningTask,001,087,
min1.png,min2.png,min3.png,min4.png,allBlank.png,"['num_7', 'num_4', 'num_1', 'num_0']",['num_4'],num_4,[2],'num_4',images/min2.png,"[(0.45, 0.79)]",,,,,0,7,7,7,4,3,19,1,,,,,,,,,,,,,"(-0.25, -0.04)",images/min2.png,8,0.0547043878141,0.628433383206,[ 0.29868228  0.09635417],0.24698861662,1,,,,,,['num_4'],,,,2018_Jun_22_1610,59.9622391799,sequenceLearningTask,001,087,
min1.png,min2.png,min3.png,min4.png,allBlank.png,"['num_7', 'num_4', 'num_1', 'num_0']",['num_4'],num_4,[2],'num_4',images/min2.png,"[(0.45, 0.79)]",,,,,0,7,7,7,4,3,19,1,,,,,,,,,,,,,"(0.75, -0.04)",images/min4.png,8,0.0583806939976,0.25988461133,[-0.11859444 -0.0078125 ],,,,,,,,['num_4'],,,,2018_Jun_22_1610,59.9622391799,sequenceLearningTask,001,087,
min1.png,min2.png,min3.png,min4.png,allBlank.png,"['num_7', 'num_4', 'num_1', 'num_0']",['num_4'],num_4,[2],'num_4',images/min2.png,"[(0.45, 0.79)]",,,,,0,7,7,7,4,3,19,1,,,,,,,,,,,,,"(0.75, -0.04)",images/min4.png,8,0.0575597712577,0.060210847093,[ 0.70863836 -0.015625  ],,,,,,,,['num_4'],,,,2018_Jun_22_1610,59.9622391799,sequenceLearningTask,001,087,
min1.png,min2.png,min3.png,min4.png,allBlank.png,"['num_7', 'num_4', 'num_1', 'num_0']",['num_4'],num_4,[2],'num_4',images/min2.png,"[(0.45, 0.79)]",,,,,0,7,7,7,4,3,19,1,,,,,,,,,,,,,"(-0.25, -0.04)",images/min2.png,8,0.0501308512285,0.367331951864,[ 0.76573939 -0.00260417],,,,,,,,['num_4'],,,,2018_Jun_22_1610,59.9622391799,sequenceLearningTask,001,087,
min1.png,min2.png,min3.png,min4.png,allBlank.png,"['num_7', 'num_4', 'num_1', 'num_0']",['num_4'],num_4,[2],'num_4',images/min2.png,"[(0.45, 0.79)]",,,,,0,7,7,7,4,3,19,1,,,,,,,,,,,,,"(0.25, -0.04)",images/min3.png,8,0.0259995790775,0.0247007078151,[-0.29721816  0.0390625 ],,,1,,,,,['num_4'],,,,2018_Jun_22_1610,59.9622391799,sequenceLearningTask,001,087,
min1.png,min2.png,min3.png,min4.png,allBlank.png,"['num_7', 'num_4', 'num_1', 'num_0']",['num_4'],num_4,[2],'num_4',images/min2.png,"[(0.45, 0.79)]",,,,,0,7,7,7,4,3,19,1,,,,,,,,,,,,,"(0.75, -0.04)",images/min4.png,8,0.0325899353475,0.0387663430702,[ 0.21522694 -0.04947917],,,,,,,,['num_4'],,,,2018_Jun_22_1610,59.9622391799,sequenceLearningTask,001,087,
min1.png,min2.png,min3.png,min4.png,allBlank.png,"['num_7', 'num_4', 'num_1', 'num_0']",['num_4'],num_4,[2],'num_4',images/min2.png,"[(0.45, 0.79)]",,,,,0,8,8,8,4,3,19,1,,,,,,,,,,,,,"(-0.75, -0.04)",images/min1.png,9,0.05336202939,0.446698893662,[ 0.71156662  0.0078125 ],,,,,,,,['num_4'],,,,2018_Jun_22_1610,59.9622391799,sequenceLearningTask,001,087,
min1.png,min2.png,min3.png,min4.png,allBlank.png,"['num_7', 'num_4', 'num_1', 'num_0']",['num_4'],num_4,[2],'num_4',images/min2.png,"[(0.45, 0.79)]",,,,,0,8,8,8,4,3,19,1,,,,,,,,,,,,,"(0.25, -0.04)",images/min3.png,9,0.0626231537963,0.471745447489,[-0.74524158 -0.07291667],,,,,,,,['num_4'],,,,2018_Jun_22_1610,59.9622391799,sequenceLearningTask,001,087,
min1.png,min2.png,min3.png,min4.png,allBlank.png,"['num_7', 'num_4', 'num_1', 'num_0']",['num_4'],num_4,[2],'num_4',images/min2.png,"[(0.45, 0.79)]",,,,,0,8,8,8,4,3,19,1,,,,,,,,,,,,,"(-0.25, -0.04)",images/min2.png,9,0.0547954646991,0.179865362106,[ 0.18448023 -0.00260417],,,,,,,,['num_4'],,,,2018_Jun_22_1610,59.9622391799,sequenceLearningTask,001,087,
min1.png,min2.png,min3.png,min4.png,allBlank.png,"['num_7', 'num_4', 'num_1', 'num_0']",['num_4'],num_4,[2],'num_4',images/min2.png,"[(0.45, 0.79)]",,,,,0,8,8,8,4,3,19,1,,,,,,,,,,,,,"(0.75, -0.04)",images/min4.png,9,0.0505969023197,0.25059230745,[-0.18740849 -0.03125   ],,,,,,,,['num_4'],,,,2018_Jun_22_1610,59.9622391799,sequenceLearningTask,001,087,
min1.png,min2.png,min3.png,min4.png,allBlank.png,"['num_7', 'num_4', 'num_1', 'num_0']",['num_4'],num_4,[2],'num_4',images/min2.png,"[(0.45, 0.79)]",,,,,0,8,8,8,4,3,19,1,,,,,,,,,,,,,"(0.75, -0.04)",images/min4.png,9,0.0528705424122,0.0989476517134,[ 0.69838946 -0.1640625 ],,,,,,,,['num_4'],,,,2018_Jun_22_1610,59.9622391799,sequenceLearningTask,001,087,
min1.png,min2.png,min3.png,min4.png,allBlank.png,"['num_7', 'num_4', 'num_1', 'num_0']",['num_4'],num_4,[2],'num_4',images/min2.png,"[(0.45, 0.79)]",,,,,0,8,8,8,4,3,19,1,,,,,,,,,,,,,"(-0.25, -0.04)",images/min2.png,9,0.0591318731767,0.675607107443,[ 0.69399707 -0.23177083],0.194122587027,1,,,,,,['num_4'],,,,2018_Jun_22_1610,59.9622391799,sequenceLearningTask,001,087,
min1.png,min2.png,min3.png,min4.png,allBlank.png,"['num_7', 'num_4', 'num_1', 'num_0']",['num_4'],num_4,[2],'num_4',images/min2.png,"[(0.45, 0.79)]",,,,,0,8,8,8,4,3,19,1,,,,,,,,,,,,,"(0.25, -0.04)",images/min3.png,9,0.0563056179262,0.244008105022,[-0.21376281 -0.1015625 ],,,,,,,,['num_4'],,,,2018_Jun_22_1610,59.9622391799,sequenceLearningTask,001,087,
min1.png,min2.png,min3.png,min4.png,allBlank.png,"['num_7', 'num_4', 'num_1', 'num_0']",['num_4'],num_4,[2],'num_4',images/min2.png,"[(0.45, 0.79)]",,,,,0,8,8,8,4,3,19,1,,,,,,,,,,,,,"(0.75, -0.04)",images/min4.png,9,0.0611318723559,0.257429637977,[ 0.24597365 -0.13802083],,,,,,,,['num_4'],,,,2018_Jun_22_1610,59.9622391799,sequenceLearningTask,001,087,
min1.png,min2.png,min3.png,min4.png,allBlank.png,"['num_7', 'num_4', 'num_1', 'num_0']",['num_4'],num_4,[2],'num_4',images/min2.png,"[(0.45, 0.79)]",,,,,0,9,9,9,4,3,19,1,,,,,,,,,,,,,"(-0.75, -0.04)",images/min1.png,10,0.0575728994572,0.476085138016,[ 0.68374817 -0.1875    ],,,,,,,,['num_4'],,,,2018_Jun_22_1610,59.9622391799,sequenceLearningTask,001,087,
min1.png,min2.png,min3.png,min4.png,allBlank.png,"['num_7', 'num_4', 'num_1', 'num_0']",['num_4'],num_4,[2],'num_4',images/min2.png,"[(0.45, 0.79)]",,,,,0,9,9,9,4,3,19,1,,,,,,,,,,,,,"(0.25, -0.04)",images/min3.png,10,0.0533259268404,0.496857232059,[-0.64421669 -0.21354167],,,,,,,,['num_4'],,,,2018_Jun_22_1610,59.9622391799,sequenceLearningTask,001,087,
min1.png,min2.png,min3.png,min4.png,allBlank.png,"['num_7', 'num_4', 'num_1', 'num_0']",['num_4'],num_4,[2],'num_4',images/min2.png,"[(0.45, 0.79)]",,,,,0,9,9,9,4,3,19,1,,,,,,,,,,,,,"(-0.25, -0.04)",images/min2.png,10,0.0545681827416,0.246132001587,[ 0.18448023 -0.09635417],,,,,,,,['num_4'],,,,2018_Jun_22_1610,59.9622391799,sequenceLearningTask,001,087,
min1.png,min2.png,min3.png,min4.png,allBlank.png,"['num_7', 'num_4', 'num_1', 'num_0']",['num_4'],num_4,[2],'num_4',images/min2.png,"[(0.45, 0.79)]",,,,,0,9,9,9,4,3,19,1,,,,,,,,,,,,,"(0.75, -0.04)",images/min4.png,10,0.0532816191671,0.398325580174,[-0.09809663 -0.13020833],,,,,,,,['num_4'],,,,2018_Jun_22_1610,59.9622391799,sequenceLearningTask,001,087,
min1.png,min2.png,min3.png,min4.png,allBlank.png,"['num_7', 'num_4', 'num_1', 'num_0']",['num_4'],num_4,[2],'num_4',images/min2.png,"[(0.45, 0.79)]",,,,,0,9,9,9,4,3,19,1,,,,,,,,,,,,,"(0.75, -0.04)",images/min4.png,10,0.0591696167512,0.141432557361,[ 0.79062958  0.015625  ],,,,,,,,['num_4'],,,,2018_Jun_22_1610,59.9622391799,sequenceLearningTask,001,087,
min1.png,min2.png,min3.png,min4.png,allBlank.png,"['num_7', 'num_4', 'num_1', 'num_0']",['num_4'],num_4,[2],'num_4',images/min2.png,"[(0.45, 0.79)]",,,,,0,9,9,9,4,3,19,1,,,,,,,,,,,,,"(-0.25, -0.04)",images/min2.png,10,0.0616438721463,0.656539628087,[ 0.76281113 -0.11197917],,,,,,,,['num_4'],,,,2018_Jun_22_1610,59.9622391799,sequenceLearningTask,001,087,
min1.png,min2.png,min3.png,min4.png,allBlank.png,"['num_7', 'num_4', 'num_1', 'num_0']",['num_4'],num_4,[2],'num_4',images/min2.png,"[(0.45, 0.79)]",,,,,0,9,9,9,4,3,19,1,,,,,,,,,,,,,"(0.25, -0.04)",images/min3.png,10,0.0517173121161,0.23276093015,[-0.23718887 -0.09895833],,,,,,,,['num_4'],,,,2018_Jun_22_1610,59.9622391799,sequenceLearningTask,001,087,
min1.png,min2.png,min3.png,min4.png,allBlank.png,"['num_7', 'num_4', 'num_1', 'num_0']",['num_4'],num_4,[2],'num_4',images/min2.png,"[(0.45, 0.79)]",,,,,0,9,9,9,4,3,19,1,,,,,,,,,,,,,"(0.75, -0.04)",images/min4.png,10,0.0604590521198,0.290368291131,[ 0.24158126 -0.0234375 ],,,,,,,,['num_4'],,,,2018_Jun_22_1610,59.9622391799,sequenceLearningTask,001,087,
min1.png,min2.png,min3.png,min4.png,allBlank.png,"['num_7', 'num_4', 'num_1', 'num_0']",['num_4'],num_4,[2],'num_4',images/min2.png,"[(0.45, 0.79)]",,,,,0,9,9,9,4,3,19,1,0,-1,-1,0,,,,,,,,,,,,,,,,,,,,,,['num_4'],,,,2018_Jun_22_1610,59.9622391799,sequenceLearningTask,001,087,
min1.png,min2.png,min3.png,min4.png,allBlank.png,"['num_7', 'num_4', 'num_1', 'num_0']",['num_4'],num_4,[2],'num_4',images/min2.png,"[(0.45, 0.79)]",,,,,0,9,9,9,4,3,19,1,0,-1,-1,0,,,,,,,,,,,,,,,,,,['1'],,,,['num_4'],,,,2018_Jun_22_1610,59.9622391799,sequenceLearningTask,001,087,
min1.png,min2.png,min3.png,min4.png,allBlank.png,"['num_7', 'num_4', 'num_1', 'num_0']",['num_4'],num_4,[2],'num_4',images/min2.png,"[(0.45, 0.79)]",,,,,0,9,9,9,4,3,19,1,0,-1,-1,0,,,,,,,,,,,,,,,,,,['1'],,,,['num_4'],,,,2018_Jun_22_1610,59.9622391799,sequenceLearningTask,001,087,
min1.png,min2.png,min3.png,min4.png,allBlank.png,"['num_7', 'num_4', 'num_1', 'num_0']",['num_4'],num_4,[2],'num_4',images/min2.png,"[(0.45, 0.79)]",,,,,0,9,9,9,4,3,19,1,0,-1,-1,0,,,,,,,,,,,,,,,,,,['1'],,,,['num_4'],,,,2018_Jun_22_1610,59.9622391799,sequenceLearningTask,001,087,
min1.png,min2.png,min3.png,min4.png,allBlank.png,"['num_7', 'num_4', 'num_1', 'num_0']",['num_4'],num_4,[2],'num_4',images/min2.png,"[(0.45, 0.79)]",,,,,0,9,9,9,4,3,19,1,0,-1,-1,0,,,,,,,,,,,,,,,,,,['2'],,,,['num_4'],,,,2018_Jun_22_1610,59.9622391799,sequenceLearningTask,001,087,
