pawPatrol1,pawPatrol2,pawPatrol3,pawPatrol4,blank,randomPaw,correctKeyPress,allowableKey,correctKey,correctKeyPressNum,trials.thisRepN,trials.thisTrialN,trials.thisN,trials.thisIndex,trials_3.thisRepN,trials_3.thisTrialN,trials_3.thisN,trials_3.thisIndex,trials_2.thisRepN,trials_2.thisTrialN,trials_2.thisN,trials_2.thisIndex,trials_questions.thisRepN,trials_questions.thisTrialN,trials_questions.thisN,trials_questions.thisIndex,trials_test.thisRepN,trials_test.thisTrialN,trials_test.thisN,trials_test.thisIndex,trials_recogtest.thisRepN,trials_recogtest.thisTrialN,trials_recogtest.thisN,trials_recogtest.thisIndex,correctKey,repetitionNumber,stimulusPresent.t,trialCorrect,key_resp_9.keys,key_resp_9.corr,key_resp_9.rt,keyRespCorrect,questionsResponses,AnswerFinished.keys,AnswerFinished.rt,RecordAnswer.keys,RecordAnswer.rt,recallResponse,recallResponseTime,date,frameRate,expName,session,participant,
min1.png,min2.png,min3.png,min4.png,allBlank.png,,,,['num_7'],,,,,,0,0,0,0,,,,,,,,,,,,,,,,,['num_7'],1,0.0621254619982,1,['num_7'],0,[0.6864508474463946],,,,,,,,,2018_Apr_28_1701,60.0405689,sequenceLearningTask,001,085,
min1.png,min2.png,min3.png,min4.png,allBlank.png,,,,['num_1'],,,,,,0,0,0,0,,,,,,,,,,,,,,,,,['num_1'],1,0.0543031126545,0,"['num_4', 'num_1']",0,"[0.3387880958507594, 1.4895308846826083]",,,,,,,,,2018_Apr_28_1701,60.0405689,sequenceLearningTask,001,085,
min1.png,min2.png,min3.png,min4.png,allBlank.png,,,,['num_4'],,,,,,0,0,0,0,,,,,,,,,,,,,,,,,['num_4'],1,0.0586698765073,1,['num_4'],0,[1.018987874063896],,,,,,,,,2018_Apr_28_1701,60.0405689,sequenceLearningTask,001,085,
min1.png,min2.png,min3.png,min4.png,allBlank.png,,,,['num_0'],,,,,,0,0,0,0,,,,,,,,,,,,,,,,,['num_0'],1,0.0567937762535,0,"['num_1', 'num_0']",0,"[0.6547676043883257, 0.787960876354191]",,,,,,,,,2018_Apr_28_1701,60.0405689,sequenceLearningTask,001,085,
min1.png,min2.png,min3.png,min4.png,allBlank.png,,,,['num_0'],,,,,,0,0,0,0,,,,,,,,,,,,,,,,,['num_0'],1,0.061121976054,0,"['num_0', 'num_0']",0,"[0.00042051230047945864, 1.2998790155324969]",,,,,,,,,2018_Apr_28_1701,60.0405689,sequenceLearningTask,001,085,
min1.png,min2.png,min3.png,min4.png,allBlank.png,,,,['num_4'],,,,,,0,0,0,0,,,,,,,,,,,,,,,,,['num_4'],1,0.0589603376902,1,['num_4'],0,[1.3362457400071435],,,,,,,,,2018_Apr_28_1701,60.0405689,sequenceLearningTask,001,085,
min1.png,min2.png,min3.png,min4.png,allBlank.png,,,,['num_1'],,,,,,0,0,0,0,,,,,,,,,,,,,,,,,['num_1'],1,0.0557989056833,1,['num_1'],0,[0.9060854489216581],,,,,,,,,2018_Apr_28_1701,60.0405689,sequenceLearningTask,001,085,
min1.png,min2.png,min3.png,min4.png,allBlank.png,,,,['num_0'],,,,,,0,0,0,0,,,,,,,,,,,,,,,,,['num_0'],1,0.0500586050548,1,['num_0'],0,[0.8106603355954576],,,,,,,,,2018_Apr_28_1701,60.0405689,sequenceLearningTask,001,085,
min1.png,min2.png,min3.png,min4.png,allBlank.png,,,,['num_7'],,,,,,0,1,1,1,,,,,,,,,,,,,,,,,['num_7'],2,0.0591527477118,1,['num_7'],0,[1.0669923278037459],,,,,,,,,2018_Apr_28_1701,60.0405689,sequenceLearningTask,001,085,
min1.png,min2.png,min3.png,min4.png,allBlank.png,,,,['num_1'],,,,,,0,1,1,1,,,,,,,,,,,,,,,,,['num_1'],2,0.0527117299935,1,['num_1'],0,[0.9413190465820662],,,,,,,,,2018_Apr_28_1701,60.0405689,sequenceLearningTask,001,085,
min1.png,min2.png,min3.png,min4.png,allBlank.png,,,,['num_4'],,,,,,0,1,1,1,,,,,,,,,,,,,,,,,['num_4'],2,0.0512495779476,0,"['num_7', 'num_4']",0,"[1.0272331972519169, 1.477757360709802]",,,,,,,,,2018_Apr_28_1701,60.0405689,sequenceLearningTask,001,085,
min1.png,min2.png,min3.png,min4.png,allBlank.png,,,,['num_0'],,,,,,0,1,1,1,,,,,,,,,,,,,,,,,['num_0'],2,0.0553074191084,1,['num_0'],0,[0.8550701270905847],,,,,,,,,2018_Apr_28_1701,60.0405689,sequenceLearningTask,001,085,
min1.png,min2.png,min3.png,min4.png,allBlank.png,,,,['num_0'],,,,,,0,1,1,1,,,,,,,,,,,,,,,,,['num_0'],2,0.0530026014312,1,['num_0'],0,[1.141744235803344],,,,,,,,,2018_Apr_28_1701,60.0405689,sequenceLearningTask,001,085,
min1.png,min2.png,min3.png,min4.png,allBlank.png,,,,['num_4'],,,,,,0,1,1,1,,,,,,,,,,,,,,,,,['num_4'],2,0.0546596250315,1,['num_4'],0,[1.0401390275183076],,,,,,,,,2018_Apr_28_1701,60.0405689,sequenceLearningTask,001,085,
min1.png,min2.png,min3.png,min4.png,allBlank.png,,,,['num_1'],,,,,,0,1,1,1,,,,,,,,,,,,,,,,,['num_1'],2,0.0522161408626,1,['num_1'],0,[1.109118634929473],,,,,,,,,2018_Apr_28_1701,60.0405689,sequenceLearningTask,001,085,
min1.png,min2.png,min3.png,min4.png,allBlank.png,,,,['num_0'],,,,,,0,1,1,1,,,,,,,,,,,,,,,,,['num_0'],2,0.0499683487542,1,['num_0'],0,[0.5772181613720022],,,,,,,,,2018_Apr_28_1701,60.0405689,sequenceLearningTask,001,085,
min1.png,min2.png,min3.png,min4.png,allBlank.png,,,,['num_7'],,,,,,0,2,2,2,,,,,,,,,,,,,,,,,['num_7'],3,0.0558518286962,1,['num_7'],0,[1.0049165067684953],,,,,,,,,2018_Apr_28_1701,60.0405689,sequenceLearningTask,001,085,
min1.png,min2.png,min3.png,min4.png,allBlank.png,,,,['num_1'],,,,,,0,2,2,2,,,,,,,,,,,,,,,,,['num_1'],3,0.0570555195227,1,['num_1'],0,[0.9382023324687907],,,,,,,,,2018_Apr_28_1701,60.0405689,sequenceLearningTask,001,085,
min1.png,min2.png,min3.png,min4.png,allBlank.png,,,,['num_4'],,,,,,0,2,2,2,,,,,,,,,,,,,,,,,['num_4'],3,0.0581394156252,1,['num_4'],0,[1.0696507860702695],,,,,,,,,2018_Apr_28_1701,60.0405689,sequenceLearningTask,001,085,
min1.png,min2.png,min3.png,min4.png,allBlank.png,,,,['num_0'],,,,,,0,2,2,2,,,,,,,,,,,,,,,,,['num_0'],3,0.0531621909795,0,"['num_1', 'num_0', 'num_0']",0,"[0.6579401133058127, 1.4248638873468735]",,,,,,,,,2018_Apr_28_1701,60.0405689,sequenceLearningTask,001,085,
min1.png,min2.png,min3.png,min4.png,allBlank.png,,,,['num_0'],,,,,,0,2,2,2,,,,,,,,,,,,,,,,,['num_0'],3,0.0551593167293,1,['num_0'],0,[1.0223499212115712],,,,,,,,,2018_Apr_28_1701,60.0405689,sequenceLearningTask,001,085,
min1.png,min2.png,min3.png,min4.png,allBlank.png,,,,['num_4'],,,,,,0,2,2,2,,,,,,,,,,,,,,,,,['num_4'],3,0.0548828042447,1,['num_4'],0,[1.456815027508128],,,,,,,,,2018_Apr_28_1701,60.0405689,sequenceLearningTask,001,085,
min1.png,min2.png,min3.png,min4.png,allBlank.png,,,,['num_1'],,,,,,0,2,2,2,,,,,,,,,,,,,,,,,['num_1'],3,0.0525993198789,1,['num_1'],0,[0.8577019187287078],,,,,,,,,2018_Apr_28_1701,60.0405689,sequenceLearningTask,001,085,
min1.png,min2.png,min3.png,min4.png,allBlank.png,,,,['num_0'],,,,,,0,2,2,2,,,,,,,,,,,,,,,,,['num_0'],3,0.0544335740306,1,['num_0'],0,[0.5732567303493852],,,,,,,,,2018_Apr_28_1701,60.0405689,sequenceLearningTask,001,085,
min1.png,min2.png,min3.png,min4.png,allBlank.png,,,,['num_7'],,,,,,0,3,3,3,,,,,,,,,,,,,,,,,['num_7'],4,0.0543970612525,1,['num_7'],0,[1.0214859222724044],,,,,,,,,2018_Apr_28_1701,60.0405689,sequenceLearningTask,001,085,
min1.png,min2.png,min3.png,min4.png,allBlank.png,,,,['num_1'],,,,,,0,3,3,3,,,,,,,,,,,,,,,,,['num_1'],4,0.0521767562932,1,['num_1'],0,[1.0931781417311868],,,,,,,,,2018_Apr_28_1701,60.0405689,sequenceLearningTask,001,085,
min1.png,min2.png,min3.png,min4.png,allBlank.png,,,,['num_4'],,,,,,0,3,3,3,,,,,,,,,,,,,,,,,['num_4'],4,0.0573886473176,1,['num_4'],0,[1.0876839946431573],,,,,,,,,2018_Apr_28_1701,60.0405689,sequenceLearningTask,001,085,
min1.png,min2.png,min3.png,min4.png,allBlank.png,,,,['num_0'],,,,,,0,3,3,3,,,,,,,,,,,,,,,,,['num_0'],4,0.0557541877897,1,['num_0'],0,[0.771427563373436],,,,,,,,,2018_Apr_28_1701,60.0405689,sequenceLearningTask,001,085,
min1.png,min2.png,min3.png,min4.png,allBlank.png,,,,['num_0'],,,,,,0,3,3,3,,,,,,,,,,,,,,,,,['num_0'],4,0.0466477374612,1,['num_0'],0,[0.8317347711963521],,,,,,,,,2018_Apr_28_1701,60.0405689,sequenceLearningTask,001,085,
min1.png,min2.png,min3.png,min4.png,allBlank.png,,,,['num_4'],,,,,,0,3,3,3,,,,,,,,,,,,,,,,,['num_4'],4,0.0509509116491,0,"['num_1', 'num_4']",0,"[1.1437967460988148, 1.7772400690409995]",,,,,,,,,2018_Apr_28_1701,60.0405689,sequenceLearningTask,001,085,
min1.png,min2.png,min3.png,min4.png,allBlank.png,,,,['num_1'],,,,,,0,3,3,3,,,,,,,,,,,,,,,,,['num_1'],4,0.0617939752301,1,['num_1'],0,[0.8485946478831465],,,,,,,,,2018_Apr_28_1701,60.0405689,sequenceLearningTask,001,085,
min1.png,min2.png,min3.png,min4.png,allBlank.png,,,,['num_0'],,,,,,0,3,3,3,,,,,,,,,,,,,,,,,['num_0'],4,0.0509710141923,1,['num_0'],0,[0.6950276573988958],,,,,,,,,2018_Apr_28_1701,60.0405689,sequenceLearningTask,001,085,
min1.png,min2.png,min3.png,min4.png,allBlank.png,,,,['num_7'],,,,,,0,4,4,4,,,,,,,,,,,,,,,,,['num_7'],5,0.0248606873502,1,['num_7'],0,[1.2360579658779898],,,,,,,,,2018_Apr_28_1701,60.0405689,sequenceLearningTask,001,085,
min1.png,min2.png,min3.png,min4.png,allBlank.png,,,,['num_1'],,,,,,0,4,4,4,,,,,,,,,,,,,,,,,['num_1'],5,0.0525209609987,1,['num_1'],0,[1.0926308603520738],,,,,,,,,2018_Apr_28_1701,60.0405689,sequenceLearningTask,001,085,
min1.png,min2.png,min3.png,min4.png,allBlank.png,,,,['num_4'],,,,,,0,4,4,4,,,,,,,,,,,,,,,,,['num_4'],5,0.0547244454683,1,['num_4'],0,[1.0066202995440108],,,,,,,,,2018_Apr_28_1701,60.0405689,sequenceLearningTask,001,085,
min1.png,min2.png,min3.png,min4.png,allBlank.png,,,,['num_0'],,,,,,0,4,4,4,,,,,,,,,,,,,,,,,['num_0'],5,0.0538112158247,1,['num_0'],0,[0.7083761537942337],,,,,,,,,2018_Apr_28_1701,60.0405689,sequenceLearningTask,001,085,
min1.png,min2.png,min3.png,min4.png,allBlank.png,,,,['num_0'],,,,,,0,4,4,4,,,,,,,,,,,,,,,,,['num_0'],5,0.0588265942642,1,['num_0'],0,[0.8851361413690029],,,,,,,,,2018_Apr_28_1701,60.0405689,sequenceLearningTask,001,085,
min1.png,min2.png,min3.png,min4.png,allBlank.png,,,,['num_4'],,,,,,0,4,4,4,,,,,,,,,,,,,,,,,['num_4'],5,0.0571958270375,0,"['num_7', 'num_4']",0,"[0.9227750694080896, 1.6724820441268093]",,,,,,,,,2018_Apr_28_1701,60.0405689,sequenceLearningTask,001,085,
min1.png,min2.png,min3.png,min4.png,allBlank.png,,,,['num_1'],,,,,,0,4,4,4,,,,,,,,,,,,,,,,,['num_1'],5,0.0542567537341,1,['num_1'],0,[0.8917396204233228],,,,,,,,,2018_Apr_28_1701,60.0405689,sequenceLearningTask,001,085,
min1.png,min2.png,min3.png,min4.png,allBlank.png,,,,['num_0'],,,,,,0,4,4,4,,,,,,,,,,,,,,,,,['num_0'],5,0.0506083479668,1,['num_0'],0,[0.6937271461792989],,,,,,,,,2018_Apr_28_1701,60.0405689,sequenceLearningTask,001,085,
min1.png,min2.png,min3.png,min4.png,allBlank.png,,,,['num_7'],,,,,,0,5,5,5,,,,,,,,,,,,,,,,,['num_7'],6,0.0510678345854,1,['num_7'],0,[1.0087741430470487],,,,,,,,,2018_Apr_28_1701,60.0405689,sequenceLearningTask,001,085,
min1.png,min2.png,min3.png,min4.png,allBlank.png,,,,['num_1'],,,,,,0,5,5,5,,,,,,,,,,,,,,,,,['num_1'],6,0.0544003433024,1,['num_1'],0,[0.8898651611925743],,,,,,,,,2018_Apr_28_1701,60.0405689,sequenceLearningTask,001,085,
min1.png,min2.png,min3.png,min4.png,allBlank.png,,,,['num_4'],,,,,,0,5,5,5,,,,,,,,,,,,,,,,,['num_4'],6,0.0546062917638,1,['num_4'],0,[1.023643868335057],,,,,,,,,2018_Apr_28_1701,60.0405689,sequenceLearningTask,001,085,
min1.png,min2.png,min3.png,min4.png,allBlank.png,,,,['num_0'],,,,,,0,5,5,5,,,,,,,,,,,,,,,,,['num_0'],6,0.0605993100326,1,['num_0'],0,[0.5335312407842139],,,,,,,,,2018_Apr_28_1701,60.0405689,sequenceLearningTask,001,085,
min1.png,min2.png,min3.png,min4.png,allBlank.png,,,,['num_0'],,,,,,0,5,5,5,,,,,,,,,,,,,,,,,['num_0'],6,0.0533258830874,1,['num_0'],0,[0.3733570789445366],,,,,,,,,2018_Apr_28_1701,60.0405689,sequenceLearningTask,001,085,
min1.png,min2.png,min3.png,min4.png,allBlank.png,,,,['num_4'],,,,,,0,5,5,5,,,,,,,,,,,,,,,,,['num_4'],6,0.049365682833,1,['num_4'],0,[1.0784138522067224],,,,,,,,,2018_Apr_28_1701,60.0405689,sequenceLearningTask,001,085,
min1.png,min2.png,min3.png,min4.png,allBlank.png,,,,['num_1'],,,,,,0,5,5,5,,,,,,,,,,,,,,,,,['num_1'],6,0.0572356218618,1,['num_1'],0,[1.3371602004190208],,,,,,,,,2018_Apr_28_1701,60.0405689,sequenceLearningTask,001,085,
min1.png,min2.png,min3.png,min4.png,allBlank.png,,,,['num_0'],,,,,,0,5,5,5,,,,,,,,,,,,,,,,,['num_0'],6,0.0571613655447,1,['num_0'],0,[0.87126374818763],,,,,,,,,2018_Apr_28_1701,60.0405689,sequenceLearningTask,001,085,
min1.png,min2.png,min3.png,min4.png,allBlank.png,,,,['num_7'],,,,,,0,6,6,6,,,,,,,,,,,,,,,,,['num_7'],7,0.0571773655247,1,['num_7'],0,[0.8694623145092919],,,,,,,,,2018_Apr_28_1701,60.0405689,sequenceLearningTask,001,085,
min1.png,min2.png,min3.png,min4.png,allBlank.png,,,,['num_1'],,,,,,0,6,6,6,,,,,,,,,,,,,,,,,['num_1'],7,0.0612860784167,1,['num_1'],0,[1.5669088407303207],,,,,,,,,2018_Apr_28_1701,60.0405689,sequenceLearningTask,001,085,
min1.png,min2.png,min3.png,min4.png,allBlank.png,,,,['num_4'],,,,,,0,6,6,6,,,,,,,,,,,,,,,,,['num_4'],7,0.0585989022366,1,['num_4'],0,[0.8210459638394241],,,,,,,,,2018_Apr_28_1701,60.0405689,sequenceLearningTask,001,085,
min1.png,min2.png,min3.png,min4.png,allBlank.png,,,,['num_0'],,,,,,0,6,6,6,,,,,,,,,,,,,,,,,['num_0'],7,0.0533595240704,1,['num_0'],0,[0.6239003603259334],,,,,,,,,2018_Apr_28_1701,60.0405689,sequenceLearningTask,001,085,
min1.png,min2.png,min3.png,min4.png,allBlank.png,,,,['num_0'],,,,,,0,6,6,6,,,,,,,,,,,,,,,,,['num_0'],7,0.0622813592418,1,['num_0'],0,[0.46507224811648484],,,,,,,,,2018_Apr_28_1701,60.0405689,sequenceLearningTask,001,085,
min1.png,min2.png,min3.png,min4.png,allBlank.png,,,,['num_4'],,,,,,0,6,6,6,,,,,,,,,,,,,,,,,['num_4'],7,0.0555978802877,0,"['num_7', 'num_4']",0,"[1.2392706798746076, 2.572067808738211]",,,,,,,,,2018_Apr_28_1701,60.0405689,sequenceLearningTask,001,085,
min1.png,min2.png,min3.png,min4.png,allBlank.png,,,,['num_1'],,,,,,0,6,6,6,,,,,,,,,,,,,,,,,['num_1'],7,0.0582817744216,1,['num_1'],0,[0.8858393199952843],,,,,,,,,2018_Apr_28_1701,60.0405689,sequenceLearningTask,001,085,
min1.png,min2.png,min3.png,min4.png,allBlank.png,,,,['num_0'],,,,,,0,6,6,6,,,,,,,,,,,,,,,,,['num_0'],7,0.0506169633445,1,['num_0'],0,[0.9770367462115246],,,,,,,,,2018_Apr_28_1701,60.0405689,sequenceLearningTask,001,085,
min1.png,min2.png,min3.png,min4.png,allBlank.png,,,,['num_7'],,,,,,0,7,7,7,,,,,,,,,,,,,,,,,['num_7'],8,0.0476241465149,1,['num_7'],0,[0.9460127843958617],,,,,,,,,2018_Apr_28_1701,60.0405689,sequenceLearningTask,001,085,
min1.png,min2.png,min3.png,min4.png,allBlank.png,,,,['num_1'],,,,,,0,7,7,7,,,,,,,,,,,,,,,,,['num_1'],8,0.0559092645199,1,['num_1'],0,[0.9064009357098257],,,,,,,,,2018_Apr_28_1701,60.0405689,sequenceLearningTask,001,085,
min1.png,min2.png,min3.png,min4.png,allBlank.png,,,,['num_4'],,,,,,0,7,7,7,,,,,,,,,,,,,,,,,['num_4'],8,0.052724858182,1,['num_4'],0,[0.8082308001248748],,,,,,,,,2018_Apr_28_1701,60.0405689,sequenceLearningTask,001,085,
min1.png,min2.png,min3.png,min4.png,allBlank.png,,,,['num_0'],,,,,,0,7,7,7,,,,,,,,,,,,,,,,,['num_0'],8,0.062022077509,1,['num_0'],0,[0.5154295194734004],,,,,,,,,2018_Apr_28_1701,60.0405689,sequenceLearningTask,001,085,
min1.png,min2.png,min3.png,min4.png,allBlank.png,,,,['num_0'],,,,,,0,7,7,7,,,,,,,,,,,,,,,,,['num_0'],8,0.0610747966239,1,['num_0'],0,[0.7829340107455209],,,,,,,,,2018_Apr_28_1701,60.0405689,sequenceLearningTask,001,085,
min1.png,min2.png,min3.png,min4.png,allBlank.png,,,,['num_4'],,,,,,0,7,7,7,,,,,,,,,,,,,,,,,['num_4'],8,0.0567511096378,0,"['num_7', 'num_4']",0,"[0.8719062089367071, 1.4046715019430849]",,,,,,,,,2018_Apr_28_1701,60.0405689,sequenceLearningTask,001,085,
min1.png,min2.png,min3.png,min4.png,allBlank.png,,,,['num_1'],,,,,,0,7,7,7,,,,,,,,,,,,,,,,,['num_1'],8,0.0523059869047,1,['num_1'],0,[1.125740563191357],,,,,,,,,2018_Apr_28_1701,60.0405689,sequenceLearningTask,001,085,
min1.png,min2.png,min3.png,min4.png,allBlank.png,,,,['num_0'],,,,,,0,7,7,7,,,,,,,,,,,,,,,,,['num_0'],8,0.0617599239886,1,['num_0'],0,[0.8470278805834823],,,,,,,,,2018_Apr_28_1701,60.0405689,sequenceLearningTask,001,085,
min1.png,min2.png,min3.png,min4.png,allBlank.png,,,,['num_7'],,,,,,0,8,8,8,,,,,,,,,,,,,,,,,['num_7'],9,0.050059835823,1,['num_7'],0,[0.8765043571220303],,,,,,,,,2018_Apr_28_1701,60.0405689,sequenceLearningTask,001,085,
min1.png,min2.png,min3.png,min4.png,allBlank.png,,,,['num_1'],,,,,,0,8,8,8,,,,,,,,,,,,,,,,,['num_1'],9,0.051588039074,1,['num_1'],0,[1.0101731156828464],,,,,,,,,2018_Apr_28_1701,60.0405689,sequenceLearningTask,001,085,
min1.png,min2.png,min3.png,min4.png,allBlank.png,,,,['num_4'],,,,,,0,8,8,8,,,,,,,,,,,,,,,,,['num_4'],9,0.0460959432639,1,['num_4'],0,[0.8819488632434513],,,,,,,,,2018_Apr_28_1701,60.0405689,sequenceLearningTask,001,085,
min1.png,min2.png,min3.png,min4.png,allBlank.png,,,,['num_0'],,,,,,0,8,8,8,,,,,,,,,,,,,,,,,['num_0'],9,0.0509435270469,1,['num_0'],0,[0.4952289289503824],,,,,,,,,2018_Apr_28_1701,60.0405689,sequenceLearningTask,001,085,
min1.png,min2.png,min3.png,min4.png,allBlank.png,,,,['num_0'],,,,,,0,8,8,8,,,,,,,,,,,,,,,,,['num_0'],9,0.0511921421203,1,['num_0'],0,[0.8764813827910984],,,,,,,,,2018_Apr_28_1701,60.0405689,sequenceLearningTask,001,085,
min1.png,min2.png,min3.png,min4.png,allBlank.png,,,,['num_4'],,,,,,0,8,8,8,,,,,,,,,,,,,,,,,['num_4'],9,0.0531014731059,1,['num_4'],0,[1.3917947998452291],,,,,,,,,2018_Apr_28_1701,60.0405689,sequenceLearningTask,001,085,
min1.png,min2.png,min3.png,min4.png,allBlank.png,,,,['num_1'],,,,,,0,8,8,8,,,,,,,,,,,,,,,,,['num_1'],9,0.0543962407464,1,['num_1'],0,[0.8235846273855714],,,,,,,,,2018_Apr_28_1701,60.0405689,sequenceLearningTask,001,085,
min1.png,min2.png,min3.png,min4.png,allBlank.png,,,,['num_0'],,,,,,0,8,8,8,,,,,,,,,,,,,,,,,['num_0'],9,0.0524947046215,1,['num_0'],0,[0.8423862452691537],,,,,,,,,2018_Apr_28_1701,60.0405689,sequenceLearningTask,001,085,
min1.png,min2.png,min3.png,min4.png,allBlank.png,,,,['num_7'],,,,,,0,9,9,9,,,,,,,,,,,,,,,,,['num_7'],10,0.047453480056,0,"['num_4', 'num_7']",0,"[1.0118760879486217, 1.5454130723119306]",,,,,,,,,2018_Apr_28_1701,60.0405689,sequenceLearningTask,001,085,
min1.png,min2.png,min3.png,min4.png,allBlank.png,,,,['num_1'],,,,,,0,9,9,9,,,,,,,,,,,,,,,,,['num_1'],10,0.0525521404488,1,['num_1'],0,[0.8253983687427535],,,,,,,,,2018_Apr_28_1701,60.0405689,sequenceLearningTask,001,085,
min1.png,min2.png,min3.png,min4.png,allBlank.png,,,,['num_4'],,,,,,0,9,9,9,,,,,,,,,,,,,,,,,['num_4'],10,0.0626136665269,0,"['num_0', 'num_4']",0,"[0.38120363339112373, 1.464636966600665]",,,,,,,,,2018_Apr_28_1701,60.0405689,sequenceLearningTask,001,085,
min1.png,min2.png,min3.png,min4.png,allBlank.png,,,,['num_0'],,,,,,0,9,9,9,,,,,,,,,,,,,,,,,['num_0'],10,0.0565537765469,1,['num_0'],0,[0.8709515434420609],,,,,,,,,2018_Apr_28_1701,60.0405689,sequenceLearningTask,001,085,
min1.png,min2.png,min3.png,min4.png,allBlank.png,,,,['num_0'],,,,,,0,9,9,9,,,,,,,,,,,,,,,,,['num_0'],10,0.0610768479019,1,['num_0'],0,[0.6998760616879736],,,,,,,,,2018_Apr_28_1701,60.0405689,sequenceLearningTask,001,085,
min1.png,min2.png,min3.png,min4.png,allBlank.png,,,,['num_4'],,,,,,0,9,9,9,,,,,,,,,,,,,,,,,['num_4'],10,0.0516930645827,1,['num_4'],0,[1.2259874141709588],,,,,,,,,2018_Apr_28_1701,60.0405689,sequenceLearningTask,001,085,
min1.png,min2.png,min3.png,min4.png,allBlank.png,,,,['num_1'],,,,,,0,9,9,9,,,,,,,,,,,,,,,,,['num_1'],10,0.056176341117,1,['num_1'],0,[0.8388605060172267],,,,,,,,,2018_Apr_28_1701,60.0405689,sequenceLearningTask,001,085,
min1.png,min2.png,min3.png,min4.png,allBlank.png,,,,['num_0'],,,,,,0,9,9,9,,,,,,,,,,,,,,,,,['num_0'],10,0.0602838232408,1,['num_0'],0,[0.5337117533817946],,,,,,,,,2018_Apr_28_1701,60.0405689,sequenceLearningTask,001,085,
min1.png,min2.png,min3.png,min4.png,allBlank.png,,,,['num_7'],,,,,,0,0,0,0,,,,,,,,,,,,,,,,,['num_7'],1,0.0701012470527,1,['num_7'],0,[1.1574672933711554],,,,,,,,,2018_Apr_28_1701,60.0405689,sequenceLearningTask,001,085,
min1.png,min2.png,min3.png,min4.png,allBlank.png,,,,['num_1'],,,,,,0,0,0,0,,,,,,,,,,,,,,,,,['num_1'],1,0.0514054751948,1,['num_1'],0,[0.7600007056425966],,,,,,,,,2018_Apr_28_1701,60.0405689,sequenceLearningTask,001,085,
min1.png,min2.png,min3.png,min4.png,allBlank.png,,,,['num_4'],,,,,,0,0,0,0,,,,,,,,,,,,,,,,,['num_4'],1,0.0618058726504,1,['num_4'],0,[0.9488254988791596],,,,,,,,,2018_Apr_28_1701,60.0405689,sequenceLearningTask,001,085,
min1.png,min2.png,min3.png,min4.png,allBlank.png,,,,['num_0'],,,,,,0,0,0,0,,,,,,,,,,,,,,,,,['num_0'],1,0.0515293724748,1,['num_0'],0,[0.6430396188225131],,,,,,,,,2018_Apr_28_1701,60.0405689,sequenceLearningTask,001,085,
min1.png,min2.png,min3.png,min4.png,allBlank.png,,,,['num_0'],,,,,,0,0,0,0,,,,,,,,,,,,,,,,,['num_0'],1,0.0586095688886,1,['num_0'],0,[0.5691439149013604],,,,,,,,,2018_Apr_28_1701,60.0405689,sequenceLearningTask,001,085,
min1.png,min2.png,min3.png,min4.png,allBlank.png,,,,['num_4'],,,,,,0,0,0,0,,,,,,,,,,,,,,,,,['num_4'],1,0.0631917170977,1,['num_4'],0,[1.297342813526484],,,,,,,,,2018_Apr_28_1701,60.0405689,sequenceLearningTask,001,085,
min1.png,min2.png,min3.png,min4.png,allBlank.png,,,,['num_1'],,,,,,0,0,0,0,,,,,,,,,,,,,,,,,['num_1'],1,0.0503576816118,1,['num_1'],0,[0.7114173808186024],,,,,,,,,2018_Apr_28_1701,60.0405689,sequenceLearningTask,001,085,
min1.png,min2.png,min3.png,min4.png,allBlank.png,,,,['num_0'],,,,,,0,0,0,0,,,,,,,,,,,,,,,,,['num_0'],1,0.0526538839113,1,['num_0'],0,[0.5762758035598381],,,,,,,,,2018_Apr_28_1701,60.0405689,sequenceLearningTask,001,085,
min1.png,min2.png,min3.png,min4.png,allBlank.png,,,,['num_7'],,,,,,0,1,1,1,,,,,,,,,,,,,,,,,['num_7'],2,0.0532848574985,1,['num_7'],0,[0.7906927704279951],,,,,,,,,2018_Apr_28_1701,60.0405689,sequenceLearningTask,001,085,
min1.png,min2.png,min3.png,min4.png,allBlank.png,,,,['num_1'],,,,,,0,1,1,1,,,,,,,,,,,,,,,,,['num_1'],2,0.0528282426749,1,['num_1'],0,[0.7750193538231542],,,,,,,,,2018_Apr_28_1701,60.0405689,sequenceLearningTask,001,085,
min1.png,min2.png,min3.png,min4.png,allBlank.png,,,,['num_4'],,,,,,0,1,1,1,,,,,,,,,,,,,,,,,['num_4'],2,0.0561701872757,1,['num_4'],0,[0.887667830560531],,,,,,,,,2018_Apr_28_1701,60.0405689,sequenceLearningTask,001,085,
min1.png,min2.png,min3.png,min4.png,allBlank.png,,,,['num_0'],,,,,,0,1,1,1,,,,,,,,,,,,,,,,,['num_0'],2,0.059598695876,1,['num_0'],0,[0.6189387254089525],,,,,,,,,2018_Apr_28_1701,60.0405689,sequenceLearningTask,001,085,
min1.png,min2.png,min3.png,min4.png,allBlank.png,,,,['num_0'],,,,,,0,1,1,1,,,,,,,,,,,,,,,,,['num_0'],2,0.058363825603,1,['num_0'],0,[0.7188290640042396],,,,,,,,,2018_Apr_28_1701,60.0405689,sequenceLearningTask,001,085,
min1.png,min2.png,min3.png,min4.png,allBlank.png,,,,['num_4'],,,,,,0,1,1,1,,,,,,,,,,,,,,,,,['num_4'],2,0.0509619885597,1,['num_4'],0,[0.9273289099510293],,,,,,,,,2018_Apr_28_1701,60.0405689,sequenceLearningTask,001,085,
min1.png,min2.png,min3.png,min4.png,allBlank.png,,,,['num_1'],,,,,,0,1,1,1,,,,,,,,,,,,,,,,,['num_1'],2,0.0478218898606,1,['num_1'],0,[0.7146838383378054],,,,,,,,,2018_Apr_28_1701,60.0405689,sequenceLearningTask,001,085,
min1.png,min2.png,min3.png,min4.png,allBlank.png,,,,['num_0'],,,,,,0,1,1,1,,,,,,,,,,,,,,,,,['num_0'],2,0.0602165412711,1,['num_0'],0,[0.534267650131369],,,,,,,,,2018_Apr_28_1701,60.0405689,sequenceLearningTask,001,085,
min1.png,min2.png,min3.png,min4.png,allBlank.png,,,,['num_7'],,,,,,0,2,2,2,,,,,,,,,,,,,,,,,['num_7'],3,0.0545324457053,1,['num_7'],0,[0.8214726299847825],,,,,,,,,2018_Apr_28_1701,60.0405689,sequenceLearningTask,001,085,
min1.png,min2.png,min3.png,min4.png,allBlank.png,,,,['num_1'],,,,,,0,2,2,2,,,,,,,,,,,,,,,,,['num_1'],3,0.0530924474733,1,['num_1'],0,[0.9411783288051083],,,,,,,,,2018_Apr_28_1701,60.0405689,sequenceLearningTask,001,085,
min1.png,min2.png,min3.png,min4.png,allBlank.png,,,,['num_4'],,,,,,0,2,2,2,,,,,,,,,,,,,,,,,['num_4'],3,0.0527150120433,1,['num_4'],0,[0.860345607779891],,,,,,,,,2018_Apr_28_1701,60.0405689,sequenceLearningTask,001,085,
min1.png,min2.png,min3.png,min4.png,allBlank.png,,,,['num_0'],,,,,,0,2,2,2,,,,,,,,,,,,,,,,,['num_0'],3,0.0517439363139,1,['num_0'],0,[0.9255159891072253],,,,,,,,,2018_Apr_28_1701,60.0405689,sequenceLearningTask,001,085,
min1.png,min2.png,min3.png,min4.png,allBlank.png,,,,['num_0'],,,,,,0,2,2,2,,,,,,,,,,,,,,,,,['num_0'],3,0.0554912137522,1,['num_0'],0,[0.7555301470383711],,,,,,,,,2018_Apr_28_1701,60.0405689,sequenceLearningTask,001,085,
min1.png,min2.png,min3.png,min4.png,allBlank.png,,,,['num_4'],,,,,,0,2,2,2,,,,,,,,,,,,,,,,,['num_4'],3,0.054859009404,1,['num_4'],0,[1.1566594994947081],,,,,,,,,2018_Apr_28_1701,60.0405689,sequenceLearningTask,001,085,
min1.png,min2.png,min3.png,min4.png,allBlank.png,,,,['num_1'],,,,,,0,2,2,2,,,,,,,,,,,,,,,,,['num_1'],3,0.0574657754296,1,['num_1'],0,[0.7516409210584243],,,,,,,,,2018_Apr_28_1701,60.0405689,sequenceLearningTask,001,085,
min1.png,min2.png,min3.png,min4.png,allBlank.png,,,,['num_0'],,,,,,0,2,2,2,,,,,,,,,,,,,,,,,['num_0'],3,0.0518079362337,1,['num_0'],0,[0.5259201732260408],,,,,,,,,2018_Apr_28_1701,60.0405689,sequenceLearningTask,001,085,
min1.png,min2.png,min3.png,min4.png,allBlank.png,,,,['num_7'],,,,,,0,3,3,3,,,,,,,,,,,,,,,,,['num_7'],4,0.0522358331473,1,['num_7'],0,[13.506647991816862],,,,,,,,,2018_Apr_28_1701,60.0405689,sequenceLearningTask,001,085,
min1.png,min2.png,min3.png,min4.png,allBlank.png,,,,['num_1'],,,,,,0,3,3,3,,,,,,,,,,,,,,,,,['num_1'],4,0.0525135763928,1,['num_1'],0,[0.9924668810672301],,,,,,,,,2018_Apr_28_1701,60.0405689,sequenceLearningTask,001,085,
min1.png,min2.png,min3.png,min4.png,allBlank.png,,,,['num_4'],,,,,,0,3,3,3,,,,,,,,,,,,,,,,,['num_4'],4,0.0573943909003,1,['num_4'],0,[0.9524222124055086],,,,,,,,,2018_Apr_28_1701,60.0405689,sequenceLearningTask,001,085,
min1.png,min2.png,min3.png,min4.png,allBlank.png,,,,['num_0'],,,,,,0,3,3,3,,,,,,,,,,,,,,,,,['num_0'],4,0.0512130651732,1,['num_0'],0,[0.7603596795597696],,,,,,,,,2018_Apr_28_1701,60.0405689,sequenceLearningTask,001,085,
min1.png,min2.png,min3.png,min4.png,allBlank.png,,,,['num_0'],,,,,,0,3,3,3,,,,,,,,,,,,,,,,,['num_0'],4,0.0491814779307,0,"['num_1', 'num_0']",0,"[3.3125912050127226, 3.678942343864037]",,,,,,,,,2018_Apr_28_1701,60.0405689,sequenceLearningTask,001,085,
min1.png,min2.png,min3.png,min4.png,allBlank.png,,,,['num_4'],,,,,,0,3,3,3,,,,,,,,,,,,,,,,,['num_4'],4,0.0614784884347,1,['num_4'],0,[1.5000088205015345],,,,,,,,,2018_Apr_28_1701,60.0405689,sequenceLearningTask,001,085,
min1.png,min2.png,min3.png,min4.png,allBlank.png,,,,['num_1'],,,,,,0,3,3,3,,,,,,,,,,,,,,,,,['num_1'],4,0.0536663954881,1,['num_1'],0,[0.7917467178522202],,,,,,,,,2018_Apr_28_1701,60.0405689,sequenceLearningTask,001,085,
min1.png,min2.png,min3.png,min4.png,allBlank.png,,,,['num_0'],,,,,,0,3,3,3,,,,,,,,,,,,,,,,,['num_0'],4,0.0548741888742,1,['num_0'],0,[0.8224223724064359],,,,,,,,,2018_Apr_28_1701,60.0405689,sequenceLearningTask,001,085,
min1.png,min2.png,min3.png,min4.png,allBlank.png,,,,['num_7'],,,,,,0,4,4,4,,,,,,,,,,,,,,,,,['num_7'],5,0.0491544010401,1,['num_7'],0,[1.0612741809964064],,,,,,,,,2018_Apr_28_1701,60.0405689,sequenceLearningTask,001,085,
min1.png,min2.png,min3.png,min4.png,allBlank.png,,,,['num_1'],,,,,,0,4,4,4,,,,,,,,,,,,,,,,,['num_1'],5,0.0534346009008,1,['num_1'],0,[0.9409219188637508],,,,,,,,,2018_Apr_28_1701,60.0405689,sequenceLearningTask,001,085,
min1.png,min2.png,min3.png,min4.png,allBlank.png,,,,['num_4'],,,,,,0,4,4,4,,,,,,,,,,,,,,,,,['num_4'],5,0.0577143905066,1,['num_4'],0,[1.536498211491562],,,,,,,,,2018_Apr_28_1701,60.0405689,sequenceLearningTask,001,085,
min1.png,min2.png,min3.png,min4.png,allBlank.png,,,,['num_0'],,,,,,0,4,4,4,,,,,,,,,,,,,,,,,['num_0'],5,0.0522858843651,1,['num_0'],0,[0.8088059789079125],,,,,,,,,2018_Apr_28_1701,60.0405689,sequenceLearningTask,001,085,
min1.png,min2.png,min3.png,min4.png,allBlank.png,,,,['num_0'],,,,,,0,4,4,4,,,,,,,,,,,,,,,,,['num_0'],5,0.0572676218253,1,['num_0'],0,[0.7867920572789444],,,,,,,,,2018_Apr_28_1701,60.0405689,sequenceLearningTask,001,085,
min1.png,min2.png,min3.png,min4.png,allBlank.png,,,,['num_4'],,,,,,0,4,4,4,,,,,,,,,,,,,,,,,['num_4'],5,0.0577086469239,1,['num_4'],0,[1.1200749291383545],,,,,,,,,2018_Apr_28_1701,60.0405689,sequenceLearningTask,001,085,
min1.png,min2.png,min3.png,min4.png,allBlank.png,,,,['num_1'],,,,,,0,4,4,4,,,,,,,,,,,,,,,,,['num_1'],5,0.0556249571782,1,['num_1'],0,[0.8708859025027778],,,,,,,,,2018_Apr_28_1701,60.0405689,sequenceLearningTask,001,085,
min1.png,min2.png,min3.png,min4.png,allBlank.png,,,,['num_0'],,,,,,0,4,4,4,,,,,,,,,,,,,,,,,['num_0'],5,0.0546538814524,1,['num_0'],0,[0.7565545560355531],,,,,,,,,2018_Apr_28_1701,60.0405689,sequenceLearningTask,001,085,
min1.png,min2.png,min3.png,min4.png,allBlank.png,,,,['num_7'],,,,,,0,5,5,5,,,,,,,,,,,,,,,,,['num_7'],6,0.0510785012375,1,['num_7'],0,[0.9252349638154556],,,,,,,,,2018_Apr_28_1701,60.0405689,sequenceLearningTask,001,085,
min1.png,min2.png,min3.png,min4.png,allBlank.png,,,,['num_1'],,,,,,0,5,5,5,,,,,,,,,,,,,,,,,['num_1'],6,0.0523941919237,1,['num_1'],0,[1.242504316916893],,,,,,,,,2018_Apr_28_1701,60.0405689,sequenceLearningTask,001,085,
min1.png,min2.png,min3.png,min4.png,allBlank.png,,,,['num_4'],,,,,,0,5,5,5,,,,,,,,,,,,,,,,,['num_4'],6,0.0519223976371,1,['num_4'],0,[0.9260329115495551],,,,,,,,,2018_Apr_28_1701,60.0405689,sequenceLearningTask,001,085,
min1.png,min2.png,min3.png,min4.png,allBlank.png,,,,['num_0'],,,,,,0,5,5,5,,,,,,,,,,,,,,,,,['num_0'],6,0.0584762357212,1,['num_0'],0,[0.7850685722260096],,,,,,,,,2018_Apr_28_1701,60.0405689,sequenceLearningTask,001,085,
min1.png,min2.png,min3.png,min4.png,allBlank.png,,,,['num_0'],,,,,,0,5,5,5,,,,,,,,,,,,,,,,,['num_0'],6,0.0577480314896,1,['num_0'],0,[0.7863489809060411],,,,,,,,,2018_Apr_28_1701,60.0405689,sequenceLearningTask,001,085,
min1.png,min2.png,min3.png,min4.png,allBlank.png,,,,['num_4'],,,,,,0,5,5,5,,,,,,,,,,,,,,,,,['num_4'],6,0.0550149066476,1,['num_4'],0,[1.2732808944238059],,,,,,,,,2018_Apr_28_1701,60.0405689,sequenceLearningTask,001,085,
min1.png,min2.png,min3.png,min4.png,allBlank.png,,,,['num_1'],,,,,,0,5,5,5,,,,,,,,,,,,,,,,,['num_1'],6,0.054246087082,1,['num_1'],0,[0.6892799721681513],,,,,,,,,2018_Apr_28_1701,60.0405689,sequenceLearningTask,001,085,
min1.png,min2.png,min3.png,min4.png,allBlank.png,,,,['num_0'],,,,,,0,5,5,5,,,,,,,,,,,,,,,,,['num_0'],6,0.0577829032445,1,['num_0'],0,[0.537234210583847],,,,,,,,,2018_Apr_28_1701,60.0405689,sequenceLearningTask,001,085,
min1.png,min2.png,min3.png,min4.png,allBlank.png,,,,['num_7'],,,,,,0,6,6,6,,,,,,,,,,,,,,,,,['num_7'],7,0.0497102977897,1,['num_7'],0,[1.8270328282669652],,,,,,,,,2018_Apr_28_1701,60.0405689,sequenceLearningTask,001,085,
min1.png,min2.png,min3.png,min4.png,allBlank.png,,,,['num_1'],,,,,,0,6,6,6,,,,,,,,,,,,,,,,,['num_1'],7,0.0556668032805,1,['num_1'],0,[0.9736271093825053],,,,,,,,,2018_Apr_28_1701,60.0405689,sequenceLearningTask,001,085,
min1.png,min2.png,min3.png,min4.png,allBlank.png,,,,['num_4'],,,,,,0,6,6,6,,,,,,,,,,,,,,,,,['num_4'],7,0.0558296748786,1,['num_4'],0,[0.7884289783432905],,,,,,,,,2018_Apr_28_1701,60.0405689,sequenceLearningTask,001,085,
min1.png,min2.png,min3.png,min4.png,allBlank.png,,,,['num_0'],,,,,,0,6,6,6,,,,,,,,,,,,,,,,,['num_0'],7,0.0546239327705,1,['num_0'],0,[0.6561481155076763],,,,,,,,,2018_Apr_28_1701,60.0405689,sequenceLearningTask,001,085,
min1.png,min2.png,min3.png,min4.png,allBlank.png,,,,['num_0'],,,,,,0,6,6,6,,,,,,,,,,,,,,,,,['num_0'],7,0.0591593118043,1,['num_0'],0,[0.6993693956464995],,,,,,,,,2018_Apr_28_1701,60.0405689,sequenceLearningTask,001,085,
min1.png,min2.png,min3.png,min4.png,allBlank.png,,,,['num_4'],,,,,,0,6,6,6,,,,,,,,,,,,,,,,,['num_4'],7,0.0576425957224,1,['num_4'],0,[1.0545217790495371],,,,,,,,,2018_Apr_28_1701,60.0405689,sequenceLearningTask,001,085,
min1.png,min2.png,min3.png,min4.png,allBlank.png,,,,['num_1'],,,,,,0,6,6,6,,,,,,,,,,,,,,,,,['num_1'],7,0.0527256786991,1,['num_1'],0,[0.8255333429333405],,,,,,,,,2018_Apr_28_1701,60.0405689,sequenceLearningTask,001,085,
min1.png,min2.png,min3.png,min4.png,allBlank.png,,,,['num_0'],,,,,,0,6,6,6,,,,,,,,,,,,,,,,,['num_0'],7,0.0529747040309,1,['num_0'],0,[0.8753527687986207],,,,,,,,,2018_Apr_28_1701,60.0405689,sequenceLearningTask,001,085,
min1.png,min2.png,min3.png,min4.png,allBlank.png,,,,['num_7'],,,,,,0,7,7,7,,,,,,,,,,,,,,,,,['num_7'],8,0.0557603416273,1,['num_7'],0,[0.5693970427928434],,,,,,,,,2018_Apr_28_1701,60.0405689,sequenceLearningTask,001,085,
min1.png,min2.png,min3.png,min4.png,allBlank.png,,,,['num_1'],,,,,,0,7,7,7,,,,,,,,,,,,,,,,,['num_1'],8,0.0559572644634,1,['num_1'],0,[0.8730233357637189],,,,,,,,,2018_Apr_28_1701,60.0405689,sequenceLearningTask,001,085,
min1.png,min2.png,min3.png,min4.png,allBlank.png,,,,['num_4'],,,,,,0,7,7,7,,,,,,,,,,,,,,,,,['num_4'],8,0.0477357361196,1,['num_4'],0,[0.6799647015795927],,,,,,,,,2018_Apr_28_1701,60.0405689,sequenceLearningTask,001,085,
min1.png,min2.png,min3.png,min4.png,allBlank.png,,,,['num_0'],,,,,,0,7,7,7,,,,,,,,,,,,,,,,,['num_0'],8,0.0616487446387,1,['num_0'],0,[1.348832391180622],,,,,,,,,2018_Apr_28_1701,60.0405689,sequenceLearningTask,001,085,
min1.png,min2.png,min3.png,min4.png,allBlank.png,,,,['num_0'],,,,,,0,7,7,7,,,,,,,,,,,,,,,,,['num_0'],8,0.0525484481477,1,['num_0'],0,[0.6745722979612765],,,,,,,,,2018_Apr_28_1701,60.0405689,sequenceLearningTask,001,085,
min1.png,min2.png,min3.png,min4.png,allBlank.png,,,,['num_4'],,,,,,0,7,7,7,,,,,,,,,,,,,,,,,['num_4'],8,0.0534354214142,0,"['num_7', 'num_4']",0,"[0.9073761139989074, 1.7423949837175314]",,,,,,,,,2018_Apr_28_1701,60.0405689,sequenceLearningTask,001,085,
min1.png,min2.png,min3.png,min4.png,allBlank.png,,,,['num_1'],,,,,,0,7,7,7,,,,,,,,,,,,,,,,,['num_1'],8,0.0573870062944,0,"['num_4', 'num_4', 'num_1']",0,"[2.0717094502033433, 3.2874096975465363, 3.6375257794534264]",,,,,,,,,2018_Apr_28_1701,60.0405689,sequenceLearningTask,001,085,
min1.png,min2.png,min3.png,min4.png,allBlank.png,,,,['num_0'],,,,,,0,7,7,7,,,,,,,,,,,,,,,,,['num_0'],8,0.0584676203471,1,['num_0'],0,[0.8528658221111982],,,,,,,,,2018_Apr_28_1701,60.0405689,sequenceLearningTask,001,085,
min1.png,min2.png,min3.png,min4.png,allBlank.png,,,,['num_7'],,,,,,0,8,8,8,,,,,,,,,,,,,,,,,['num_7'],9,0.057162596313,1,['num_7'],0,[1.269414642771153],,,,,,,,,2018_Apr_28_1701,60.0405689,sequenceLearningTask,001,085,
min1.png,min2.png,min3.png,min4.png,allBlank.png,,,,['num_1'],,,,,,0,8,8,8,,,,,,,,,,,,,,,,,['num_1'],9,0.0567379814493,1,['num_1'],0,[0.9382248965412145],,,,,,,,,2018_Apr_28_1701,60.0405689,sequenceLearningTask,001,085,
min1.png,min2.png,min3.png,min4.png,allBlank.png,,,,['num_4'],,,,,,0,8,8,8,,,,,,,,,,,,,,,,,['num_4'],9,0.0555950084999,1,['num_4'],0,[1.1230394383092062],,,,,,,,,2018_Apr_28_1701,60.0405689,sequenceLearningTask,001,085,
min1.png,min2.png,min3.png,min4.png,allBlank.png,,,,['num_0'],,,,,,0,8,8,8,,,,,,,,,,,,,,,,,['num_0'],9,0.0517008594434,1,['num_0'],0,[0.826236931810854],,,,,,,,,2018_Apr_28_1701,60.0405689,sequenceLearningTask,001,085,
min1.png,min2.png,min3.png,min4.png,allBlank.png,,,,['num_0'],,,,,,0,8,8,8,,,,,,,,,,,,,,,,,['num_0'],9,0.0538981900718,1,['num_0'],0,[0.8743287700563087],,,,,,,,,2018_Apr_28_1701,60.0405689,sequenceLearningTask,001,085,
min1.png,min2.png,min3.png,min4.png,allBlank.png,,,,['num_4'],,,,,,0,8,8,8,,,,,,,,,,,,,,,,,['num_4'],9,0.0569989042087,1,['num_4'],0,[1.2702630519852391],,,,,,,,,2018_Apr_28_1701,60.0405689,sequenceLearningTask,001,085,
min1.png,min2.png,min3.png,min4.png,allBlank.png,,,,['num_1'],,,,,,0,8,8,8,,,,,,,,,,,,,,,,,['num_1'],9,0.0580590054633,1,['num_1'],0,[1.0196090015051595],,,,,,,,,2018_Apr_28_1701,60.0405689,sequenceLearningTask,001,085,
min1.png,min2.png,min3.png,min4.png,allBlank.png,,,,['num_0'],,,,,,0,8,8,8,,,,,,,,,,,,,,,,,['num_0'],9,0.0605775664699,1,['num_0'],0,[0.5151493146877328],,,,,,,,,2018_Apr_28_1701,60.0405689,sequenceLearningTask,001,085,
min1.png,min2.png,min3.png,min4.png,allBlank.png,,,,['num_7'],,,,,,0,9,9,9,,,,,,,,,,,,,,,,,['num_7'],10,0.0604778742854,1,['num_7'],0,[0.9656829140330956],,,,,,,,,2018_Apr_28_1701,60.0405689,sequenceLearningTask,001,085,
min1.png,min2.png,min3.png,min4.png,allBlank.png,,,,['num_1'],,,,,,0,9,9,9,,,,,,,,,,,,,,,,,['num_1'],10,0.0606899765844,1,['num_1'],0,[1.1184802644347656],,,,,,,,,2018_Apr_28_1701,60.0405689,sequenceLearningTask,001,085,
min1.png,min2.png,min3.png,min4.png,allBlank.png,,,,['num_4'],,,,,,0,9,9,9,,,,,,,,,,,,,,,,,['num_4'],10,0.051435423873,1,['num_4'],0,[0.8437080897929263],,,,,,,,,2018_Apr_28_1701,60.0405689,sequenceLearningTask,001,085,
min1.png,min2.png,min3.png,min4.png,allBlank.png,,,,['num_0'],,,,,,0,9,9,9,,,,,,,,,,,,,,,,,['num_0'],10,0.0609135660561,1,['num_0'],0,[0.6170925738369988],,,,,,,,,2018_Apr_28_1701,60.0405689,sequenceLearningTask,001,085,
min1.png,min2.png,min3.png,min4.png,allBlank.png,,,,['num_0'],,,,,,0,9,9,9,,,,,,,,,,,,,,,,,['num_0'],10,0.0529406527894,1,['num_0'],0,[0.6573985755094327],,,,,,,,,2018_Apr_28_1701,60.0405689,sequenceLearningTask,001,085,
min1.png,min2.png,min3.png,min4.png,allBlank.png,,,,['num_4'],,,,,,0,9,9,9,,,,,,,,,,,,,,,,,['num_4'],10,0.0598239263709,1,['num_4'],0,[1.8689609817920427],,,,,,,,,2018_Apr_28_1701,60.0405689,sequenceLearningTask,001,085,
min1.png,min2.png,min3.png,min4.png,allBlank.png,,,,['num_1'],,,,,,0,9,9,9,,,,,,,,,,,,,,,,,['num_1'],10,0.0552811627313,1,['num_1'],0,[0.8728124642293551],,,,,,,,,2018_Apr_28_1701,60.0405689,sequenceLearningTask,001,085,
min1.png,min2.png,min3.png,min4.png,allBlank.png,,,,['num_0'],,,,,,0,9,9,9,,,,,,,,,,,,,,,,,['num_0'],10,0.0577193135759,1,['num_0'],0,[0.6204886722189258],,,,,,,,,2018_Apr_28_1701,60.0405689,sequenceLearningTask,001,085,
min1.png,min2.png,min3.png,min4.png,images/allBlank.png,images/min3.png,'num_1',"['num_7', 'num_4', 'num_1', 'num_0']",['num_1'],num_1,,,,,0,9,9,9,0,0,0,2,,,,,,,,,,,,,['num_1'],,0.0564237254293,0,"['num_4', 'num_1']",0,"[1.050413066161127, 1.4997302567426232]",0,,,,,,,,2018_Apr_28_1701,60.0405689,sequenceLearningTask,001,085,
min1.png,min2.png,min3.png,min4.png,images/allBlank.png,images/min2.png,'num_4',"['num_7', 'num_4', 'num_1', 'num_0']",['num_4'],num_4,,,,,0,9,9,9,0,1,1,1,,,,,,,,,,,,,['num_4'],,0.0586858764873,1,['num_4'],0,[0.8843652705254499],1,,,,,,,,2018_Apr_28_1701,60.0405689,sequenceLearningTask,001,085,
min1.png,min2.png,min3.png,min4.png,images/allBlank.png,images/min4.png,'num_0',"['num_7', 'num_4', 'num_1', 'num_0']",['num_0'],num_0,,,,,0,9,9,9,0,2,2,3,,,,,,,,,,,,,['num_0'],,0.0537427030868,1,['num_0'],0,[0.7557656339304231],1,,,,,,,,2018_Apr_28_1701,60.0405689,sequenceLearningTask,001,085,
min1.png,min2.png,min3.png,min4.png,images/allBlank.png,images/min1.png,'num_7',"['num_7', 'num_4', 'num_1', 'num_0']",['num_7'],num_7,,,,,0,9,9,9,0,3,3,0,,,,,,,,,,,,,['num_7'],,0.0527022941096,1,['num_7'],0,[2.856984381145594],1,,,,,,,,2018_Apr_28_1701,60.0405689,sequenceLearningTask,001,085,
min1.png,min2.png,min3.png,min4.png,images/allBlank.png,images/min4.png,'num_0',"['num_7', 'num_4', 'num_1', 'num_0']",['num_0'],num_0,,,,,0,9,9,9,1,0,4,3,,,,,,,,,,,,,['num_0'],,0.0515154237764,1,['num_0'],0,[0.7411945749408915],1,,,,,,,,2018_Apr_28_1701,60.0405689,sequenceLearningTask,001,085,
min1.png,min2.png,min3.png,min4.png,images/allBlank.png,images/min2.png,'num_4',"['num_7', 'num_4', 'num_1', 'num_0']",['num_4'],num_4,,,,,0,9,9,9,1,1,5,1,,,,,,,,,,,,,['num_4'],,0.0493701956439,1,['num_4'],0,[1.51163629336952],1,,,,,,,,2018_Apr_28_1701,60.0405689,sequenceLearningTask,001,085,
min1.png,min2.png,min3.png,min4.png,images/allBlank.png,images/min3.png,'num_1',"['num_7', 'num_4', 'num_1', 'num_0']",['num_1'],num_1,,,,,0,9,9,9,1,2,6,2,,,,,,,,,,,,,['num_1'],,0.0567018789334,1,['num_1'],0,[0.5016802030586405],1,,,,,,,,2018_Apr_28_1701,60.0405689,sequenceLearningTask,001,085,
min1.png,min2.png,min3.png,min4.png,images/allBlank.png,images/min1.png,'num_7',"['num_7', 'num_4', 'num_1', 'num_0']",['num_7'],num_7,,,,,0,9,9,9,1,3,7,0,,,,,,,,,,,,,['num_7'],,0.0540901898385,1,['num_7'],0,[0.8372424567278358],1,,,,,,,,2018_Apr_28_1701,60.0405689,sequenceLearningTask,001,085,
min1.png,min2.png,min3.png,min4.png,images/allBlank.png,images/min3.png,'num_1',"['num_7', 'num_4', 'num_1', 'num_0']",['num_1'],num_1,,,,,0,9,9,9,2,0,8,2,,,,,,,,,,,,,['num_1'],,0.0537102928683,1,['num_1'],0,[0.905125860361295],1,,,,,,,,2018_Apr_28_1701,60.0405689,sequenceLearningTask,001,085,
min1.png,min2.png,min3.png,min4.png,images/allBlank.png,images/min4.png,'num_0',"['num_7', 'num_4', 'num_1', 'num_0']",['num_0'],num_0,,,,,0,9,9,9,2,1,9,3,,,,,,,,,,,,,['num_0'],,0.0581283387146,1,['num_0'],0,[0.5322992422989046],1,,,,,,,,2018_Apr_28_1701,60.0405689,sequenceLearningTask,001,085,
min1.png,min2.png,min3.png,min4.png,images/allBlank.png,images/min2.png,'num_4',"['num_7', 'num_4', 'num_1', 'num_0']",['num_4'],num_4,,,,,0,9,9,9,2,2,10,1,,,,,,,,,,,,,['num_4'],,0.0569225966101,1,['num_4'],0,[1.4862373502728587],1,,,,,,,,2018_Apr_28_1701,60.0405689,sequenceLearningTask,001,085,
min1.png,min2.png,min3.png,min4.png,images/allBlank.png,images/min1.png,'num_7',"['num_7', 'num_4', 'num_1', 'num_0']",['num_7'],num_7,,,,,0,9,9,9,2,3,11,0,,,,,,,,,,,,,['num_7'],,0.0533792163515,1,['num_7'],0,[0.9388374086120166],1,,,,,,,,2018_Apr_28_1701,60.0405689,sequenceLearningTask,001,085,
min1.png,min2.png,min3.png,min4.png,images/allBlank.png,images/min1.png,'num_7',"['num_7', 'num_4', 'num_1', 'num_0']",['num_7'],num_7,,,,,0,9,9,9,3,0,12,0,,,,,,,,,,,,,['num_7'],,0.0603863872166,0,"['num_4', 'num_7']",0,"[0.8649946277000709, 1.4329996722044598]",0,,,,,,,,2018_Apr_28_1701,60.0405689,sequenceLearningTask,001,085,
min1.png,min2.png,min3.png,min4.png,images/allBlank.png,images/min3.png,'num_1',"['num_7', 'num_4', 'num_1', 'num_0']",['num_1'],num_1,,,,,0,9,9,9,3,1,13,2,,,,,,,,,,,,,['num_1'],,0.0536011648001,1,['num_1'],0,[0.9726765464474738],1,,,,,,,,2018_Apr_28_1701,60.0405689,sequenceLearningTask,001,085,
min1.png,min2.png,min3.png,min4.png,images/allBlank.png,images/min4.png,'num_0',"['num_7', 'num_4', 'num_1', 'num_0']",['num_0'],num_0,,,,,0,9,9,9,3,2,14,3,,,,,,,,,,,,,['num_0'],,0.0531113192483,1,['num_0'],0,[0.5411907185334712],1,,,,,,,,2018_Apr_28_1701,60.0405689,sequenceLearningTask,001,085,
min1.png,min2.png,min3.png,min4.png,images/allBlank.png,images/min2.png,'num_4',"['num_7', 'num_4', 'num_1', 'num_0']",['num_4'],num_4,,,,,0,9,9,9,3,3,15,1,,,,,,,,,,,,,['num_4'],,0.0558173671998,1,['num_4'],0,[1.2879040559128043],1,,,,,,,,2018_Apr_28_1701,60.0405689,sequenceLearningTask,001,085,
min1.png,min2.png,min3.png,min4.png,images/allBlank.png,images/min1.png,'num_7',"['num_7', 'num_4', 'num_1', 'num_0']",['num_7'],num_7,,,,,0,9,9,9,4,0,16,0,,,,,,,,,,,,,['num_7'],,0.0526920377124,1,['num_7'],0,[0.8716235426181811],1,,,,,,,,2018_Apr_28_1701,60.0405689,sequenceLearningTask,001,085,
min1.png,min2.png,min3.png,min4.png,images/allBlank.png,images/min3.png,'num_1',"['num_7', 'num_4', 'num_1', 'num_0']",['num_1'],num_1,,,,,0,9,9,9,4,1,17,2,,,,,,,,,,,,,['num_1'],,0.0473484545473,1,['num_1'],0,[1.1950143240828766],1,,,,,,,,2018_Apr_28_1701,60.0405689,sequenceLearningTask,001,085,
min1.png,min2.png,min3.png,min4.png,images/allBlank.png,images/min4.png,'num_0',"['num_7', 'num_4', 'num_1', 'num_0']",['num_0'],num_0,,,,,0,9,9,9,4,2,18,3,,,,,,,,,,,,,['num_0'],,0.0565956226492,1,['num_0'],0,[0.5361326734746399],1,,,,,,,,2018_Apr_28_1701,60.0405689,sequenceLearningTask,001,085,
min1.png,min2.png,min3.png,min4.png,images/allBlank.png,images/min2.png,'num_4',"['num_7', 'num_4', 'num_1', 'num_0']",['num_4'],num_4,,,,,0,9,9,9,4,3,19,1,,,,,,,,,,,,,['num_4'],,0.0615433088678,1,['num_4'],0,[1.0213263327277673],1,,,,,,,,2018_Apr_28_1701,60.0405689,sequenceLearningTask,001,085,
min1.png,min2.png,min3.png,min4.png,images/allBlank.png,images/min4.png,'num_0',"['num_7', 'num_4', 'num_1', 'num_0']",['num_0'],num_0,,,,,0,9,9,9,5,0,20,3,,,,,,,,,,,,,['num_0'],,0.055146188537,1,['num_0'],0,[0.6880254096104181],1,,,,,,,,2018_Apr_28_1701,60.0405689,sequenceLearningTask,001,085,
min1.png,min2.png,min3.png,min4.png,images/allBlank.png,images/min1.png,'num_7',"['num_7', 'num_4', 'num_1', 'num_0']",['num_7'],num_7,,,,,0,9,9,9,5,1,21,0,,,,,,,,,,,,,['num_7'],,0.0459658921427,1,['num_7'],0,[1.0648167407380242],1,,,,,,,,2018_Apr_28_1701,60.0405689,sequenceLearningTask,001,085,
min1.png,min2.png,min3.png,min4.png,images/allBlank.png,images/min3.png,'num_1',"['num_7', 'num_4', 'num_1', 'num_0']",['num_1'],num_1,,,,,0,9,9,9,5,2,22,2,,,,,,,,,,,,,['num_1'],,0.058689568792,1,['num_1'],0,[1.2495886158903886],1,,,,,,,,2018_Apr_28_1701,60.0405689,sequenceLearningTask,001,085,
min1.png,min2.png,min3.png,min4.png,images/allBlank.png,images/min2.png,'num_4',"['num_7', 'num_4', 'num_1', 'num_0']",['num_4'],num_4,,,,,0,9,9,9,5,3,23,1,,,,,,,,,,,,,['num_4'],,0.0546953172998,1,['num_4'],0,[0.9213785583051504],1,,,,,,,,2018_Apr_28_1701,60.0405689,sequenceLearningTask,001,085,
min1.png,min2.png,min3.png,min4.png,images/allBlank.png,images/min4.png,'num_0',"['num_7', 'num_4', 'num_1', 'num_0']",['num_0'],num_0,,,,,0,9,9,9,6,0,24,3,,,,,,,,,,,,,['num_0'],,0.0605915151682,1,['num_0'],0,[0.7141271210748528],1,,,,,,,,2018_Apr_28_1701,60.0405689,sequenceLearningTask,001,085,
min1.png,min2.png,min3.png,min4.png,images/allBlank.png,images/min3.png,'num_1',"['num_7', 'num_4', 'num_1', 'num_0']",['num_1'],num_1,,,,,0,9,9,9,6,1,25,2,,,,,,,,,,,,,['num_1'],,0.0544938816493,1,['num_1'],0,[1.4697848577015975],1,,,,,,,,2018_Apr_28_1701,60.0405689,sequenceLearningTask,001,085,
min1.png,min2.png,min3.png,min4.png,images/allBlank.png,images/min2.png,'num_4',"['num_7', 'num_4', 'num_1', 'num_0']",['num_4'],num_4,,,,,0,9,9,9,6,2,26,1,,,,,,,,,,,,,['num_4'],,0.0584105947783,1,['num_4'],0,[0.817661352622963],1,,,,,,,,2018_Apr_28_1701,60.0405689,sequenceLearningTask,001,085,
min1.png,min2.png,min3.png,min4.png,images/allBlank.png,images/min1.png,'num_7',"['num_7', 'num_4', 'num_1', 'num_0']",['num_7'],num_7,,,,,0,9,9,9,6,3,27,0,,,,,,,,,,,,,['num_7'],,0.0524393200758,0,"['num_7', 'num_4', 'num_7']",0,"[0.7743563802796416, 1.5892206081407494]",0,,,,,,,,2018_Apr_28_1701,60.0405689,sequenceLearningTask,001,085,
min1.png,min2.png,min3.png,min4.png,images/allBlank.png,images/min2.png,'num_4',"['num_7', 'num_4', 'num_1', 'num_0']",['num_4'],num_4,,,,,0,9,9,9,7,0,28,1,,,,,,,,,,,,,['num_4'],,0.057951928673,1,['num_4'],0,[1.7168508100294275],1,,,,,,,,2018_Apr_28_1701,60.0405689,sequenceLearningTask,001,085,
min1.png,min2.png,min3.png,min4.png,images/allBlank.png,images/min3.png,'num_1',"['num_7', 'num_4', 'num_1', 'num_0']",['num_1'],num_1,,,,,0,9,9,9,7,1,29,2,,,,,,,,,,,,,['num_1'],,0.0564684433193,1,['num_1'],0,[0.685081413234002],1,,,,,,,,2018_Apr_28_1701,60.0405689,sequenceLearningTask,001,085,
min1.png,min2.png,min3.png,min4.png,images/allBlank.png,images/min4.png,'num_0',"['num_7', 'num_4', 'num_1', 'num_0']",['num_0'],num_0,,,,,0,9,9,9,7,2,30,3,,,,,,,,,,,,,['num_0'],,0.049843220706,1,['num_0'],0,[0.45934343465341954],1,,,,,,,,2018_Apr_28_1701,60.0405689,sequenceLearningTask,001,085,
min1.png,min2.png,min3.png,min4.png,images/allBlank.png,images/min1.png,'num_7',"['num_7', 'num_4', 'num_1', 'num_0']",['num_7'],num_7,,,,,0,9,9,9,7,3,31,0,,,,,,,,,,,,,['num_7'],,0.049605272281,1,['num_7'],0,[1.3436086027359124],1,,,,,,,,2018_Apr_28_1701,60.0405689,sequenceLearningTask,001,085,
min1.png,min2.png,min3.png,min4.png,images/allBlank.png,images/min1.png,'num_7',"['num_7', 'num_4', 'num_1', 'num_0']",['num_7'],num_7,,,,,0,9,9,9,8,0,32,0,,,,,,,,,,,,,['num_7'],,0.0603182847371,1,['num_7'],0,[0.9993263598043995],1,,,,,,,,2018_Apr_28_1701,60.0405689,sequenceLearningTask,001,085,
min1.png,min2.png,min3.png,min4.png,images/allBlank.png,images/min3.png,'num_1',"['num_7', 'num_4', 'num_1', 'num_0']",['num_1'],num_1,,,,,0,9,9,9,8,1,33,2,,,,,,,,,,,,,['num_1'],,0.0527109094874,1,['num_1'],0,[1.4738812629148015],1,,,,,,,,2018_Apr_28_1701,60.0405689,sequenceLearningTask,001,085,
min1.png,min2.png,min3.png,min4.png,images/allBlank.png,images/min2.png,'num_4',"['num_7', 'num_4', 'num_1', 'num_0']",['num_4'],num_4,,,,,0,9,9,9,8,2,34,1,,,,,,,,,,,,,['num_4'],,0.0561504949947,1,['num_4'],0,[0.8522775151432143],1,,,,,,,,2018_Apr_28_1701,60.0405689,sequenceLearningTask,001,085,
min1.png,min2.png,min3.png,min4.png,images/allBlank.png,images/min4.png,'num_0',"['num_7', 'num_4', 'num_1', 'num_0']",['num_0'],num_0,,,,,0,9,9,9,8,3,35,3,,,,,,,,,,,,,['num_0'],,0.048630914509,1,['num_0'],0,[0.6951708367123501],1,,,,,,,,2018_Apr_28_1701,60.0405689,sequenceLearningTask,001,085,
min1.png,min2.png,min3.png,min4.png,images/allBlank.png,images/min3.png,'num_1',"['num_7', 'num_4', 'num_1', 'num_0']",['num_1'],num_1,,,,,0,9,9,9,9,0,36,2,,,,,,,,,,,,,['num_1'],,0.0351650849261,0,"['num_0', 'num_1']",0,"[0.0001415382866980508, 0.8744522570850677]",0,,,,,,,,2018_Apr_28_1701,60.0405689,sequenceLearningTask,001,085,
min1.png,min2.png,min3.png,min4.png,images/allBlank.png,images/min4.png,'num_0',"['num_7', 'num_4', 'num_1', 'num_0']",['num_0'],num_0,,,,,0,9,9,9,9,1,37,3,,,,,,,,,,,,,['num_0'],,0.0539777797203,1,['num_0'],0,[1.0218317680009932],1,,,,,,,,2018_Apr_28_1701,60.0405689,sequenceLearningTask,001,085,
min1.png,min2.png,min3.png,min4.png,images/allBlank.png,images/min1.png,'num_7',"['num_7', 'num_4', 'num_1', 'num_0']",['num_7'],num_7,,,,,0,9,9,9,9,2,38,0,,,,,,,,,,,,,['num_7'],,0.0514661930683,1,['num_7'],0,[0.9577563596831169],1,,,,,,,,2018_Apr_28_1701,60.0405689,sequenceLearningTask,001,085,
min1.png,min2.png,min3.png,min4.png,images/allBlank.png,images/min2.png,'num_4',"['num_7', 'num_4', 'num_1', 'num_0']",['num_4'],num_4,,,,,0,9,9,9,9,3,39,1,,,,,,,,,,,,,['num_4'],,0.0578247493431,1,['num_4'],0,[1.485344223165157],1,,,,,,,,2018_Apr_28_1701,60.0405689,sequenceLearningTask,001,085,
min1.png,min2.png,min3.png,min4.png,images/allBlank.png,images/min1.png,'num_7',"['num_7', 'num_4', 'num_1', 'num_0']",['num_7'],num_7,,,,,0,9,9,9,10,0,40,0,,,,,,,,,,,,,['num_7'],,0.0569332632622,1,['num_7'],0,[1.835013126139529],1,,,,,,,,2018_Apr_28_1701,60.0405689,sequenceLearningTask,001,085,
min1.png,min2.png,min3.png,min4.png,images/allBlank.png,images/min3.png,'num_1',"['num_7', 'num_4', 'num_1', 'num_0']",['num_1'],num_1,,,,,0,9,9,9,10,1,41,2,,,,,,,,,,,,,['num_1'],,0.0524389098209,1,['num_1'],0,[1.3243696520585218],1,,,,,,,,2018_Apr_28_1701,60.0405689,sequenceLearningTask,001,085,
min1.png,min2.png,min3.png,min4.png,images/allBlank.png,images/min4.png,'num_0',"['num_7', 'num_4', 'num_1', 'num_0']",['num_0'],num_0,,,,,0,9,9,9,10,2,42,3,,,,,,,,,,,,,['num_0'],,0.0586756200901,1,['num_0'],0,[0.7172672197739303],1,,,,,,,,2018_Apr_28_1701,60.0405689,sequenceLearningTask,001,085,
min1.png,min2.png,min3.png,min4.png,images/allBlank.png,images/min2.png,'num_4',"['num_7', 'num_4', 'num_1', 'num_0']",['num_4'],num_4,,,,,0,9,9,9,10,3,43,1,,,,,,,,,,,,,['num_4'],,0.053277472889,1,['num_4'],0,[1.0901799915736774],1,,,,,,,,2018_Apr_28_1701,60.0405689,sequenceLearningTask,001,085,
min1.png,min2.png,min3.png,min4.png,images/allBlank.png,images/min1.png,'num_7',"['num_7', 'num_4', 'num_1', 'num_0']",['num_7'],num_7,,,,,0,9,9,9,11,0,44,0,,,,,,,,,,,,,['num_7'],,0.0575666983787,1,['num_7'],0,[0.9023426842977642],1,,,,,,,,2018_Apr_28_1701,60.0405689,sequenceLearningTask,001,085,
min1.png,min2.png,min3.png,min4.png,images/allBlank.png,images/min3.png,'num_1',"['num_7', 'num_4', 'num_1', 'num_0']",['num_1'],num_1,,,,,0,9,9,9,11,1,45,2,,,,,,,,,,,,,['num_1'],,0.0526563454478,1,['num_1'],0,[0.7907928728709521],1,,,,,,,,2018_Apr_28_1701,60.0405689,sequenceLearningTask,001,085,
min1.png,min2.png,min3.png,min4.png,images/allBlank.png,images/min4.png,'num_0',"['num_7', 'num_4', 'num_1', 'num_0']",['num_0'],num_0,,,,,0,9,9,9,11,2,46,3,,,,,,,,,,,,,['num_0'],,0.0514354238767,1,['num_0'],0,[0.7581705540469557],1,,,,,,,,2018_Apr_28_1701,60.0405689,sequenceLearningTask,001,085,
min1.png,min2.png,min3.png,min4.png,images/allBlank.png,images/min2.png,'num_4',"['num_7', 'num_4', 'num_1', 'num_0']",['num_4'],num_4,,,,,0,9,9,9,11,3,47,1,,,,,,,,,,,,,['num_4'],,0.0562251615702,1,['num_4'],0,[1.085474766598054],1,,,,,,,,2018_Apr_28_1701,60.0405689,sequenceLearningTask,001,085,
min1.png,min2.png,min3.png,min4.png,images/allBlank.png,images/min2.png,'num_4',"['num_7', 'num_4', 'num_1', 'num_0']",['num_4'],num_4,,,,,0,9,9,9,12,0,48,1,,,,,,,,,,,,,['num_4'],,0.0535539853699,0,"['num_7', 'num_1', 'num_4']",0,"[0.8582791487860959, 1.8567694070552534, 3.022773305307055]",0,,,,,,,,2018_Apr_28_1701,60.0405689,sequenceLearningTask,001,085,
min1.png,min2.png,min3.png,min4.png,images/allBlank.png,images/min3.png,'num_1',"['num_7', 'num_4', 'num_1', 'num_0']",['num_1'],num_1,,,,,0,9,9,9,12,1,49,2,,,,,,,,,,,,,['num_1'],,0.0530120373151,1,['num_1'],0,[1.0231532022735337],1,,,,,,,,2018_Apr_28_1701,60.0405689,sequenceLearningTask,001,085,
min1.png,min2.png,min3.png,min4.png,images/allBlank.png,images/min1.png,'num_7',"['num_7', 'num_4', 'num_1', 'num_0']",['num_7'],num_7,,,,,0,9,9,9,12,2,50,0,,,,,,,,,,,,,['num_7'],,0.0568553146368,1,['num_7'],0,[1.052561166077794],1,,,,,,,,2018_Apr_28_1701,60.0405689,sequenceLearningTask,001,085,
min1.png,min2.png,min3.png,min4.png,images/allBlank.png,images/min4.png,'num_0',"['num_7', 'num_4', 'num_1', 'num_0']",['num_0'],num_0,,,,,0,9,9,9,12,3,51,3,,,,,,,,,,,,,['num_0'],,0.0512647574178,1,['num_0'],0,[0.608224071929726],1,,,,,,,,2018_Apr_28_1701,60.0405689,sequenceLearningTask,001,085,
min1.png,min2.png,min3.png,min4.png,images/allBlank.png,images/min1.png,'num_7',"['num_7', 'num_4', 'num_1', 'num_0']",['num_7'],num_7,,,,,0,9,9,9,13,0,52,0,,,,,,,,,,,,,['num_7'],,0.0503068098769,1,['num_7'],0,[1.191162021135824],1,,,,,,,,2018_Apr_28_1701,60.0405689,sequenceLearningTask,001,085,
min1.png,min2.png,min3.png,min4.png,images/allBlank.png,images/min2.png,'num_4',"['num_7', 'num_4', 'num_1', 'num_0']",['num_4'],num_4,,,,,0,9,9,9,13,1,53,1,,,,,,,,,,,,,['num_4'],,0.051021475665,1,['num_4'],0,[1.1250094871684269],1,,,,,,,,2018_Apr_28_1701,60.0405689,sequenceLearningTask,001,085,
min1.png,min2.png,min3.png,min4.png,images/allBlank.png,images/min4.png,'num_0',"['num_7', 'num_4', 'num_1', 'num_0']",['num_0'],num_0,,,,,0,9,9,9,13,2,54,3,,,,,,,,,,,,,['num_0'],,0.060861463553,1,['num_0'],0,[0.8475952644985227],1,,,,,,,,2018_Apr_28_1701,60.0405689,sequenceLearningTask,001,085,
min1.png,min2.png,min3.png,min4.png,images/allBlank.png,images/min3.png,'num_1',"['num_7', 'num_4', 'num_1', 'num_0']",['num_1'],num_1,,,,,0,9,9,9,13,3,55,2,,,,,,,,,,,,,['num_1'],,0.0563671101118,1,['num_1'],0,[0.9038963234088442],1,,,,,,,,2018_Apr_28_1701,60.0405689,sequenceLearningTask,001,085,
min1.png,min2.png,min3.png,min4.png,images/allBlank.png,images/min1.png,'num_7',"['num_7', 'num_4', 'num_1', 'num_0']",['num_7'],num_7,,,,,0,9,9,9,14,0,56,0,,,,,,,,,,,,,['num_7'],,0.0593947986927,1,['num_7'],0,[1.1002825432442478],1,,,,,,,,2018_Apr_28_1701,60.0405689,sequenceLearningTask,001,085,
min1.png,min2.png,min3.png,min4.png,images/allBlank.png,images/min4.png,'num_0',"['num_7', 'num_4', 'num_1', 'num_0']",['num_0'],num_0,,,,,0,9,9,9,14,1,57,3,,,,,,,,,,,,,['num_0'],,0.0583219795008,1,['num_0'],0,[0.9001978664236958],1,,,,,,,,2018_Apr_28_1701,60.0405689,sequenceLearningTask,001,085,
min1.png,min2.png,min3.png,min4.png,images/allBlank.png,images/min2.png,'num_4',"['num_7', 'num_4', 'num_1', 'num_0']",['num_4'],num_4,,,,,0,9,9,9,14,2,58,1,,,,,,,,,,,,,['num_4'],,0.0575285445811,1,['num_4'],0,[1.3679876496571524],1,,,,,,,,2018_Apr_28_1701,60.0405689,sequenceLearningTask,001,085,
min1.png,min2.png,min3.png,min4.png,images/allBlank.png,images/min3.png,'num_1',"['num_7', 'num_4', 'num_1', 'num_0']",['num_1'],num_1,,,,,0,9,9,9,14,3,59,2,,,,,,,,,,,,,['num_1'],,0.0561792129083,1,['num_1'],0,[0.7208815742997103],1,,,,,,,,2018_Apr_28_1701,60.0405689,sequenceLearningTask,001,085,
min1.png,min2.png,min3.png,min4.png,images/allBlank.png,images/min2.png,'num_4',"['num_7', 'num_4', 'num_1', 'num_0']",['num_4'],num_4,,,,,0,9,9,9,15,0,60,1,,,,,,,,,,,,,['num_4'],,0.05556300854,1,['num_4'],0,[0.9535385187227803],1,,,,,,,,2018_Apr_28_1701,60.0405689,sequenceLearningTask,001,085,
min1.png,min2.png,min3.png,min4.png,images/allBlank.png,images/min3.png,'num_1',"['num_7', 'num_4', 'num_1', 'num_0']",['num_1'],num_1,,,,,0,9,9,9,15,1,61,2,,,,,,,,,,,,,['num_1'],,0.0511277319456,1,['num_1'],0,[0.8759517424186924],1,,,,,,,,2018_Apr_28_1701,60.0405689,sequenceLearningTask,001,085,
min1.png,min2.png,min3.png,min4.png,images/allBlank.png,images/min1.png,'num_7',"['num_7', 'num_4', 'num_1', 'num_0']",['num_7'],num_7,,,,,0,9,9,9,15,2,62,0,,,,,,,,,,,,,['num_7'],,0.0528438323963,1,['num_7'],0,[0.9060284233528364],1,,,,,,,,2018_Apr_28_1701,60.0405689,sequenceLearningTask,001,085,
min1.png,min2.png,min3.png,min4.png,images/allBlank.png,images/min4.png,'num_0',"['num_7', 'num_4', 'num_1', 'num_0']",['num_0'],num_0,,,,,0,9,9,9,15,3,63,3,,,,,,,,,,,,,['num_0'],,0.055313572946,1,['num_0'],0,[0.7877967739950691],1,,,,,,,,2018_Apr_28_1701,60.0405689,sequenceLearningTask,001,085,
min1.png,min2.png,min3.png,min4.png,images/allBlank.png,images/min4.png,'num_0',"['num_7', 'num_4', 'num_1', 'num_0']",['num_0'],num_0,,,,,0,9,9,9,16,0,64,3,,,,,,,,,,,,,['num_0'],,0.0525816788722,1,['num_0'],0,[0.6901870479778154],1,,,,,,,,2018_Apr_28_1701,60.0405689,sequenceLearningTask,001,085,
min1.png,min2.png,min3.png,min4.png,images/allBlank.png,images/min1.png,'num_7',"['num_7', 'num_4', 'num_1', 'num_0']",['num_7'],num_7,,,,,0,9,9,9,16,1,65,0,,,,,,,,,,,,,['num_7'],,0.0580491593246,1,['num_7'],0,[0.96879306405026],1,,,,,,,,2018_Apr_28_1701,60.0405689,sequenceLearningTask,001,085,
min1.png,min2.png,min3.png,min4.png,images/allBlank.png,images/min2.png,'num_4',"['num_7', 'num_4', 'num_1', 'num_0']",['num_4'],num_4,,,,,0,9,9,9,16,2,66,1,,,,,,,,,,,,,['num_4'],,0.0571580834985,1,['num_4'],0,[1.0363700065172452],1,,,,,,,,2018_Apr_28_1701,60.0405689,sequenceLearningTask,001,085,
min1.png,min2.png,min3.png,min4.png,images/allBlank.png,images/min3.png,'num_1',"['num_7', 'num_4', 'num_1', 'num_0']",['num_1'],num_1,,,,,0,9,9,9,16,3,67,2,,,,,,,,,,,,,['num_1'],,0.0533923445437,0,"['num_1', 'num_0', 'num_1']",0,"[0.7567773249938909, 1.7062038487747486]",0,,,,,,,,2018_Apr_28_1701,60.0405689,sequenceLearningTask,001,085,
min1.png,min2.png,min3.png,min4.png,images/allBlank.png,images/min4.png,'num_0',"['num_7', 'num_4', 'num_1', 'num_0']",['num_0'],num_0,,,,,0,9,9,9,17,0,68,3,,,,,,,,,,,,,['num_0'],,0.0543125485383,1,['num_0'],0,[0.354718742910336],1,,,,,,,,2018_Apr_28_1701,60.0405689,sequenceLearningTask,001,085,
min1.png,min2.png,min3.png,min4.png,images/allBlank.png,images/min3.png,'num_1',"['num_7', 'num_4', 'num_1', 'num_0']",['num_1'],num_1,,,,,0,9,9,9,17,1,69,2,,,,,,,,,,,,,['num_1'],,0.0521012692079,1,['num_1'],0,[0.9063689357499243],1,,,,,,,,2018_Apr_28_1701,60.0405689,sequenceLearningTask,001,085,
min1.png,min2.png,min3.png,min4.png,images/allBlank.png,images/min2.png,'num_4',"['num_7', 'num_4', 'num_1', 'num_0']",['num_4'],num_4,,,,,0,9,9,9,17,2,70,1,,,,,,,,,,,,,['num_4'],,0.0559150081062,0,"['num_7', 'num_4']",0,"[0.8683181107880955, 1.2358561199725955]",0,,,,,,,,2018_Apr_28_1701,60.0405689,sequenceLearningTask,001,085,
min1.png,min2.png,min3.png,min4.png,images/allBlank.png,images/min1.png,'num_7',"['num_7', 'num_4', 'num_1', 'num_0']",['num_7'],num_7,,,,,0,9,9,9,17,3,71,0,,,,,,,,,,,,,['num_7'],,0.0519708078318,0,"['num_7', 'num_7']",0,"[0.0005854351766174659, 1.0565295714513923]",0,,,,,,,,2018_Apr_28_1701,60.0405689,sequenceLearningTask,001,085,
min1.png,min2.png,min3.png,min4.png,images/allBlank.png,images/min3.png,'num_1',"['num_7', 'num_4', 'num_1', 'num_0']",['num_1'],num_1,,,,,0,9,9,9,18,0,72,2,,,,,,,,,,,,,['num_1'],,0.0530067039908,1,['num_1'],0,[1.006638761060458],1,,,,,,,,2018_Apr_28_1701,60.0405689,sequenceLearningTask,001,085,
min1.png,min2.png,min3.png,min4.png,images/allBlank.png,images/min1.png,'num_7',"['num_7', 'num_4', 'num_1', 'num_0']",['num_7'],num_7,,,,,0,9,9,9,18,1,73,0,,,,,,,,,,,,,['num_7'],,0.0592840296013,1,['num_7'],0,[1.0841763066528074],1,,,,,,,,2018_Apr_28_1701,60.0405689,sequenceLearningTask,001,085,
min1.png,min2.png,min3.png,min4.png,images/allBlank.png,images/min4.png,'num_0',"['num_7', 'num_4', 'num_1', 'num_0']",['num_0'],num_0,,,,,0,9,9,9,18,2,74,3,,,,,,,,,,,,,['num_0'],,0.0532266011578,1,['num_0'],0,[0.7541479948922643],1,,,,,,,,2018_Apr_28_1701,60.0405689,sequenceLearningTask,001,085,
min1.png,min2.png,min3.png,min4.png,images/allBlank.png,images/min2.png,'num_4',"['num_7', 'num_4', 'num_1', 'num_0']",['num_4'],num_4,,,,,0,9,9,9,18,3,75,1,,,,,,,,,,,,,['num_4'],,0.0610128479857,1,['num_4'],0,[0.965232042792195],1,,,,,,,,2018_Apr_28_1701,60.0405689,sequenceLearningTask,001,085,
min1.png,min2.png,min3.png,min4.png,images/allBlank.png,images/min2.png,'num_4',"['num_7', 'num_4', 'num_1', 'num_0']",['num_4'],num_4,,,,,0,9,9,9,19,0,76,1,,,,,,,,,,,,,['num_4'],,0.060119720878,1,['num_4'],0,[0.9319270581399905],1,,,,,,,,2018_Apr_28_1701,60.0405689,sequenceLearningTask,001,085,
min1.png,min2.png,min3.png,min4.png,images/allBlank.png,images/min4.png,'num_0',"['num_7', 'num_4', 'num_1', 'num_0']",['num_0'],num_0,,,,,0,9,9,9,19,1,77,3,,,,,,,,,,,,,['num_0'],,0.0509160398979,0,"['num_1', 'num_0']",0,"[0.8913892618766113, 1.991594677008834]",0,,,,,,,,2018_Apr_28_1701,60.0405689,sequenceLearningTask,001,085,
min1.png,min2.png,min3.png,min4.png,images/allBlank.png,images/min1.png,'num_7',"['num_7', 'num_4', 'num_1', 'num_0']",['num_7'],num_7,,,,,0,9,9,9,19,2,78,0,,,,,,,,,,,,,['num_7'],,0.0746772414204,1,['num_7'],0,[0.8334082050350844],1,,,,,,,,2018_Apr_28_1701,60.0405689,sequenceLearningTask,001,085,
min1.png,min2.png,min3.png,min4.png,images/allBlank.png,images/min3.png,'num_1',"['num_7', 'num_4', 'num_1', 'num_0']",['num_1'],num_1,,,,,0,9,9,9,19,3,79,2,,,,,,,,,,,,,['num_1'],,0.0509755270032,1,['num_1'],0,[0.8250787793913332],1,,,,,,,,2018_Apr_28_1701,60.0405689,sequenceLearningTask,001,085,
min1.png,min2.png,min3.png,min4.png,allBlank.png,,,,['num_7'],,,,,,0,0,0,0,,,,,,,,,,,,,,,,,['num_7'],1,0.0543047536776,1,['num_7'],0,[0.5987668527995993],,,,,,,,,2018_Apr_28_1701,60.0405689,sequenceLearningTask,001,085,
min1.png,min2.png,min3.png,min4.png,allBlank.png,,,,['num_1'],,,,,,0,0,0,0,,,,,,,,,,,,,,,,,['num_1'],1,0.0547301890474,1,['num_1'],0,[0.8725749260593147],,,,,,,,,2018_Apr_28_1701,60.0405689,sequenceLearningTask,001,085,
min1.png,min2.png,min3.png,min4.png,allBlank.png,,,,['num_4'],,,,,,0,0,0,0,,,,,,,,,,,,,,,,,['num_4'],1,0.0530411654909,1,['num_4'],0,[0.7577471699551097],,,,,,,,,2018_Apr_28_1701,60.0405689,sequenceLearningTask,001,085,
min1.png,min2.png,min3.png,min4.png,allBlank.png,,,,['num_0'],,,,,,0,0,0,0,,,,,,,,,,,,,,,,,['num_0'],1,0.0516385005467,1,['num_0'],0,[0.30925705527261016],,,,,,,,,2018_Apr_28_1701,60.0405689,sequenceLearningTask,001,085,
min1.png,min2.png,min3.png,min4.png,allBlank.png,,,,['num_0'],,,,,,0,0,0,0,,,,,,,,,,,,,,,,,['num_0'],1,0.0548577786358,1,['num_0'],0,[1.2229650589142693],,,,,,,,,2018_Apr_28_1701,60.0405689,sequenceLearningTask,001,085,
min1.png,min2.png,min3.png,min4.png,allBlank.png,,,,['num_4'],,,,,,0,0,0,0,,,,,,,,,,,,,,,,,['num_4'],1,0.0456860976155,1,['num_4'],0,[1.1822750577121042],,,,,,,,,2018_Apr_28_1701,60.0405689,sequenceLearningTask,001,085,
min1.png,min2.png,min3.png,min4.png,allBlank.png,,,,['num_1'],,,,,,0,0,0,0,,,,,,,,,,,,,,,,,['num_1'],1,0.0550608553094,1,['num_1'],0,[0.7390891416325758],,,,,,,,,2018_Apr_28_1701,60.0405689,sequenceLearningTask,001,085,
min1.png,min2.png,min3.png,min4.png,allBlank.png,,,,['num_0'],,,,,,0,0,0,0,,,,,,,,,,,,,,,,,['num_0'],1,0.0561234181041,1,['num_0'],0,[0.45561092643038137],,,,,,,,,2018_Apr_28_1701,60.0405689,sequenceLearningTask,001,085,
min1.png,min2.png,min3.png,min4.png,allBlank.png,,,,['num_7'],,,,,,0,1,1,1,,,,,,,,,,,,,,,,,['num_7'],2,0.0557463929254,1,['num_7'],0,[0.7711531021705014],,,,,,,,,2018_Apr_28_1701,60.0405689,sequenceLearningTask,001,085,
min1.png,min2.png,min3.png,min4.png,allBlank.png,,,,['num_1'],,,,,,0,1,1,1,,,,,,,,,,,,,,,,,['num_1'],2,0.0574411600719,1,['num_1'],0,[0.7539137387720984],,,,,,,,,2018_Apr_28_1701,60.0405689,sequenceLearningTask,001,085,
min1.png,min2.png,min3.png,min4.png,allBlank.png,,,,['num_4'],,,,,,0,1,1,1,,,,,,,,,,,,,,,,,['num_4'],2,0.0585980817268,1,['num_4'],0,[0.9022327357160975],,,,,,,,,2018_Apr_28_1701,60.0405689,sequenceLearningTask,001,085,
min1.png,min2.png,min3.png,min4.png,allBlank.png,,,,['num_0'],,,,,,0,1,1,1,,,,,,,,,,,,,,,,,['num_0'],2,0.0597213623951,1,['num_0'],0,[0.7338153019700258],,,,,,,,,2018_Apr_28_1701,60.0405689,sequenceLearningTask,001,085,
min1.png,min2.png,min3.png,min4.png,allBlank.png,,,,['num_0'],,,,,,0,1,1,1,,,,,,,,,,,,,,,,,['num_0'],2,0.0508417835808,1,['num_0'],0,[0.6590748811358935],,,,,,,,,2018_Apr_28_1701,60.0405689,sequenceLearningTask,001,085,
min1.png,min2.png,min3.png,min4.png,allBlank.png,,,,['num_4'],,,,,,0,1,1,1,,,,,,,,,,,,,,,,,['num_4'],2,0.064853253516,1,['num_4'],0,[1.1445388990287029],,,,,,,,,2018_Apr_28_1701,60.0405689,sequenceLearningTask,001,085,
min1.png,min2.png,min3.png,min4.png,allBlank.png,,,,['num_1'],,,,,,0,1,1,1,,,,,,,,,,,,,,,,,['num_1'],2,0.0526694736363,1,['num_1'],0,[0.5754310866468586],,,,,,,,,2018_Apr_28_1701,60.0405689,sequenceLearningTask,001,085,
min1.png,min2.png,min3.png,min4.png,allBlank.png,,,,['num_0'],,,,,,0,1,1,1,,,,,,,,,,,,,,,,,['num_0'],2,0.0579654671164,1,['num_0'],0,[0.4193315864613396],,,,,,,,,2018_Apr_28_1701,60.0405689,sequenceLearningTask,001,085,
min1.png,min2.png,min3.png,min4.png,allBlank.png,,,,['num_7'],,,,,,0,2,2,2,,,,,,,,,,,,,,,,,['num_7'],3,0.0567461865685,1,['num_7'],0,[0.8226303721457953],,,,,,,,,2018_Apr_28_1701,60.0405689,sequenceLearningTask,001,085,
min1.png,min2.png,min3.png,min4.png,allBlank.png,,,,['num_1'],,,,,,0,2,2,2,,,,,,,,,,,,,,,,,['num_1'],3,0.0553619831444,0,"['num_0', 'num_1']",0,"[0.5225224338173575, 1.123392258388776]",,,,,,,,,2018_Apr_28_1701,60.0405689,sequenceLearningTask,001,085,
min1.png,min2.png,min3.png,min4.png,allBlank.png,,,,['num_4'],,,,,,0,2,2,2,,,,,,,,,,,,,,,,,['num_4'],3,0.058839312198,1,['num_4'],0,[0.7512692292075371],,,,,,,,,2018_Apr_28_1701,60.0405689,sequenceLearningTask,001,085,
min1.png,min2.png,min3.png,min4.png,allBlank.png,,,,['num_0'],,,,,,0,2,2,2,,,,,,,,,,,,,,,,,['num_0'],3,0.0609184891255,1,['num_0'],0,[0.6166683692281367],,,,,,,,,2018_Apr_28_1701,60.0405689,sequenceLearningTask,001,085,
min1.png,min2.png,min3.png,min4.png,allBlank.png,,,,['num_0'],,,,,,0,2,2,2,,,,,,,,,,,,,,,,,['num_0'],3,0.0575933650143,1,['num_0'],0,[1.1540133489070286],,,,,,,,,2018_Apr_28_1701,60.0405689,sequenceLearningTask,001,085,
min1.png,min2.png,min3.png,min4.png,allBlank.png,,,,['num_4'],,,,,,0,2,2,2,,,,,,,,,,,,,,,,,['num_4'],3,0.0568085454688,0,"['num_0', 'num_7', 'num_7', 'num_7', 'num_7', 'num_7', 'num_7', 'num_7', 'num_7', 'num_7', 'num_4']",0,"[0.000333127798512578, 0.7034961598001246, 1.7881799530114222, 1.9035882212265278, 2.436651360021642, 3.754641532748792, 4.653304221574217, 5.503548918710294, 6.070471708138939, 6.337090046661615, 7.069713965480332]",,,,,,,,,2018_Apr_28_1701,60.0405689,sequenceLearningTask,001,085,
min1.png,min2.png,min3.png,min4.png,allBlank.png,,,,['num_1'],,,,,,0,2,2,2,,,,,,,,,,,,,,,,,['num_1'],3,0.0498190156104,1,['num_1'],0,[0.7610616274105269],,,,,,,,,2018_Apr_28_1701,60.0405689,sequenceLearningTask,001,085,
min1.png,min2.png,min3.png,min4.png,allBlank.png,,,,['num_0'],,,,,,0,2,2,2,,,,,,,,,,,,,,,,,['num_0'],3,0.0613024886516,1,['num_0'],0,[0.7159613752264704],,,,,,,,,2018_Apr_28_1701,60.0405689,sequenceLearningTask,001,085,
min1.png,min2.png,min3.png,min4.png,allBlank.png,,,,['num_7'],,,,,,0,3,3,3,,,,,,,,,,,,,,,,,['num_7'],4,0.053531011039,1,['num_7'],0,[0.990729857563565],,,,,,,,,2018_Apr_28_1701,60.0405689,sequenceLearningTask,001,085,
min1.png,min2.png,min3.png,min4.png,allBlank.png,,,,['num_1'],,,,,,0,3,3,3,,,,,,,,,,,,,,,,,['num_1'],4,0.051822705449,1,['num_1'],0,[0.8600206851042458],,,,,,,,,2018_Apr_28_1701,60.0405689,sequenceLearningTask,001,085,
min1.png,min2.png,min3.png,min4.png,allBlank.png,,,,['num_4'],,,,,,0,3,3,3,,,,,,,,,,,,,,,,,['num_4'],4,0.0549853682205,0,"['num_0', 'num_4']",0,"[0.972018906235462, 1.8227989873266779]",,,,,,,,,2018_Apr_28_1701,60.0405689,sequenceLearningTask,001,085,
min1.png,min2.png,min3.png,min4.png,allBlank.png,,,,['num_0'],,,,,,0,3,3,3,,,,,,,,,,,,,,,,,['num_0'],4,0.0518444490153,1,['num_0'],0,[0.6919733021859429],,,,,,,,,2018_Apr_28_1701,60.0405689,sequenceLearningTask,001,085,
min1.png,min2.png,min3.png,min4.png,allBlank.png,,,,['num_0'],,,,,,0,3,3,3,,,,,,,,,,,,,,,,,['num_0'],4,0.054284651138,1,['num_0'],0,[1.3561513565327914],,,,,,,,,2018_Apr_28_1701,60.0405689,sequenceLearningTask,001,085,
min1.png,min2.png,min3.png,min4.png,allBlank.png,,,,['num_4'],,,,,,0,3,3,3,,,,,,,,,,,,,,,,,['num_4'],4,0.0580577746987,1,['num_4'],0,[0.9686781923956005],,,,,,,,,2018_Apr_28_1701,60.0405689,sequenceLearningTask,001,085,
min1.png,min2.png,min3.png,min4.png,allBlank.png,,,,['num_1'],,,,,,0,3,3,3,,,,,,,,,,,,,,,,,['num_1'],4,0.0548245479076,0,"['num_4', 'num_1']",0,"[0.0002925124608736951, 1.2904759501834633]",,,,,,,,,2018_Apr_28_1701,60.0405689,sequenceLearningTask,001,085,
min1.png,min2.png,min3.png,min4.png,allBlank.png,,,,['num_0'],,,,,,0,3,3,3,,,,,,,,,,,,,,,,,['num_0'],4,0.0610087454224,1,['num_0'],0,[0.6826108521709102],,,,,,,,,2018_Apr_28_1701,60.0405689,sequenceLearningTask,001,085,
min1.png,min2.png,min3.png,min4.png,allBlank.png,,,,['num_7'],,,,,,0,4,4,4,,,,,,,,,,,,,,,,,['num_7'],5,0.0532081396414,1,['num_7'],0,[0.8916087487923505],,,,,,,,,2018_Apr_28_1701,60.0405689,sequenceLearningTask,001,085,
min1.png,min2.png,min3.png,min4.png,allBlank.png,,,,['num_1'],,,,,,0,4,4,4,,,,,,,,,,,,,,,,,['num_1'],5,0.0513615778145,1,['num_1'],0,[0.7607490124100877],,,,,,,,,2018_Apr_28_1701,60.0405689,sequenceLearningTask,001,085,
min1.png,min2.png,min3.png,min4.png,allBlank.png,,,,['num_4'],,,,,,0,4,4,4,,,,,,,,,,,,,,,,,['num_4'],5,0.0571186989291,1,['num_4'],0,[0.7546361994245672],,,,,,,,,2018_Apr_28_1701,60.0405689,sequenceLearningTask,001,085,
min1.png,min2.png,min3.png,min4.png,allBlank.png,,,,['num_0'],,,,,,0,4,4,4,,,,,,,,,,,,,,,,,['num_0'],5,0.0525439353332,1,['num_0'],0,[0.5268896079287515],,,,,,,,,2018_Apr_28_1701,60.0405689,sequenceLearningTask,001,085,
min1.png,min2.png,min3.png,min4.png,allBlank.png,,,,['num_0'],,,,,,0,4,4,4,,,,,,,,,,,,,,,,,['num_0'],5,0.0549238298372,1,['num_0'],0,[0.872859233404597],,,,,,,,,2018_Apr_28_1701,60.0405689,sequenceLearningTask,001,085,
min1.png,min2.png,min3.png,min4.png,allBlank.png,,,,['num_4'],,,,,,0,4,4,4,,,,,,,,,,,,,,,,,['num_4'],5,0.0584175691256,1,['num_4'],0,[1.3523474637768231],,,,,,,,,2018_Apr_28_1701,60.0405689,sequenceLearningTask,001,085,
min1.png,min2.png,min3.png,min4.png,allBlank.png,,,,['num_1'],,,,,,0,4,4,4,,,,,,,,,,,,,,,,,['num_1'],5,0.0583744922551,0,"['num_7', 'num_1']",0,"[0.0003060509043280035, 0.6191282636391406]",,,,,,,,,2018_Apr_28_1701,60.0405689,sequenceLearningTask,001,085,
min1.png,min2.png,min3.png,min4.png,allBlank.png,,,,['num_0'],,,,,,0,4,4,4,,,,,,,,,,,,,,,,,['num_0'],5,0.054748240309,1,['num_0'],0,[0.6724804031036911],,,,,,,,,2018_Apr_28_1701,60.0405689,sequenceLearningTask,001,085,
min1.png,min2.png,min3.png,min4.png,allBlank.png,,,,['num_7'],,,,,,0,5,5,5,,,,,,,,,,,,,,,,,['num_7'],6,0.0528762426111,1,['num_7'],0,[3.990871395850263],,,,,,,,,2018_Apr_28_1701,60.0405689,sequenceLearningTask,001,085,
min1.png,min2.png,min3.png,min4.png,allBlank.png,,,,['num_1'],,,,,,0,5,5,5,,,,,,,,,,,,,,,,,['num_1'],6,0.0511100909389,1,['num_1'],0,[0.8097138752236788],,,,,,,,,2018_Apr_28_1701,60.0405689,sequenceLearningTask,001,085,
min1.png,min2.png,min3.png,min4.png,allBlank.png,,,,['num_4'],,,,,,0,5,5,5,,,,,,,,,,,,,,,,,['num_4'],6,0.0583310051297,1,['num_4'],0,[1.0187962845593574],,,,,,,,,2018_Apr_28_1701,60.0405689,sequenceLearningTask,001,085,
min1.png,min2.png,min3.png,min4.png,allBlank.png,,,,['num_0'],,,,,,0,5,5,5,,,,,,,,,,,,,,,,,['num_0'],6,0.0492586060391,1,['num_0'],0,[0.8467620347546472],,,,,,,,,2018_Apr_28_1701,60.0405689,sequenceLearningTask,001,085,
min1.png,min2.png,min3.png,min4.png,allBlank.png,,,,['num_0'],,,,,,0,5,5,5,,,,,,,,,,,,,,,,,['num_0'],6,0.0540840360009,1,['num_0'],0,[0.6574523190320178],,,,,,,,,2018_Apr_28_1701,60.0405689,sequenceLearningTask,001,085,
min1.png,min2.png,min3.png,min4.png,allBlank.png,,,,['num_4'],,,,,,0,5,5,5,,,,,,,,,,,,,,,,,['num_4'],6,0.0535584981844,0,"['num_7', 'num_4']",0,"[1.8904153143630538, 2.5403972836138564]",,,,,,,,,2018_Apr_28_1701,60.0405689,sequenceLearningTask,001,085,
min1.png,min2.png,min3.png,min4.png,allBlank.png,,,,['num_1'],,,,,,0,5,5,5,,,,,,,,,,,,,,,,,['num_1'],6,0.052900037459,1,['num_1'],0,[1.342158758368896],,,,,,,,,2018_Apr_28_1701,60.0405689,sequenceLearningTask,001,085,
min1.png,min2.png,min3.png,min4.png,allBlank.png,,,,['num_0'],,,,,,0,5,5,5,,,,,,,,,,,,,,,,,['num_0'],6,0.0597439264675,1,['num_0'],0,[0.40157694164736313],,,,,,,,,2018_Apr_28_1701,60.0405689,sequenceLearningTask,001,085,
min1.png,min2.png,min3.png,min4.png,allBlank.png,,,,['num_7'],,,,,,0,6,6,6,,,,,,,,,,,,,,,,,['num_7'],7,0.0485624017674,1,['num_7'],0,[0.8939919253461994],,,,,,,,,2018_Apr_28_1701,60.0405689,sequenceLearningTask,001,085,
min1.png,min2.png,min3.png,min4.png,allBlank.png,,,,['num_1'],,,,,,0,6,6,6,,,,,,,,,,,,,,,,,['num_1'],7,0.0501652715902,1,['num_1'],0,[1.06183746235547],,,,,,,,,2018_Apr_28_1701,60.0405689,sequenceLearningTask,001,085,
min1.png,min2.png,min3.png,min4.png,allBlank.png,,,,['num_4'],,,,,,0,6,6,6,,,,,,,,,,,,,,,,,['num_4'],7,0.0497308105878,1,['num_4'],0,[0.9113346732301579],,,,,,,,,2018_Apr_28_1701,60.0405689,sequenceLearningTask,001,085,
min1.png,min2.png,min3.png,min4.png,allBlank.png,,,,['num_0'],,,,,,0,6,6,6,,,,,,,,,,,,,,,,,['num_0'],7,0.0544832149972,1,['num_0'],0,[0.17363629911415046],,,,,,,,,2018_Apr_28_1701,60.0405689,sequenceLearningTask,001,085,
min1.png,min2.png,min3.png,min4.png,allBlank.png,,,,['num_0'],,,,,,0,6,6,6,,,,,,,,,,,,,,,,,['num_0'],7,0.060285054009,1,['num_0'],0,[0.8020950128084223],,,,,,,,,2018_Apr_28_1701,60.0405689,sequenceLearningTask,001,085,
min1.png,min2.png,min3.png,min4.png,allBlank.png,,,,['num_4'],,,,,,0,6,6,6,,,,,,,,,,,,,,,,,['num_4'],7,0.0535379853864,0,"['num_0', 'num_7', 'num_4']",0,"[0.0002929227157437708, 0.6077165853748738, 0.9909616521508724]",,,,,,,,,2018_Apr_28_1701,60.0405689,sequenceLearningTask,001,085,
min1.png,min2.png,min3.png,min4.png,allBlank.png,,,,['num_1'],,,,,,0,6,6,6,,,,,,,,,,,,,,,,,['num_1'],7,0.0637549984567,1,['num_1'],0,[0.4961335432199121],,,,,,,,,2018_Apr_28_1701,60.0405689,sequenceLearningTask,001,085,
min1.png,min2.png,min3.png,min4.png,allBlank.png,,,,['num_0'],,,,,,0,6,6,6,,,,,,,,,,,,,,,,,['num_0'],7,0.0507022965721,1,['num_0'],0,[0.44479904229956446],,,,,,,,,2018_Apr_28_1701,60.0405689,sequenceLearningTask,001,085,
min1.png,min2.png,min3.png,min4.png,allBlank.png,,,,['num_7'],,,,,,0,7,7,7,,,,,,,,,,,,,,,,,['num_7'],8,0.05027973299,1,['num_7'],0,[0.32592698347434634],,,,,,,,,2018_Apr_28_1701,60.0405689,sequenceLearningTask,001,085,
min1.png,min2.png,min3.png,min4.png,allBlank.png,,,,['num_1'],,,,,,0,7,7,7,,,,,,,,,,,,,,,,,['num_1'],8,0.0594756191058,1,['num_1'],0,[1.0190194637689274],,,,,,,,,2018_Apr_28_1701,60.0405689,sequenceLearningTask,001,085,
min1.png,min2.png,min3.png,min4.png,allBlank.png,,,,['num_4'],,,,,,0,7,7,7,,,,,,,,,,,,,,,,,['num_4'],8,0.0446838424396,1,['num_4'],0,[0.899769149000349],,,,,,,,,2018_Apr_28_1701,60.0405689,sequenceLearningTask,001,085,
min1.png,min2.png,min3.png,min4.png,allBlank.png,,,,['num_0'],,,,,,0,7,7,7,,,,,,,,,,,,,,,,,['num_0'],8,0.0588704916481,1,['num_0'],0,[0.5355324690899579],,,,,,,,,2018_Apr_28_1701,60.0405689,sequenceLearningTask,001,085,
min1.png,min2.png,min3.png,min4.png,allBlank.png,,,,['num_0'],,,,,,0,7,7,7,,,,,,,,,,,,,,,,,['num_0'],8,0.0576672110765,1,['num_0'],0,[0.836560611409368],,,,,,,,,2018_Apr_28_1701,60.0405689,sequenceLearningTask,001,085,
min1.png,min2.png,min3.png,min4.png,allBlank.png,,,,['num_4'],,,,,,0,7,7,7,,,,,,,,,,,,,,,,,['num_4'],8,0.053112139758,0,"['num_7', 'num_4']",0,"[1.058382697374327, 1.5581195182094234]",,,,,,,,,2018_Apr_28_1701,60.0405689,sequenceLearningTask,001,085,
min1.png,min2.png,min3.png,min4.png,allBlank.png,,,,['num_1'],,,,,,0,7,7,7,,,,,,,,,,,,,,,,,['num_1'],8,0.0485968632638,1,['num_1'],0,[0.8464502402675862],,,,,,,,,2018_Apr_28_1701,60.0405689,sequenceLearningTask,001,085,
min1.png,min2.png,min3.png,min4.png,allBlank.png,,,,['num_0'],,,,,,0,7,7,7,,,,,,,,,,,,,,,,,['num_0'],8,0.0475777875981,1,['num_0'],0,[0.4642357363263727],,,,,,,,,2018_Apr_28_1701,60.0405689,sequenceLearningTask,001,085,
min1.png,min2.png,min3.png,min4.png,allBlank.png,,,,['num_7'],,,,,,0,8,8,8,,,,,,,,,,,,,,,,,['num_7'],9,0.0527868068275,1,['num_7'],0,[0.7739412012997491],,,,,,,,,2018_Apr_28_1701,60.0405689,sequenceLearningTask,001,085,
min1.png,min2.png,min3.png,min4.png,allBlank.png,,,,['num_1'],,,,,,0,8,8,8,,,,,,,,,,,,,,,,,['num_1'],9,0.0543552151539,1,['num_1'],0,[0.8909252624507644],,,,,,,,,2018_Apr_28_1701,60.0405689,sequenceLearningTask,001,085,
min1.png,min2.png,min3.png,min4.png,allBlank.png,,,,['num_4'],,,,,,0,8,8,8,,,,,,,,,,,,,,,,,['num_4'],9,0.0610940786537,1,['num_4'],0,[0.8995480210687674],,,,,,,,,2018_Apr_28_1701,60.0405689,sequenceLearningTask,001,085,
min1.png,min2.png,min3.png,min4.png,allBlank.png,,,,['num_0'],,,,,,0,8,8,8,,,,,,,,,,,,,,,,,['num_0'],9,0.0495375800565,0,"['num_0', 'num_0']",0,"[0.0006777427552151494, 0.9613600475568091]",,,,,,,,,2018_Apr_28_1701,60.0405689,sequenceLearningTask,001,085,
min1.png,min2.png,min3.png,min4.png,allBlank.png,,,,['num_0'],,,,,,0,8,8,8,,,,,,,,,,,,,,,,,['num_0'],9,0.0544528560567,1,['num_0'],0,[0.7910841545635776],,,,,,,,,2018_Apr_28_1701,60.0405689,sequenceLearningTask,001,085,
min1.png,min2.png,min3.png,min4.png,allBlank.png,,,,['num_4'],,,,,,0,8,8,8,,,,,,,,,,,,,,,,,['num_4'],9,0.055253265331,0,"['num_0', 'num_7', 'num_4']",0,"[0.0003044098812097218, 0.8904973655407957, 1.3046839326962072]",,,,,,,,,2018_Apr_28_1701,60.0405689,sequenceLearningTask,001,085,
min1.png,min2.png,min3.png,min4.png,allBlank.png,,,,['num_1'],,,,,,0,8,8,8,,,,,,,,,,,,,,,,,['num_1'],9,0.0610624889487,1,['num_1'],0,[0.8316498482236057],,,,,,,,,2018_Apr_28_1701,60.0405689,sequenceLearningTask,001,085,
min1.png,min2.png,min3.png,min4.png,allBlank.png,,,,['num_0'],,,,,,0,8,8,8,,,,,,,,,,,,,,,,,['num_0'],9,0.0570255708408,1,['num_0'],0,[0.6039602823075256],,,,,,,,,2018_Apr_28_1701,60.0405689,sequenceLearningTask,001,085,
min1.png,min2.png,min3.png,min4.png,allBlank.png,,,,['num_7'],,,,,,0,9,9,9,,,,,,,,,,,,,,,,,['num_7'],10,0.0549287529102,1,['num_7'],0,[1.0543457792664412],,,,,,,,,2018_Apr_28_1701,60.0405689,sequenceLearningTask,001,085,
min1.png,min2.png,min3.png,min4.png,allBlank.png,,,,['num_1'],,,,,,0,9,9,9,,,,,,,,,,,,,,,,,['num_1'],10,0.0580372619042,0,"['num_4', 'num_1']",0,"[1.0040890206073527, 1.653321452322416]",,,,,,,,,2018_Apr_28_1701,60.0405689,sequenceLearningTask,001,085,
min1.png,min2.png,min3.png,min4.png,allBlank.png,,,,['num_4'],,,,,,0,9,9,9,,,,,,,,,,,,,,,,,['num_4'],10,0.0512196292693,1,['num_4'],0,[0.877220663933258],,,,,,,,,2018_Apr_28_1701,60.0405689,sequenceLearningTask,001,085,
min1.png,min2.png,min3.png,min4.png,allBlank.png,,,,['num_0'],,,,,,0,9,9,9,,,,,,,,,,,,,,,,,['num_0'],10,0.0512335779713,1,['num_0'],0,[0.19390212032521958],,,,,,,,,2018_Apr_28_1701,60.0405689,sequenceLearningTask,001,085,
min1.png,min2.png,min3.png,min4.png,allBlank.png,,,,['num_0'],,,,,,0,9,9,9,,,,,,,,,,,,,,,,,['num_0'],10,0.0511035268464,1,['num_0'],0,[1.1102587360910547],,,,,,,,,2018_Apr_28_1701,60.0405689,sequenceLearningTask,001,085,
min1.png,min2.png,min3.png,min4.png,allBlank.png,,,,['num_4'],,,,,,0,9,9,9,,,,,,,,,,,,,,,,,['num_4'],10,0.0597509008185,1,['num_4'],0,[1.035491648624884],,,,,,,,,2018_Apr_28_1701,60.0405689,sequenceLearningTask,001,085,
min1.png,min2.png,min3.png,min4.png,allBlank.png,,,,['num_1'],,,,,,0,9,9,9,,,,,,,,,,,,,,,,,['num_1'],10,0.0589898761136,1,['num_1'],0,[0.669407586370653],,,,,,,,,2018_Apr_28_1701,60.0405689,sequenceLearningTask,001,085,
min1.png,min2.png,min3.png,min4.png,allBlank.png,,,,['num_0'],,,,,,0,9,9,9,,,,,,,,,,,,,,,,,['num_0'],10,0.0534272162949,1,['num_0'],0,[0.3252057535937638],,,,,,,,,2018_Apr_28_1701,60.0405689,sequenceLearningTask,001,085,
min1.png,min2.png,min3.png,min4.png,allBlank.png,,,,,,,,,,0,9,9,9,,,,,0,-1,-1,0,,,,,,,,,,,,,,,,,,,,,,,,2018_Apr_28_1701,60.0405689,sequenceLearningTask,001,085,
min1.png,min2.png,min3.png,min4.png,allBlank.png,,,,,,,,,,0,9,9,9,,,,,0,-1,-1,0,,,,,,,,,,,,,,,,,['1'],,,,,,,2018_Apr_28_1701,60.0405689,sequenceLearningTask,001,085,
min1.png,min2.png,min3.png,min4.png,allBlank.png,,,,,,,,,,0,9,9,9,,,,,0,-1,-1,0,,,,,,,,,,,,,,,,,['2'],,,,,,,2018_Apr_28_1701,60.0405689,sequenceLearningTask,001,085,
min1.png,min2.png,min3.png,min4.png,allBlank.png,,,,,,,,,,0,9,9,9,,,,,0,-1,-1,0,,,,,,,,,,,,,,,,,['2'],,,,,,,2018_Apr_28_1701,60.0405689,sequenceLearningTask,001,085,
min1.png,min2.png,min3.png,min4.png,allBlank.png,,,,,,,,,,0,9,9,9,,,,,0,-1,-1,0,,,,,,,,,,,,,,,,,['1'],,,,,,,2018_Apr_28_1701,60.0405689,sequenceLearningTask,001,085,
min1.png,min2.png,min3.png,min4.png,allBlank.png,,,,,,0,0,0,0,0,9,9,9,,,,,0,-1,-1,0,,,,,,,,,,,,,,,,,,return,10.7130575839,keyboard ,"[5.347601213208691, 5.797937069204636, 6.247235388018453, 6.680560393157066, 7.196955655028432, 7.712560764026421, 8.030649808431917, 8.247536105594918, 9.880177378243388]",,,2018_Apr_28_1701,60.0405689,sequenceLearningTask,001,085,
min1.png,min2.png,min3.png,min4.png,allBlank.png,,,,['3'],,,,,,0,9,9,9,,,,,0,-1,-1,0,0,0,0,0,,,,,['3'],1,,1,,,,,,,,,,['3'],18.3894719309,2018_Apr_28_1701,60.0405689,sequenceLearningTask,001,085,
min1.png,min2.png,min3.png,min4.png,allBlank.png,,,,['2'],,,,,,0,9,9,9,,,,,0,-1,-1,0,0,0,0,0,,,,,['2'],1,,0,,,,,,,,,,['1'],6.31581663694,2018_Apr_28_1701,60.0405689,sequenceLearningTask,001,085,
min1.png,min2.png,min3.png,min4.png,allBlank.png,,,,['4'],,,,,,0,9,9,9,,,,,0,-1,-1,0,0,0,0,0,,,,,['4'],1,,0,,,,,,,,,,['3'],7.18179505831,2018_Apr_28_1701,60.0405689,sequenceLearningTask,001,085,
min1.png,min2.png,min3.png,min4.png,allBlank.png,,,,['4'],,,,,,0,9,9,9,,,,,0,-1,-1,0,0,0,0,0,,,,,['4'],1,,0,,,,,,,,,,['1'],3.64955858516,2018_Apr_28_1701,60.0405689,sequenceLearningTask,001,085,
min1.png,min2.png,min3.png,min4.png,allBlank.png,,,,['2'],,,,,,0,9,9,9,,,,,0,-1,-1,0,0,0,0,0,,,,,['2'],1,,0,,,,,,,,,,['1'],3.43248972411,2018_Apr_28_1701,60.0405689,sequenceLearningTask,001,085,
min1.png,min2.png,min3.png,min4.png,allBlank.png,,,,['3'],,,,,,0,9,9,9,,,,,0,-1,-1,0,0,0,0,0,,,,,['3'],1,,1,,,,,,,,,,['3'],5.46556168341,2018_Apr_28_1701,60.0405689,sequenceLearningTask,001,085,
min1.png,min2.png,min3.png,min4.png,allBlank.png,,,,['4'],,,,,,0,9,9,9,,,,,0,-1,-1,0,0,0,0,0,,,,,['4'],1,,0,,,,,,,,,,['3'],2.13560762797,2018_Apr_28_1701,60.0405689,sequenceLearningTask,001,085,
min1.png,min2.png,min3.png,min4.png,allBlank.png,,,,['2'],,,,,,0,9,9,9,,,,,0,-1,-1,0,0,0,0,0,,,,,['2'],1,,0,,,,,,,,,,['1'],3.48190915047,2018_Apr_28_1701,60.0405689,sequenceLearningTask,001,085,
min1.png,min2.png,min3.png,min4.png,allBlank.png,,,,['1'],,,,,,0,9,9,9,,,,,0,-1,-1,0,0,0,0,0,,,,,['1'],1,,0,,,,,,,,,,['3'],5.44991288216,2018_Apr_28_1701,60.0405689,sequenceLearningTask,001,085,
min1.png,min2.png,min3.png,min4.png,allBlank.png,,,,['1'],,,,,,0,9,9,9,,,,,0,-1,-1,0,0,0,0,0,0,0,0,0,['1'],1,,0,,,,,,,,,,['3'],15.5515726545,2018_Apr_28_1701,60.0405689,sequenceLearningTask,001,085,
min1.png,min2.png,min3.png,min4.png,allBlank.png,,,,['3'],,,,,,0,9,9,9,,,,,0,-1,-1,0,0,0,0,0,0,0,0,0,['3'],1,,1,,,,,,,,,,['3'],19.9604915358,2018_Apr_28_1701,60.0405689,sequenceLearningTask,001,085,
