pawPatrol1,pawPatrol2,pawPatrol3,pawPatrol4,blank,allowableKey,correctKey,correctKeyPressNum,posLoc,correctKeyPress,randomPaw,im_size,trials.thisRepN,trials.thisTrialN,trials.thisN,trials.thisIndex,trials_3.thisRepN,trials_3.thisTrialN,trials_3.thisN,trials_3.thisIndex,trials_2.thisRepN,trials_2.thisTrialN,trials_2.thisN,trials_2.thisIndex,trials_questions.thisRepN,trials_questions.thisTrialN,trials_questions.thisN,trials_questions.thisIndex,trials_test.thisRepN,trials_test.thisTrialN,trials_test.thisN,trials_test.thisIndex,trials_recogtest.thisRepN,trials_recogtest.thisTrialN,trials_recogtest.thisN,trials_recogtest.thisIndex,correctLocation,correctImage,repetitionNumber,stimulusPresent.t,responseTimeCorrect,pressLoc,responseTimeIncorrect,trialIncorrect,questionsResponses,AnswerFinished.keys,AnswerFinished.rt,RecordAnswer.keys,RecordAnswer.rt,correctKey,trialCorrect,recallResponse,recallResponseTime,date,frameRate,expName,session,participant,
min1.png,min2.png,min3.png,min4.png,allBlank.png,,,,,,,,,,,,0,0,0,0,,,,,,,,,,,,,,,,,"(-0.75, -0.04)",images/min1.png,1,0.0736680723412,0.566425613774,[ 0.759375   -0.03055556],,,,,,,,,,,,2018_Jun_22_1502,59.7365222207,sequenceLearningTask,001,089,
min1.png,min2.png,min3.png,min4.png,allBlank.png,,,,,,,,,,,,0,0,0,0,,,,,,,,,,,,,,,,,"(0.25, -0.04)",images/min3.png,1,0.0879782203165,0.568142946403,[-0.7765625 -0.025    ],,,,,,,,,,,,2018_Jun_22_1502,59.7365222207,sequenceLearningTask,001,089,
min1.png,min2.png,min3.png,min4.png,allBlank.png,,,,,,,,,,,,0,0,0,0,,,,,,,,,,,,,,,,,"(-0.25, -0.04)",images/min2.png,1,0.0749772000095,0.495979693957,[ 0.1984375  -0.04166667],,,,,,,,,,,,2018_Jun_22_1502,59.7365222207,sequenceLearningTask,001,089,
min1.png,min2.png,min3.png,min4.png,allBlank.png,,,,,,,,,,,,0,0,0,0,,,,,,,,,,,,,,,,,"(0.75, -0.04)",images/min4.png,1,0.0811757615688,0.574811661616,[-0.31875    -0.03055556],,,,,,,,,,,,2018_Jun_22_1502,59.7365222207,sequenceLearningTask,001,089,
min1.png,min2.png,min3.png,min4.png,allBlank.png,,,,,,,,,,,,0,0,0,0,,,,,,,,,,,,,,,,,"(0.75, -0.04)",images/min4.png,1,0.0587864374206,0.577549301518,[ 0.6640625  -0.14444444],,,,,,,,,,,,2018_Jun_22_1502,59.7365222207,sequenceLearningTask,001,089,
min1.png,min2.png,min3.png,min4.png,allBlank.png,,,,,,,,,,,,0,0,0,0,,,,,,,,,,,,,,,,,"(-0.25, -0.04)",images/min2.png,1,0.059349308985,0.498496205745,[ 0.6234375  -0.18333333],,,,,,,,,,,,2018_Jun_22_1502,59.7365222207,sequenceLearningTask,001,089,
min1.png,min2.png,min3.png,min4.png,allBlank.png,,,,,,,,,,,,0,0,0,0,,,,,,,,,,,,,,,,,"(0.25, -0.04)",images/min3.png,1,0.063798537929,0.455992838567,[-0.2578125 -0.225    ],,,,,,,,,,,,2018_Jun_22_1502,59.7365222207,sequenceLearningTask,001,089,
min1.png,min2.png,min3.png,min4.png,allBlank.png,,,,,,,,,,,,0,0,0,0,,,,,,,,,,,,,,,,,"(0.75, -0.04)",images/min4.png,1,0.0621173078493,0.642434197975,[ 0.3015625  -0.23888889],,,,,,,,,,,,2018_Jun_22_1502,59.7365222207,sequenceLearningTask,001,089,
min1.png,min2.png,min3.png,min4.png,allBlank.png,,,,,,,,,,,,0,1,1,1,,,,,,,,,,,,,,,,,"(-0.75, -0.04)",images/min1.png,2,0.0611605902932,0.454803915978,[ 0.725      -0.18611111],,,,,,,,,,,,2018_Jun_22_1502,59.7365222207,sequenceLearningTask,001,089,
min1.png,min2.png,min3.png,min4.png,allBlank.png,,,,,,,,,,,,0,1,1,1,,,,,,,,,,,,,,,,,"(0.25, -0.04)",images/min3.png,2,0.0527971065449,0.504722664729,[-0.7203125  -0.10277778],,,,,,,,,,,,2018_Jun_22_1502,59.7365222207,sequenceLearningTask,001,089,
min1.png,min2.png,min3.png,min4.png,allBlank.png,,,,,,,,,,,,0,1,1,1,,,,,,,,,,,,,,,,,"(-0.25, -0.04)",images/min2.png,2,0.0502407999015,0.521309734847,[ 0.296875   -0.03333333],,,,,,,,,,,,2018_Jun_22_1502,59.7365222207,sequenceLearningTask,001,089,
min1.png,min2.png,min3.png,min4.png,allBlank.png,,,,,,,,,,,,0,1,1,1,,,,,,,,,,,,,,,,,"(0.75, -0.04)",images/min4.png,2,0.0556967976627,0.485330672685,[-0.3140625  -0.06388889],,,,,,,,,,,,2018_Jun_22_1502,59.7365222207,sequenceLearningTask,001,089,
min1.png,min2.png,min3.png,min4.png,allBlank.png,,,,,,,,,,,,0,1,1,1,,,,,,,,,,,,,,,,,"(0.75, -0.04)",images/min4.png,2,0.0531876704867,0.754383280253,[ 0.8390625  -0.18333333],,,,,,,,,,,,2018_Jun_22_1502,59.7365222207,sequenceLearningTask,001,089,
min1.png,min2.png,min3.png,min4.png,allBlank.png,,,,,,,,,,,,0,1,1,1,,,,,,,,,,,,,,,,,"(-0.25, -0.04)",images/min2.png,2,0.0660159729164,0.470590576168,[ 0.784375   -0.23611111],,,,,,,,,,,,2018_Jun_22_1502,59.7365222207,sequenceLearningTask,001,089,
min1.png,min2.png,min3.png,min4.png,allBlank.png,,,,,,,,,,,,0,1,1,1,,,,,,,,,,,,,,,,,"(0.25, -0.04)",images/min3.png,2,0.063298025314,0.457881658305,[-0.2609375  -0.11388889],,,,,,,,,,,,2018_Jun_22_1502,59.7365222207,sequenceLearningTask,001,089,
min1.png,min2.png,min3.png,min4.png,allBlank.png,,,,,,,,,,,,0,1,1,1,,,,,,,,,,,,,,,,,"(0.75, -0.04)",images/min4.png,2,0.0603191547407,0.528595885704,[ 0.353125   -0.21944444],,,,,,,,,,,,2018_Jun_22_1502,59.7365222207,sequenceLearningTask,001,089,
min1.png,min2.png,min3.png,min4.png,allBlank.png,,,,,,,,,,,,0,2,2,2,,,,,,,,,,,,,,,,,"(-0.75, -0.04)",images/min1.png,3,0.0550449004945,0.670179007106,[ 0.7        -0.06666667],,,,,,,,,,,,2018_Jun_22_1502,59.7365222207,sequenceLearningTask,001,089,
min1.png,min2.png,min3.png,min4.png,allBlank.png,,,,,,,,,,,,0,2,2,2,,,,,,,,,,,,,,,,,"(0.25, -0.04)",images/min3.png,3,0.0637013071996,0.58852037394,[-0.6234375 -0.1      ],,,,,,,,,,,,2018_Jun_22_1502,59.7365222207,sequenceLearningTask,001,089,
min1.png,min2.png,min3.png,min4.png,allBlank.png,,,,,,,,,,,,0,2,2,2,,,,,,,,,,,,,,,,,"(-0.25, -0.04)",images/min2.png,3,0.0532709525041,0.48967938885,[ 0.2703125  -0.06388889],,,,,,,,,,,,2018_Jun_22_1502,59.7365222207,sequenceLearningTask,001,089,
min1.png,min2.png,min3.png,min4.png,allBlank.png,,,,,,,,,,,,0,2,2,2,,,,,,,,,,,,,,,,,"(0.75, -0.04)",images/min4.png,3,0.0578674634389,0.53015526968,[-0.290625   -0.08055556],,,,,,,,,,,,2018_Jun_22_1502,59.7365222207,sequenceLearningTask,001,089,
min1.png,min2.png,min3.png,min4.png,allBlank.png,,,,,,,,,,,,0,2,2,2,,,,,,,,,,,,,,,,,"(0.75, -0.04)",images/min4.png,3,0.0585944374998,0.695186996846,[ 0.6796875  -0.02222222],,,,,,,,,,,,2018_Jun_22_1502,59.7365222207,sequenceLearningTask,001,089,
min1.png,min2.png,min3.png,min4.png,allBlank.png,,,,,,,,,,,,0,2,2,2,,,,,,,,,,,,,,,,,"(-0.25, -0.04)",images/min2.png,3,0.057197514996,0.479393444351,[ 0.7796875  -0.17777778],,,,,,,,,,,,2018_Jun_22_1502,59.7365222207,sequenceLearningTask,001,089,
min1.png,min2.png,min3.png,min4.png,allBlank.png,,,,,,,,,,,,0,2,2,2,,,,,,,,,,,,,,,,,"(0.25, -0.04)",images/min3.png,3,0.0521456196325,0.438188538179,[-0.2515625  -0.11388889],,,,,,,,,,,,2018_Jun_22_1502,59.7365222207,sequenceLearningTask,001,089,
min1.png,min2.png,min3.png,min4.png,allBlank.png,,,,,,,,,,,,0,2,2,2,,,,,,,,,,,,,,,,,"(0.75, -0.04)",images/min4.png,3,0.0544980289242,0.716765244404,[ 0.209375   -0.14444444],,,,,,,,,,,,2018_Jun_22_1502,59.7365222207,sequenceLearningTask,001,089,
min1.png,min2.png,min3.png,min4.png,allBlank.png,,,,,,,,,,,,0,3,3,3,,,,,,,,,,,,,,,,,"(-0.75, -0.04)",images/min1.png,4,0.0637054097615,0.45480145444,[ 0.75625    -0.11666667],,,,,,,,,,,,2018_Jun_22_1502,59.7365222207,sequenceLearningTask,001,089,
min1.png,min2.png,min3.png,min4.png,allBlank.png,,,,,,,,,,,,0,3,3,3,,,,,,,,,,,,,,,,,"(0.25, -0.04)",images/min3.png,4,0.062276487271,0.459672426801,[-0.6984375  -0.06666667],,,,,,,,,,,,2018_Jun_22_1502,59.7365222207,sequenceLearningTask,001,089,
min1.png,min2.png,min3.png,min4.png,allBlank.png,,,,,,,,,,,,0,3,3,3,,,,,,,,,,,,,,,,,"(-0.25, -0.04)",images/min2.png,4,0.0679585362222,0.457284325217,[ 0.3703125  -0.09722222],,,,,,,,,,,,2018_Jun_22_1502,59.7365222207,sequenceLearningTask,001,089,
min1.png,min2.png,min3.png,min4.png,allBlank.png,,,,,,,,,,,,0,3,3,3,,,,,,,,,,,,,,,,,"(0.75, -0.04)",images/min4.png,4,0.0586986425851,0.430236541441,[-0.4046875  -0.06388889],,,,,,,,,,,,2018_Jun_22_1502,59.7365222207,sequenceLearningTask,001,089,
min1.png,min2.png,min3.png,min4.png,allBlank.png,,,,,,,,,,,,0,3,3,3,,,,,,,,,,,,,,,,,"(0.75, -0.04)",images/min4.png,4,0.0537411061573,0.676555619874,[ 0.7078125  -0.12222222],,,,,,,,,,,,2018_Jun_22_1502,59.7365222207,sequenceLearningTask,001,089,
min1.png,min2.png,min3.png,min4.png,allBlank.png,,,,,,,,,,,,0,3,3,3,,,,,,,,,,,,,,,,,"(-0.25, -0.04)",images/min2.png,4,0.0652516655377,0.537987881851,[ 0.7265625  -0.20555556],,,,,,,,,,,,2018_Jun_22_1502,59.7365222207,sequenceLearningTask,001,089,
min1.png,min2.png,min3.png,min4.png,allBlank.png,,,,,,,,,,,,0,3,3,3,,,,,,,,,,,,,,,,,"(0.25, -0.04)",images/min3.png,4,0.0633534099061,0.441417665059,[-0.1734375  -0.13611111],,,,,,,,,,,,2018_Jun_22_1502,59.7365222207,sequenceLearningTask,001,089,
min1.png,min2.png,min3.png,min4.png,allBlank.png,,,,,,,,,,,,0,3,3,3,,,,,,,,,,,,,,,,,"(0.75, -0.04)",images/min4.png,4,0.0654777167269,0.672612236877,[ 0.2140625  -0.05277778],,,,,,,,,,,,2018_Jun_22_1502,59.7365222207,sequenceLearningTask,001,089,
min1.png,min2.png,min3.png,min4.png,allBlank.png,,,,,,,,,,,,0,4,4,4,,,,,,,,,,,,,,,,,"(-0.75, -0.04)",images/min1.png,5,0.050829107352,0.67042967367,[ 0.6734375  -0.14722222],,,,,,,,,,,,2018_Jun_22_1502,59.7365222207,sequenceLearningTask,001,089,
min1.png,min2.png,min3.png,min4.png,allBlank.png,,,,,,,,,,,,0,4,4,4,,,,,,,,,,,,,,,,,"(0.25, -0.04)",images/min3.png,5,0.0546034647778,0.517073018636,[-0.615625   -0.09166667],,,,,,,,,,,,2018_Jun_22_1502,59.7365222207,sequenceLearningTask,001,089,
min1.png,min2.png,min3.png,min4.png,allBlank.png,,,,,,,,,,,,0,4,4,4,,,,,,,,,,,,,,,,,"(-0.25, -0.04)",images/min2.png,5,0.0575413097267,0.648569580074,[ 0.2484375  -0.13611111],,,,,,,,,,,,2018_Jun_22_1502,59.7365222207,sequenceLearningTask,001,089,
min1.png,min2.png,min3.png,min4.png,allBlank.png,,,,,,,,,,,,0,4,4,4,,,,,,,,,,,,,,,,,"(0.75, -0.04)",images/min4.png,5,0.0621505386048,0.506834663863,[-0.2265625  -0.04722222],,,,,,,,,,,,2018_Jun_22_1502,59.7365222207,sequenceLearningTask,001,089,
min1.png,min2.png,min3.png,min4.png,allBlank.png,,,,,,,,,,,,0,4,4,4,,,,,,,,,,,,,,,,,"(0.75, -0.04)",images/min4.png,5,0.0577698224533,0.714253245435,[ 0.7375     -0.34722222],,,,,,,,,,,,2018_Jun_22_1502,59.7365222207,sequenceLearningTask,001,089,
min1.png,min2.png,min3.png,min4.png,allBlank.png,,,,,,,,,,,,0,4,4,4,,,,,,,,,,,,,,,,,"(-0.25, -0.04)",images/min2.png,5,0.0518629530816,0.569332279248,[ 0.8390625  -0.25833333],,,,,,,,,,,,2018_Jun_22_1502,59.7365222207,sequenceLearningTask,001,089,
min1.png,min2.png,min3.png,min4.png,allBlank.png,,,,,,,,,,,,0,4,4,4,,,,,,,,,,,,,,,,,"(0.25, -0.04)",images/min3.png,5,0.0535244908615,0.432077361199,[-0.25       -0.14166667],,,,,,,,,,,,2018_Jun_22_1502,59.7365222207,sequenceLearningTask,001,089,
min1.png,min2.png,min3.png,min4.png,allBlank.png,,,,,,,,,,,,0,4,4,4,,,,,,,,,,,,,,,,,"(0.75, -0.04)",images/min4.png,5,0.053225003805,0.501362666108,[ 0.340625   -0.26666667],,,,,,,,,,,,2018_Jun_22_1502,59.7365222207,sequenceLearningTask,001,089,
min1.png,min2.png,min3.png,min4.png,allBlank.png,,,,,,,,,,,,0,5,5,5,,,,,,,,,,,,,,,,,"(-0.75, -0.04)",images/min1.png,6,0.0655285885009,0.487087800169,[ 0.7453125  -0.26666667],,,,,,,,,,,,2018_Jun_22_1502,59.7365222207,sequenceLearningTask,001,089,
min1.png,min2.png,min3.png,min4.png,allBlank.png,,,,,,,,,,,,0,5,5,5,,,,,,,,,,,,,,,,,"(0.25, -0.04)",images/min3.png,6,0.0635999739075,0.422703826583,[-0.5734375 -0.2      ],,,,,,,,,,,,2018_Jun_22_1502,59.7365222207,sequenceLearningTask,001,089,
min1.png,min2.png,min3.png,min4.png,allBlank.png,,,,,,,,,,,,0,5,5,5,,,,,,,,,,,,,,,,,"(-0.25, -0.04)",images/min2.png,6,0.0606855135652,0.614240158261,[ 0.1609375 -0.225    ],,,,,,,,,,,,2018_Jun_22_1502,59.7365222207,sequenceLearningTask,001,089,
min1.png,min2.png,min3.png,min4.png,allBlank.png,,,,,,,,,,,,0,5,5,5,,,,,,,,,,,,,,,,,"(0.75, -0.04)",images/min4.png,6,0.0603429496027,0.392172146801,[-0.3328125  -0.25555556],,,,,,,,,,,,2018_Jun_22_1502,59.7365222207,sequenceLearningTask,001,089,
min1.png,min2.png,min3.png,min4.png,allBlank.png,,,,,,,,,,,,0,5,5,5,,,,,,,,,,,,,,,,,"(0.75, -0.04)",images/min4.png,6,0.0605267443993,0.74772112914,[ 0.690625   -0.25555556],,,,,,,,,,,,2018_Jun_22_1502,59.7365222207,sequenceLearningTask,001,089,
min1.png,min2.png,min3.png,min4.png,allBlank.png,,,,,,,,,,,,0,5,5,5,,,,,,,,,,,,,,,,,"(-0.25, -0.04)",images/min2.png,6,0.0521599786011,0.508591791347,[ 0.621875   -0.14444444],,,,,,,,,,,,2018_Jun_22_1502,59.7365222207,sequenceLearningTask,001,089,
min1.png,min2.png,min3.png,min4.png,allBlank.png,,,,,,,,,,,,0,5,5,5,,,,,,,,,,,,,,,,,"(0.25, -0.04)",images/min3.png,6,0.0618797694851,0.475644522813,[-0.2328125  -0.10833333],,,,,,,,,,,,2018_Jun_22_1502,59.7365222207,sequenceLearningTask,001,089,
min1.png,min2.png,min3.png,min4.png,allBlank.png,,,,,,,,,,,,0,5,5,5,,,,,,,,,,,,,,,,,"(0.75, -0.04)",images/min4.png,6,0.061321820996,0.394412966395,[ 0.1921875  -0.11944444],,,,,,,,,,,,2018_Jun_22_1502,59.7365222207,sequenceLearningTask,001,089,
min1.png,min2.png,min3.png,min4.png,allBlank.png,,,,,,,,,,,,0,6,6,6,,,,,,,,,,,,,,,,,"(-0.75, -0.04)",images/min1.png,7,0.0588422322699,0.779519680197,[ 0.6453125  -0.06944444],,,,,,,,,,,,2018_Jun_22_1502,59.7365222207,sequenceLearningTask,001,089,
min1.png,min2.png,min3.png,min4.png,allBlank.png,,,,,,,,,,,,0,6,6,6,,,,,,,,,,,,,,,,,"(0.25, -0.04)",images/min3.png,7,0.0544049007567,0.750498974154,[-0.73125    -0.01388889],,,,,,,,,,,,2018_Jun_22_1502,59.7365222207,sequenceLearningTask,001,089,
min1.png,min2.png,min3.png,min4.png,allBlank.png,,,,,,,,,,,,0,6,6,6,,,,,,,,,,,,,,,,,"(-0.25, -0.04)",images/min2.png,7,0.0664967932321,0.621659642396,[ 0.353125 -0.025   ],,,,,,,,,,,,2018_Jun_22_1502,59.7365222207,sequenceLearningTask,001,089,
min1.png,min2.png,min3.png,min4.png,allBlank.png,,,,,,,,,,,,0,6,6,6,,,,,,,,,,,,,,,,,"(0.75, -0.04)",images/min4.png,7,0.0586288990239,0.482464622579,[-0.1046875  -0.11944444],,,,,,,,,,,,2018_Jun_22_1502,59.7365222207,sequenceLearningTask,001,089,
min1.png,min2.png,min3.png,min4.png,allBlank.png,,,,,,,,,,,,0,6,6,6,,,,,,,,,,,,,,,,,"(0.75, -0.04)",images/min4.png,7,0.0582732068624,0.611681800336,[ 0.615625   -0.20833333],,,,,,,,,,,,2018_Jun_22_1502,59.7365222207,sequenceLearningTask,001,089,
min1.png,min2.png,min3.png,min4.png,allBlank.png,,,,,,,,,,,,0,6,6,6,,,,,,,,,,,,,,,,,"(-0.25, -0.04)",images/min2.png,7,0.058651052861,0.483245340207,[ 0.653125 -0.175   ],,,,,,,,,,,,2018_Jun_22_1502,59.7365222207,sequenceLearningTask,001,089,
min1.png,min2.png,min3.png,min4.png,allBlank.png,,,,,,,,,,,,0,6,6,6,,,,,,,,,,,,,,,,,"(0.25, -0.04)",images/min3.png,7,0.0631884868967,0.508413329882,[-0.2359375  -0.08055556],,,,,,,,,,,,2018_Jun_22_1502,59.7365222207,sequenceLearningTask,001,089,
min1.png,min2.png,min3.png,min4.png,allBlank.png,,,,,,,,,,,,0,6,6,6,,,,,,,,,,,,,,,,,"(0.75, -0.04)",images/min4.png,7,0.0538658240553,0.58249986359,[ 0.3609375  -0.26111111],,,,,,,,,,,,2018_Jun_22_1502,59.7365222207,sequenceLearningTask,001,089,
min1.png,min2.png,min3.png,min4.png,allBlank.png,,,,,,,,,,,,0,7,7,7,,,,,,,,,,,,,,,,,"(-0.75, -0.04)",images/min1.png,8,0.048002031589,0.57320099561,[ 0.6421875  -0.23611111],,,,,,,,,,,,2018_Jun_22_1502,59.7365222207,sequenceLearningTask,001,089,
min1.png,min2.png,min3.png,min4.png,allBlank.png,,,,,,,,,,,,0,7,7,7,,,,,,,,,,,,,,,,,"(0.25, -0.04)",images/min3.png,8,0.0580980274472,0.462120425797,[-0.6328125  -0.06111111],,,,,,,,,,,,2018_Jun_22_1502,59.7365222207,sequenceLearningTask,001,089,
min1.png,min2.png,min3.png,min4.png,allBlank.png,,,,,,,,,,,,0,7,7,7,,,,,,,,,,,,,,,,,"(-0.25, -0.04)",images/min2.png,8,0.0608799750235,0.793799058954,[ 0.1875     -0.03055556],,,,,,,,,,,,2018_Jun_22_1502,59.7365222207,sequenceLearningTask,001,089,
min1.png,min2.png,min3.png,min4.png,allBlank.png,,,,,,,,,,,,0,7,7,7,,,,,,,,,,,,,,,,,"(0.75, -0.04)",images/min4.png,8,0.0641193583097,0.526714860835,[-0.315625   -0.01388889],,,,,,,,,,,,2018_Jun_22_1502,59.7365222207,sequenceLearningTask,001,089,
min1.png,min2.png,min3.png,min4.png,allBlank.png,,,,,,,,,,,,0,7,7,7,,,,,,,,,,,,,,,,,"(0.75, -0.04)",images/min4.png,8,0.0523466451909,0.604256162356,[ 0.7484375  -0.16388889],,,,,,,,,,,,2018_Jun_22_1502,59.7365222207,sequenceLearningTask,001,089,
min1.png,min2.png,min3.png,min4.png,allBlank.png,,,,,,,,,,,,0,7,7,7,,,,,,,,,,,,,,,,,"(-0.25, -0.04)",images/min2.png,8,0.0588065399766,0.596885088457,[ 0.765625   -0.20833333],,,,,,,,,,,,2018_Jun_22_1502,59.7365222207,sequenceLearningTask,001,089,
min1.png,min2.png,min3.png,min4.png,allBlank.png,,,,,,,,,,,,0,7,7,7,,,,,,,,,,,,,,,,,"(0.25, -0.04)",images/min3.png,8,0.0608286929933,0.529584603247,[-0.140625    0.01666667],,,,,,,,,,,,2018_Jun_22_1502,59.7365222207,sequenceLearningTask,001,089,
min1.png,min2.png,min3.png,min4.png,allBlank.png,,,,,,,,,,,,0,7,7,7,,,,,,,,,,,,,,,,,"(0.75, -0.04)",images/min4.png,8,0.0554330028995,0.517908300345,[ 0.2140625  -0.03055556],,,,,,,,,,,,2018_Jun_22_1502,59.7365222207,sequenceLearningTask,001,089,
min1.png,min2.png,min3.png,min4.png,allBlank.png,,,,,,,,,,,,0,8,8,8,,,,,,,,,,,,,,,,,"(-0.75, -0.04)",images/min1.png,9,0.0506777227988,0.836499759385,[ 0.6234375  -0.16666667],,,,,,,,,,,,2018_Jun_22_1502,59.7365222207,sequenceLearningTask,001,089,
min1.png,min2.png,min3.png,min4.png,allBlank.png,,,,,,,,,,,,0,8,8,8,,,,,,,,,,,,,,,,,"(0.25, -0.04)",images/min3.png,9,0.0549755671896,0.823611149287,[-0.6640625  -0.13611111],,,,,,,,,,,,2018_Jun_22_1502,59.7365222207,sequenceLearningTask,001,089,
min1.png,min2.png,min3.png,min4.png,allBlank.png,,,,,,,,,,,,0,8,8,8,,,,,,,,,,,,,,,,,"(-0.25, -0.04)",images/min2.png,9,0.0676262286661,0.572458021556,[ 0.15625    -0.05555556],,,,,,,,,,,,2018_Jun_22_1502,59.7365222207,sequenceLearningTask,001,089,
min1.png,min2.png,min3.png,min4.png,allBlank.png,,,,,,,,,,,,0,8,8,8,,,,,,,,,,,,,,,,,"(0.75, -0.04)",images/min4.png,9,0.0614436671003,0.662744753746,[-0.1359375  -0.04166667],,,,,,,,,,,,2018_Jun_22_1502,59.7365222207,sequenceLearningTask,001,089,
min1.png,min2.png,min3.png,min4.png,allBlank.png,,,,,,,,,,,,0,8,8,8,,,,,,,,,,,,,,,,,"(0.75, -0.04)",images/min4.png,9,0.0507618253287,0.641602198317,[ 0.6453125 -0.175    ],,,,,,,,,,,,2018_Jun_22_1502,59.7365222207,sequenceLearningTask,001,089,
min1.png,min2.png,min3.png,min4.png,allBlank.png,,,,,,,,,,,,0,8,8,8,,,,,,,,,,,,,,,,,"(-0.25, -0.04)",images/min2.png,9,0.0578375147334,0.615063132282,[ 0.6359375  -0.23055556],,,,,,,,,,,,2018_Jun_22_1502,59.7365222207,sequenceLearningTask,001,089,
min1.png,min2.png,min3.png,min4.png,allBlank.png,,,,,,,,,,,,0,8,8,8,,,,,,,,,,,,,,,,,"(0.25, -0.04)",images/min3.png,9,0.0574604892472,0.497873026514,[-0.0671875  -0.08611111],,,,,,,,,,,,2018_Jun_22_1502,59.7365222207,sequenceLearningTask,001,089,
min1.png,min2.png,min3.png,min4.png,allBlank.png,,,,,,,,,,,,0,8,8,8,,,,,,,,,,,,,,,,,"(0.75, -0.04)",images/min4.png,9,0.0299843979551,0.548896185068,[ 0.2515625  -0.08611111],,,,,,,,,,,,2018_Jun_22_1502,59.7365222207,sequenceLearningTask,001,089,
min1.png,min2.png,min3.png,min4.png,allBlank.png,,,,,,,,,,,,0,9,9,9,,,,,,,,,,,,,,,,,"(-0.75, -0.04)",images/min1.png,10,0.0578448993456,0.730134674817,[ 0.5984375  -0.28333333],,,,,,,,,,,,2018_Jun_22_1502,59.7365222207,sequenceLearningTask,001,089,
min1.png,min2.png,min3.png,min4.png,allBlank.png,,,,,,,,,,,,0,9,9,9,,,,,,,,,,,,,,,,,"(0.25, -0.04)",images/min3.png,10,0.0752180204236,0.668259828406,[-0.6859375 -0.15     ],,,,,,,,,,,,2018_Jun_22_1502,59.7365222207,sequenceLearningTask,001,089,
min1.png,min2.png,min3.png,min4.png,allBlank.png,,,,,,,,,,,,0,9,9,9,,,,,,,,,,,,,,,,,"(-0.25, -0.04)",images/min2.png,10,0.0620389489072,0.583545196494,[ 0.2171875  -0.03611111],,,,,,,,,,,,2018_Jun_22_1502,59.7365222207,sequenceLearningTask,001,089,
min1.png,min2.png,min3.png,min4.png,allBlank.png,,,,,,,,,,,,0,9,9,9,,,,,,,,,,,,,,,,,"(0.75, -0.04)",images/min4.png,10,0.060266231686,0.445834073504,[-0.1078125  -0.05833333],,,,,,,,,,,,2018_Jun_22_1502,59.7365222207,sequenceLearningTask,001,089,
min1.png,min2.png,min3.png,min4.png,allBlank.png,,,,,,,,,,,,0,9,9,9,,,,,,,,,,,,,,,,,"(0.75, -0.04)",images/min4.png,10,0.0652048963266,0.659879934408,[ 0.565625   -0.16944444],,,,,,,,,,,,2018_Jun_22_1502,59.7365222207,sequenceLearningTask,001,089,
min1.png,min2.png,min3.png,min4.png,allBlank.png,,,,,,,,,,,,0,9,9,9,,,,,,,,,,,,,,,,,"(-0.25, -0.04)",images/min2.png,10,0.0567868484977,0.450213148631,[ 0.64375    -0.31388889],,,,,,,,,,,,2018_Jun_22_1502,59.7365222207,sequenceLearningTask,001,089,
min1.png,min2.png,min3.png,min4.png,allBlank.png,,,,,,,,,,,,0,9,9,9,,,,,,,,,,,,,,,,,"(0.25, -0.04)",images/min3.png,10,0.0583700273355,0.414477778676,[-0.1578125 -0.025    ],,,,,,,,,,,,2018_Jun_22_1502,59.7365222207,sequenceLearningTask,001,089,
min1.png,min2.png,min3.png,min4.png,allBlank.png,,,,,,,,,,,,0,9,9,9,,,,,,,,,,,,,,,,,"(0.75, -0.04)",images/min4.png,10,0.0541599777807,0.501806153105,[ 0.2328125   0.04722222],,,,,,,,,,,,2018_Jun_22_1502,59.7365222207,sequenceLearningTask,001,089,
min1.png,min2.png,min3.png,min4.png,images/allBlank.png,"['num_7', 'num_4', 'num_1', 'num_0']",['num_0'],num_0,[4],'num_0',images/min4.png,"[(0.45, 0.79)]",,,,,0,-1,-1,0,0,0,0,3,,,,,,,,,,,,,"(-0.75, 0.04)",images/min1.png,1,0.0616024362657,0.723194780227,[ 0.6703125  -0.21944444],,,,,,,,['num_0'],,,,2018_Jun_22_1502,59.7365222207,sequenceLearningTask,001,089,
min1.png,min2.png,min3.png,min4.png,images/allBlank.png,"['num_7', 'num_4', 'num_1', 'num_0']",['num_0'],num_0,[4],'num_0',images/min4.png,"[(0.45, 0.79)]",,,,,0,-1,-1,0,0,0,0,3,,,,,,,,,,,,,"(0.25, 0.04)",images/min3.png,1,0.0596615139848,0.514391173583,[-0.7640625  -0.24444444],,,,,,,,['num_0'],,,,2018_Jun_22_1502,59.7365222207,sequenceLearningTask,001,089,
min1.png,min2.png,min3.png,min4.png,images/allBlank.png,"['num_7', 'num_4', 'num_1', 'num_0']",['num_0'],num_0,[4],'num_0',images/min4.png,"[(0.45, 0.79)]",,,,,0,-1,-1,0,0,0,0,3,,,,,,,,,,,,,"(0.25, 0.04)",images/min3.png,1,0.0652795629621,0.509943585664,[ 0.1859375  -0.31388889],,,,,,,,['num_0'],,,,2018_Jun_22_1502,59.7365222207,sequenceLearningTask,001,089,
min1.png,min2.png,min3.png,min4.png,images/allBlank.png,"['num_7', 'num_4', 'num_1', 'num_0']",['num_0'],num_0,[4],'num_0',images/min4.png,"[(0.45, 0.79)]",,,,,0,-1,-1,0,0,0,0,3,,,,,,,,,,,,,"(0.75, 0.04)",images/min4.png,1,0.0575150533268,0.59818929305,[ 0.2203125  -0.09166667],,,,,,,,['num_0'],,,,2018_Jun_22_1502,59.7365222207,sequenceLearningTask,001,089,
min1.png,min2.png,min3.png,min4.png,images/allBlank.png,"['num_7', 'num_4', 'num_1', 'num_0']",['num_4'],num_4,[2],'num_4',images/min2.png,"[(0.45, 0.79)]",,,,,0,-1,-1,0,0,1,1,1,,,,,,,,,,,,,"(0.25, 0.04)",images/min3.png,2,0.0646933067924,0.574723456523,[ 0.6078125  -0.21666667],,,,,,,,['num_4'],,,,2018_Jun_22_1502,59.7365222207,sequenceLearningTask,001,089,
min1.png,min2.png,min3.png,min4.png,images/allBlank.png,"['num_7', 'num_4', 'num_1', 'num_0']",['num_4'],num_4,[2],'num_4',images/min2.png,"[(0.45, 0.79)]",,,,,0,-1,-1,0,0,1,1,1,,,,,,,,,,,,,"(0.75, 0.04)",images/min4.png,2,0.0636192559509,0.745162771215,[ 0.1515625  -0.05277778],,,,,,,,['num_4'],,,,2018_Jun_22_1502,59.7365222207,sequenceLearningTask,001,089,
min1.png,min2.png,min3.png,min4.png,images/allBlank.png,"['num_7', 'num_4', 'num_1', 'num_0']",['num_4'],num_4,[2],'num_4',images/min2.png,"[(0.45, 0.79)]",,,,,0,-1,-1,0,0,1,1,1,,,,,,,,,,,,,"(-0.75, 0.04)",images/min1.png,2,0.0665521778246,0.77421383622,[ 0.63125    -0.17222222],,,,,,,,['num_4'],,,,2018_Jun_22_1502,59.7365222207,sequenceLearningTask,001,089,
min1.png,min2.png,min3.png,min4.png,images/allBlank.png,"['num_7', 'num_4', 'num_1', 'num_0']",['num_4'],num_4,[2],'num_4',images/min2.png,"[(0.45, 0.79)]",,,,,0,-1,-1,0,0,1,1,1,,,,,,,,,,,,,"(0.75, 0.04)",images/min4.png,2,0.0708930991209,0.75179415311,[-0.7078125  -0.16111111],,,,,,,,['num_4'],,,,2018_Jun_22_1502,59.7365222207,sequenceLearningTask,001,089,
min1.png,min2.png,min3.png,min4.png,images/allBlank.png,"['num_7', 'num_4', 'num_1', 'num_0']",['num_7'],num_7,[1],'num_7',images/min1.png,"[(0.45, 0.79)]",,,,,0,-1,-1,0,0,2,2,0,,,,,,,,,,,,,"(0.75, 0.04)",images/min4.png,3,0.0643593582117,0.619165284445,[ 0.58125    -0.25277778],,,,,,,,['num_7'],,,,2018_Jun_22_1502,59.7365222207,sequenceLearningTask,001,089,
min1.png,min2.png,min3.png,min4.png,images/allBlank.png,"['num_7', 'num_4', 'num_1', 'num_0']",['num_7'],num_7,[1],'num_7',images/min1.png,"[(0.45, 0.79)]",,,,,0,-1,-1,0,0,2,2,0,,,,,,,,,,,,,"(0.75, 0.04)",images/min4.png,3,0.0602034624803,0.649218605449,[ 0.6546875 -0.225    ],,,,,,,,['num_7'],,,,2018_Jun_22_1502,59.7365222207,sequenceLearningTask,001,089,
min1.png,min2.png,min3.png,min4.png,images/allBlank.png,"['num_7', 'num_4', 'num_1', 'num_0']",['num_7'],num_7,[1],'num_7',images/min1.png,"[(0.45, 0.79)]",,,,,0,-1,-1,0,0,2,2,0,,,,,,,,,,,,,"(0.75, 0.04)",images/min4.png,3,0.0587564887151,0.458472427293,[ 0.6890625  -0.19166667],,,,,,,,['num_7'],,,,2018_Jun_22_1502,59.7365222207,sequenceLearningTask,001,089,
min1.png,min2.png,min3.png,min4.png,images/allBlank.png,"['num_7', 'num_4', 'num_1', 'num_0']",['num_7'],num_7,[1],'num_7',images/min1.png,"[(0.45, 0.79)]",,,,,0,-1,-1,0,0,2,2,0,,,,,,,,,,,,,"(0.75, 0.04)",images/min4.png,3,0.0748303282749,0.544517520198,[ 0.640625   -0.20277778],,,,,,,,['num_7'],,,,2018_Jun_22_1502,59.7365222207,sequenceLearningTask,001,089,
min1.png,min2.png,min3.png,min4.png,images/allBlank.png,"['num_7', 'num_4', 'num_1', 'num_0']",['num_1'],num_1,[3],'num_1',images/min3.png,"[(0.45, 0.79)]",,,,,0,-1,-1,0,0,3,3,2,,,,,,,,,,,,,"(-0.25, 0.04)",images/min2.png,4,0.0630904356553,0.707914786497,[ 0.6390625  -0.24166667],,,,,,,,['num_1'],,,,2018_Jun_22_1502,59.7365222207,sequenceLearningTask,001,089,
min1.png,min2.png,min3.png,min4.png,images/allBlank.png,"['num_7', 'num_4', 'num_1', 'num_0']",['num_1'],num_1,[3],'num_1',images/min3.png,"[(0.45, 0.79)]",,,,,0,-1,-1,0,0,3,3,2,,,,,,,,,,,,,"(-0.75, 0.04)",images/min1.png,4,0.0676816132586,0.754936305667,[-0.1015625  -0.08055556],,,,,,,,['num_1'],,,,2018_Jun_22_1502,59.7365222207,sequenceLearningTask,001,089,
min1.png,min2.png,min3.png,min4.png,images/allBlank.png,"['num_7', 'num_4', 'num_1', 'num_0']",['num_1'],num_1,[3],'num_1',images/min3.png,"[(0.45, 0.79)]",,,,,0,-1,-1,0,0,3,3,2,,,,,,,,,,,,,"(-0.75, 0.04)",images/min1.png,4,0.063798537929,0.607515237942,[-0.665625   -0.06944444],,,,,,,,['num_1'],,,,2018_Jun_22_1502,59.7365222207,sequenceLearningTask,001,089,
min1.png,min2.png,min3.png,min4.png,images/allBlank.png,"['num_7', 'num_4', 'num_1', 'num_0']",['num_1'],num_1,[3],'num_1',images/min3.png,"[(0.45, 0.79)]",,,,,0,-1,-1,0,0,3,3,2,,,,,,,,,,,,,"(0.25, 0.04)",images/min3.png,4,0.0657767935277,0.525333528068,[-0.6984375  -0.20555556],,,,,,,,['num_1'],,,,2018_Jun_22_1502,59.7365222207,sequenceLearningTask,001,089,
min1.png,min2.png,min3.png,min4.png,images/allBlank.png,"['num_7', 'num_4', 'num_1', 'num_0']",['num_1'],num_1,[3],'num_1',images/min3.png,"[(0.45, 0.79)]",,,,,0,-1,-1,0,1,0,4,2,,,,,,,,,,,,,"(0.25, 0.04)",images/min3.png,5,0.0602842829603,0.490830567865,[ 0.228125   -0.15277778],,,,,,,,['num_1'],,,,2018_Jun_22_1502,59.7365222207,sequenceLearningTask,001,089,
min1.png,min2.png,min3.png,min4.png,images/allBlank.png,"['num_7', 'num_4', 'num_1', 'num_0']",['num_1'],num_1,[3],'num_1',images/min3.png,"[(0.45, 0.79)]",,,,,0,-1,-1,0,1,0,4,2,,,,,,,,,,,,,"(-0.25, 0.04)",images/min2.png,5,0.106973494575,0.497251078051,[ 0.2421875  -0.26944444],,,,,,,,['num_1'],,,,2018_Jun_22_1502,59.7365222207,sequenceLearningTask,001,089,
min1.png,min2.png,min3.png,min4.png,images/allBlank.png,"['num_7', 'num_4', 'num_1', 'num_0']",['num_1'],num_1,[3],'num_1',images/min3.png,"[(0.45, 0.79)]",,,,,0,-1,-1,0,1,0,4,2,,,,,,,,,,,,,"(0.75, 0.04)",images/min4.png,5,0.0657497166158,0.554100285497,[-0.25       -0.04722222],,,,,,,,['num_1'],,,,2018_Jun_22_1502,59.7365222207,sequenceLearningTask,001,089,
min1.png,min2.png,min3.png,min4.png,images/allBlank.png,"['num_7', 'num_4', 'num_1', 'num_0']",['num_1'],num_1,[3],'num_1',images/min3.png,"[(0.45, 0.79)]",,,,,0,-1,-1,0,1,0,4,2,,,,,,,,,,,,,"(0.25, 0.04)",images/min3.png,5,0.0659913575419,0.523502964717,[ 0.7109375  -0.26388889],,,,,,,,['num_1'],,,,2018_Jun_22_1502,59.7365222207,sequenceLearningTask,001,089,
min1.png,min2.png,min3.png,min4.png,images/allBlank.png,"['num_7', 'num_4', 'num_1', 'num_0']",['num_0'],num_0,[4],'num_0',images/min4.png,"[(0.45, 0.79)]",,,,,0,-1,-1,0,1,1,5,3,,,,,,,,,,,,,"(-0.75, 0.04)",images/min1.png,6,0.0712832528066,0.461689246486,[ 0.2265625  -0.26944444],,,,,,,,['num_0'],,,,2018_Jun_22_1502,59.7365222207,sequenceLearningTask,001,089,
min1.png,min2.png,min3.png,min4.png,images/allBlank.png,"['num_7', 'num_4', 'num_1', 'num_0']",['num_0'],num_0,[4],'num_0',images/min4.png,"[(0.45, 0.79)]",,,,,0,-1,-1,0,1,1,5,3,,,,,,,,,,,,,"(-0.75, 0.04)",images/min1.png,6,0.0617431541568,0.977678368132,[-0.7125     -0.06944444],,,,,,,,['num_0'],,,,2018_Jun_22_1502,59.7365222207,sequenceLearningTask,001,089,
min1.png,min2.png,min3.png,min4.png,images/allBlank.png,"['num_7', 'num_4', 'num_1', 'num_0']",['num_0'],num_0,[4],'num_0',images/min4.png,"[(0.45, 0.79)]",,,,,0,-1,-1,0,1,1,5,3,,,,,,,,,,,,,"(-0.25, 0.04)",images/min2.png,6,0.0663166907416,0.49512348918,[-0.7328125   0.01944444],,,,,,,,['num_0'],,,,2018_Jun_22_1502,59.7365222207,sequenceLearningTask,001,089,
min1.png,min2.png,min3.png,min4.png,images/allBlank.png,"['num_7', 'num_4', 'num_1', 'num_0']",['num_0'],num_0,[4],'num_0',images/min4.png,"[(0.45, 0.79)]",,,,,0,-1,-1,0,1,1,5,3,,,,,,,,,,,,,"(-0.25, 0.04)",images/min2.png,6,0.0525132092253,0.508437535,[-0.3328125 -0.05     ],,,,,,,,['num_0'],,,,2018_Jun_22_1502,59.7365222207,sequenceLearningTask,001,089,
min1.png,min2.png,min3.png,min4.png,images/allBlank.png,"['num_7', 'num_4', 'num_1', 'num_0']",['num_4'],num_4,[2],'num_4',images/min2.png,"[(0.45, 0.79)]",,,,,0,-1,-1,0,1,2,6,1,,,,,,,,,,,,,"(-0.25, 0.04)",images/min2.png,7,0.063780076398,0.421876339743,[-0.1578125  -0.01666667],,,,,,,,['num_4'],,,,2018_Jun_22_1502,59.7365222207,sequenceLearningTask,001,089,
min1.png,min2.png,min3.png,min4.png,images/allBlank.png,"['num_7', 'num_4', 'num_1', 'num_0']",['num_4'],num_4,[2],'num_4',images/min2.png,"[(0.45, 0.79)]",,,,,0,-1,-1,0,1,2,6,1,,,,,,,,,,,,,"(-0.25, 0.04)",images/min2.png,7,0.0571302329722,0.469076730635,[-0.1484375  -0.02222222],,,,,,,,['num_4'],,,,2018_Jun_22_1502,59.7365222207,sequenceLearningTask,001,089,
min1.png,min2.png,min3.png,min4.png,images/allBlank.png,"['num_7', 'num_4', 'num_1', 'num_0']",['num_4'],num_4,[2],'num_4',images/min2.png,"[(0.45, 0.79)]",,,,,0,-1,-1,0,1,2,6,1,,,,,,,,,,,,,"(-0.75, 0.04)",images/min1.png,7,0.0540709521761,0.63293512495,[-0.2        -0.01111111],,,,,,,,['num_4'],,,,2018_Jun_22_1502,59.7365222207,sequenceLearningTask,001,089,
min1.png,min2.png,min3.png,min4.png,images/allBlank.png,"['num_7', 'num_4', 'num_1', 'num_0']",['num_4'],num_4,[2],'num_4',images/min2.png,"[(0.45, 0.79)]",,,,,0,-1,-1,0,1,2,6,1,,,,,,,,,,,,,"(-0.25, 0.04)",images/min2.png,7,0.0634945380534,0.459185862898,[-0.7328125   0.08055556],,,,,,,,['num_4'],,,,2018_Jun_22_1502,59.7365222207,sequenceLearningTask,001,089,
min1.png,min2.png,min3.png,min4.png,images/allBlank.png,"['num_7', 'num_4', 'num_1', 'num_0']",['num_7'],num_7,[1],'num_7',images/min1.png,"[(0.45, 0.79)]",,,,,0,-1,-1,0,1,3,7,0,,,,,,,,,,,,,"(0.25, 0.04)",images/min3.png,8,0.0589177194183,0.561468487602,[-0.2578125  -0.15277778],,,,,,,,['num_7'],,,,2018_Jun_22_1502,59.7365222207,sequenceLearningTask,001,089,
min1.png,min2.png,min3.png,min4.png,images/allBlank.png,"['num_7', 'num_4', 'num_1', 'num_0']",['num_7'],num_7,[1],'num_7',images/min1.png,"[(0.45, 0.79)]",,,,,0,-1,-1,0,1,3,7,0,,,,,,,,,,,,,"(-0.75, 0.04)",images/min1.png,8,0.0742038669937,0.680313156794,[ 0.246875   -0.20833333],,,,,,,,['num_7'],,,,2018_Jun_22_1502,59.7365222207,sequenceLearningTask,001,089,
min1.png,min2.png,min3.png,min4.png,images/allBlank.png,"['num_7', 'num_4', 'num_1', 'num_0']",['num_7'],num_7,[1],'num_7',images/min1.png,"[(0.45, 0.79)]",,,,,0,-1,-1,0,1,3,7,0,,,,,,,,,,,,,"(-0.25, 0.04)",images/min2.png,8,0.0644537171474,0.473492318567,[-0.728125   -0.16666667],,,,,,,,['num_7'],,,,2018_Jun_22_1502,59.7365222207,sequenceLearningTask,001,089,
min1.png,min2.png,min3.png,min4.png,images/allBlank.png,"['num_7', 'num_4', 'num_1', 'num_0']",['num_7'],num_7,[1],'num_7',images/min1.png,"[(0.45, 0.79)]",,,,,0,-1,-1,0,1,3,7,0,,,,,,,,,,,,,"(-0.75, 0.04)",images/min1.png,8,0.0635663328958,0.742058362232,[-0.2421875  -0.16944444],,,,,,,,['num_7'],,,,2018_Jun_22_1502,59.7365222207,sequenceLearningTask,001,089,
min1.png,min2.png,min3.png,min4.png,images/allBlank.png,"['num_7', 'num_4', 'num_1', 'num_0']",['num_4'],num_4,[2],'num_4',images/min2.png,"[(0.45, 0.79)]",,,,,0,-1,-1,0,2,0,8,1,,,,,,,,,,,,,"(0.25, 0.04)",images/min3.png,9,0.0661447933767,0.590250014256,[-0.6921875  -0.09444444],,,,,,,,['num_4'],,,,2018_Jun_22_1502,59.7365222207,sequenceLearningTask,001,089,
min1.png,min2.png,min3.png,min4.png,images/allBlank.png,"['num_7', 'num_4', 'num_1', 'num_0']",['num_4'],num_4,[2],'num_4',images/min2.png,"[(0.45, 0.79)]",,,,,0,-1,-1,0,2,0,8,1,,,,,,,,,,,,,"(0.75, 0.04)",images/min4.png,9,0.0525456194687,0.772231888315,[ 0.1640625  -0.25277778],,,,,,,,['num_4'],,,,2018_Jun_22_1502,59.7365222207,sequenceLearningTask,001,089,
min1.png,min2.png,min3.png,min4.png,images/allBlank.png,"['num_7', 'num_4', 'num_1', 'num_0']",['num_4'],num_4,[2],'num_4',images/min2.png,"[(0.45, 0.79)]",,,,,0,-1,-1,0,2,0,8,1,,,,,,,,,,,,,"(-0.25, 0.04)",images/min2.png,9,0.0704647916045,0.554753413434,[ 0.6625     -0.13611111],,,,,,,,['num_4'],,,,2018_Jun_22_1502,59.7365222207,sequenceLearningTask,001,089,
min1.png,min2.png,min3.png,min4.png,images/allBlank.png,"['num_7', 'num_4', 'num_1', 'num_0']",['num_4'],num_4,[2],'num_4',images/min2.png,"[(0.45, 0.79)]",,,,,0,-1,-1,0,2,0,8,1,,,,,,,,,,,,,"(-0.75, 0.04)",images/min1.png,9,0.0538042856188,0.702226583702,[-0.2484375  -0.23611111],,,,,,,,['num_4'],,,,2018_Jun_22_1502,59.7365222207,sequenceLearningTask,001,089,
min1.png,min2.png,min3.png,min4.png,images/allBlank.png,"['num_7', 'num_4', 'num_1', 'num_0']",['num_1'],num_1,[3],'num_1',images/min3.png,"[(0.45, 0.79)]",,,,,0,-1,-1,0,2,1,9,2,,,,,,,,,,,,,"(-0.25, 0.04)",images/min2.png,10,0.0819273510042,0.556799361313,[-0.7328125  -0.13611111],,,,,,,,['num_1'],,,,2018_Jun_22_1502,59.7365222207,sequenceLearningTask,001,089,
min1.png,min2.png,min3.png,min4.png,images/allBlank.png,"['num_7', 'num_4', 'num_1', 'num_0']",['num_1'],num_1,[3],'num_1',images/min3.png,"[(0.45, 0.79)]",,,,,0,-1,-1,0,2,1,9,2,,,,,,,,,,,,,"(-0.75, 0.04)",images/min1.png,10,0.0616939234078,0.659749062667,[-0.26875    -0.13055556],,,,,,,,['num_1'],,,,2018_Jun_22_1502,59.7365222207,sequenceLearningTask,001,089,
min1.png,min2.png,min3.png,min4.png,images/allBlank.png,"['num_7', 'num_4', 'num_1', 'num_0']",['num_1'],num_1,[3],'num_1',images/min3.png,"[(0.45, 0.79)]",,,,,0,-1,-1,0,2,1,9,2,,,,,,,,,,,,,"(0.75, 0.04)",images/min4.png,10,0.0626046922648,0.747552924081,[-0.8296875  -0.13055556],,,,,,,,['num_1'],,,,2018_Jun_22_1502,59.7365222207,sequenceLearningTask,001,089,
min1.png,min2.png,min3.png,min4.png,images/allBlank.png,"['num_7', 'num_4', 'num_1', 'num_0']",['num_1'],num_1,[3],'num_1',images/min3.png,"[(0.45, 0.79)]",,,,,0,-1,-1,0,2,1,9,2,,,,,,,,,,,,,"(0.75, 0.04)",images/min4.png,10,0.0577882839843,0.612203236019,[ 0.65625    -0.26388889],,,,,,,,['num_1'],,,,2018_Jun_22_1502,59.7365222207,sequenceLearningTask,001,089,
min1.png,min2.png,min3.png,min4.png,images/allBlank.png,"['num_7', 'num_4', 'num_1', 'num_0']",['num_7'],num_7,[1],'num_7',images/min1.png,"[(0.45, 0.79)]",,,,,0,-1,-1,0,2,2,10,0,,,,,,,,,,,,,"(0.25, 0.04)",images/min3.png,11,0.0616069490843,0.557603463547,[ 0.6703125  -0.28611111],,,,,,,,['num_7'],,,,2018_Jun_22_1502,59.7365222207,sequenceLearningTask,001,089,
min1.png,min2.png,min3.png,min4.png,images/allBlank.png,"['num_7', 'num_4', 'num_1', 'num_0']",['num_7'],num_7,[1],'num_7',images/min1.png,"[(0.45, 0.79)]",,,,,0,-1,-1,0,2,2,10,0,,,,,,,,,,,,,"(0.25, 0.04)",images/min3.png,11,0.0597045908903,0.596624986,[ 0.2578125  -0.14166667],,,,,,,,['num_7'],,,,2018_Jun_22_1502,59.7365222207,sequenceLearningTask,001,089,
min1.png,min2.png,min3.png,min4.png,images/allBlank.png,"['num_7', 'num_4', 'num_1', 'num_0']",['num_7'],num_7,[1],'num_7',images/min1.png,"[(0.45, 0.79)]",,,,,0,-1,-1,0,2,2,10,0,,,,,,,,,,,,,"(0.25, 0.04)",images/min3.png,11,0.0684972026679,0.501527999373,[ 0.1859375  -0.11388889],,,,,,,,['num_7'],,,,2018_Jun_22_1502,59.7365222207,sequenceLearningTask,001,089,
min1.png,min2.png,min3.png,min4.png,images/allBlank.png,"['num_7', 'num_4', 'num_1', 'num_0']",['num_7'],num_7,[1],'num_7',images/min1.png,"[(0.45, 0.79)]",,,,,0,-1,-1,0,2,2,10,0,,,,,,,,,,,,,"(0.25, 0.04)",images/min3.png,11,0.0648102298214,0.491889849481,[ 0.2265625  -0.09722222],,,,,,,,['num_7'],,,,2018_Jun_22_1502,59.7365222207,sequenceLearningTask,001,089,
min1.png,min2.png,min3.png,min4.png,images/allBlank.png,"['num_7', 'num_4', 'num_1', 'num_0']",['num_0'],num_0,[4],'num_0',images/min4.png,"[(0.45, 0.79)]",,,,,0,-1,-1,0,2,3,11,3,,,,,,,,,,,,,"(-0.25, 0.04)",images/min2.png,12,0.0557681822488,0.715638270507,[ 0.246875   -0.19722222],,,,,,,,['num_0'],,,,2018_Jun_22_1502,59.7365222207,sequenceLearningTask,001,089,
min1.png,min2.png,min3.png,min4.png,images/allBlank.png,"['num_7', 'num_4', 'num_1', 'num_0']",['num_0'],num_0,[4],'num_0',images/min4.png,"[(0.45, 0.79)]",,,,,0,-1,-1,0,2,3,11,3,,,,,,,,,,,,,"(0.25, 0.04)",images/min3.png,12,0.0682046899674,0.634997483078,[-0.1453125  -0.15277778],,,,,,,,['num_0'],,,,2018_Jun_22_1502,59.7365222207,sequenceLearningTask,001,089,
min1.png,min2.png,min3.png,min4.png,images/allBlank.png,"['num_7', 'num_4', 'num_1', 'num_0']",['num_0'],num_0,[4],'num_0',images/min4.png,"[(0.45, 0.79)]",,,,,0,-1,-1,0,2,3,11,3,,,,,,,,,,,,,"(0.25, 0.04)",images/min3.png,12,0.0673279723783,0.469731499597,[ 0.25625    -0.33333333],,,,,,,,['num_0'],,,,2018_Jun_22_1502,59.7365222207,sequenceLearningTask,001,089,
min1.png,min2.png,min3.png,min4.png,images/allBlank.png,"['num_7', 'num_4', 'num_1', 'num_0']",['num_0'],num_0,[4],'num_0',images/min4.png,"[(0.45, 0.79)]",,,,,0,-1,-1,0,2,3,11,3,,,,,,,,,,,,,"(0.75, 0.04)",images/min4.png,12,0.0627519742557,0.643408966806,[ 0.2828125  -0.53055556],,,,,,,,['num_0'],,,,2018_Jun_22_1502,59.7365222207,sequenceLearningTask,001,089,
min1.png,min2.png,min3.png,min4.png,images/allBlank.png,"['num_7', 'num_4', 'num_1', 'num_0']",['num_0'],num_0,[4],'num_0',images/min4.png,"[(0.45, 0.79)]",,,,,0,-1,-1,0,3,0,12,3,,,,,,,,,,,,,"(-0.75, 0.04)",images/min1.png,13,0.0475056215364,0.723412216036,[ 0.5015625  -0.58055556],,,,,,,,['num_0'],,,,2018_Jun_22_1502,59.7365222207,sequenceLearningTask,001,089,
min1.png,min2.png,min3.png,min4.png,images/allBlank.png,"['num_7', 'num_4', 'num_1', 'num_0']",['num_0'],num_0,[4],'num_0',images/min4.png,"[(0.45, 0.79)]",,,,,0,-1,-1,0,3,0,12,3,,,,,,,,,,,,,"(0.25, 0.04)",images/min3.png,13,0.0672208954993,0.721239088722,[-0.70625    -0.10833333],,,,,,,,['num_0'],,,,2018_Jun_22_1502,59.7365222207,sequenceLearningTask,001,089,
min1.png,min2.png,min3.png,min4.png,images/allBlank.png,"['num_7', 'num_4', 'num_1', 'num_0']",['num_0'],num_0,[4],'num_0',images/min4.png,"[(0.45, 0.79)]",,,,,0,-1,-1,0,3,0,12,3,,,,,,,,,,,,,"(-0.25, 0.04)",images/min2.png,13,0.063062538231,0.524718143705,[ 0.2390625  -0.11388889],,,,,,,,['num_0'],,,,2018_Jun_22_1502,59.7365222207,sequenceLearningTask,001,089,
min1.png,min2.png,min3.png,min4.png,images/allBlank.png,"['num_7', 'num_4', 'num_1', 'num_0']",['num_0'],num_0,[4],'num_0',images/min4.png,"[(0.45, 0.79)]",,,,,0,-1,-1,0,3,0,12,3,,,,,,,,,,,,,"(-0.75, 0.04)",images/min1.png,13,0.0751634563435,0.681786386959,[-0.1921875  -0.10277778],,,,,,,,['num_0'],,,,2018_Jun_22_1502,59.7365222207,sequenceLearningTask,001,089,
min1.png,min2.png,min3.png,min4.png,images/allBlank.png,"['num_7', 'num_4', 'num_1', 'num_0']",['num_4'],num_4,[2],'num_4',images/min2.png,"[(0.45, 0.79)]",,,,,0,-1,-1,0,3,1,13,1,,,,,,,,,,,,,"(-0.25, 0.04)",images/min2.png,14,0.0538034651063,0.498046154647,[-0.734375 -0.175   ],,,,,,,,['num_4'],,,,2018_Jun_22_1502,59.7365222207,sequenceLearningTask,001,089,
min1.png,min2.png,min3.png,min4.png,images/allBlank.png,"['num_7', 'num_4', 'num_1', 'num_0']",['num_4'],num_4,[2],'num_4',images/min2.png,"[(0.45, 0.79)]",,,,,0,-1,-1,0,3,1,13,1,,,,,,,,,,,,,"(-0.25, 0.04)",images/min2.png,14,0.0660680754595,0.554263157226,[-0.2015625 -0.175    ],,,,,,,,['num_4'],,,,2018_Jun_22_1502,59.7365222207,sequenceLearningTask,001,089,
min1.png,min2.png,min3.png,min4.png,images/allBlank.png,"['num_7', 'num_4', 'num_1', 'num_0']",['num_4'],num_4,[2],'num_4',images/min2.png,"[(0.45, 0.79)]",,,,,0,-1,-1,0,3,1,13,1,,,,,,,,,,,,,"(-0.25, 0.04)",images/min2.png,14,0.0667240751905,0.457940735203,[-0.221875   -0.16388889],,,,,,,,['num_4'],,,,2018_Jun_22_1502,59.7365222207,sequenceLearningTask,001,089,
min1.png,min2.png,min3.png,min4.png,images/allBlank.png,"['num_7', 'num_4', 'num_1', 'num_0']",['num_4'],num_4,[2],'num_4',images/min2.png,"[(0.45, 0.79)]",,,,,0,-1,-1,0,3,1,13,1,,,,,,,,,,,,,"(-0.75, 0.04)",images/min1.png,14,0.0520418248034,0.586659861883,[-0.1953125  -0.21944444],,,,,,,,['num_4'],,,,2018_Jun_22_1502,59.7365222207,sequenceLearningTask,001,089,
min1.png,min2.png,min3.png,min4.png,images/allBlank.png,"['num_7', 'num_4', 'num_1', 'num_0']",['num_1'],num_1,[3],'num_1',images/min3.png,"[(0.45, 0.79)]",,,,,0,-1,-1,0,3,2,14,2,,,,,,,,,,,,,"(0.25, 0.04)",images/min3.png,15,0.0679872541591,0.502829742429,[-0.7296875  -0.14166667],,,,,,,,['num_1'],,,,2018_Jun_22_1502,59.7365222207,sequenceLearningTask,001,089,
min1.png,min2.png,min3.png,min4.png,images/allBlank.png,"['num_7', 'num_4', 'num_1', 'num_0']",['num_1'],num_1,[3],'num_1',images/min3.png,"[(0.45, 0.79)]",,,,,0,-1,-1,0,3,2,14,2,,,,,,,,,,,,,"(0.25, 0.04)",images/min3.png,15,0.0628697177967,0.708691401563,[ 0.1421875  -0.23611111],,,,,,,,['num_1'],,,,2018_Jun_22_1502,59.7365222207,sequenceLearningTask,001,089,
min1.png,min2.png,min3.png,min4.png,images/allBlank.png,"['num_7', 'num_4', 'num_1', 'num_0']",['num_1'],num_1,[3],'num_1',images/min3.png,"[(0.45, 0.79)]",,,,,0,-1,-1,0,3,2,14,2,,,,,,,,,,,,,"(-0.75, 0.04)",images/min1.png,15,0.0626641794197,0.560050642031,[ 0.215625 -0.175   ],,,,,,,,['num_1'],,,,2018_Jun_22_1502,59.7365222207,sequenceLearningTask,001,089,
min1.png,min2.png,min3.png,min4.png,images/allBlank.png,"['num_7', 'num_4', 'num_1', 'num_0']",['num_1'],num_1,[3],'num_1',images/min3.png,"[(0.45, 0.79)]",,,,,0,-1,-1,0,3,2,14,2,,,,,,,,,,,,,"(0.25, 0.04)",images/min3.png,15,0.0661944343819,0.608393596557,[-0.675      -0.15555556],,,,,,,,['num_1'],,,,2018_Jun_22_1502,59.7365222207,sequenceLearningTask,001,089,
min1.png,min2.png,min3.png,min4.png,images/allBlank.png,"['num_7', 'num_4', 'num_1', 'num_0']",['num_7'],num_7,[1],'num_7',images/min1.png,"[(0.45, 0.79)]",,,,,0,-1,-1,0,3,3,15,0,,,,,,,,,,,,,"(-0.25, 0.04)",images/min2.png,16,0.0603741290774,0.476658676243,[ 0.2640625  -0.28611111],,,,,,,,['num_7'],,,,2018_Jun_22_1502,59.7365222207,sequenceLearningTask,001,089,
min1.png,min2.png,min3.png,min4.png,images/allBlank.png,"['num_7', 'num_4', 'num_1', 'num_0']",['num_7'],num_7,[1],'num_7',images/min1.png,"[(0.45, 0.79)]",,,,,0,-1,-1,0,3,3,15,0,,,,,,,,,,,,,"(0.75, 0.04)",images/min4.png,16,0.0656647935734,0.703654275424,[-0.2953125  -0.20277778],,,,,,,,['num_7'],,,,2018_Jun_22_1502,59.7365222207,sequenceLearningTask,001,089,
min1.png,min2.png,min3.png,min4.png,images/allBlank.png,"['num_7', 'num_4', 'num_1', 'num_0']",['num_7'],num_7,[1],'num_7',images/min1.png,"[(0.45, 0.79)]",,,,,0,-1,-1,0,3,3,15,0,,,,,,,,,,,,,"(0.25, 0.04)",images/min3.png,16,0.0709788426757,0.513774148195,[ 0.7046875  -0.14166667],,,,,,,,['num_7'],,,,2018_Jun_22_1502,59.7365222207,sequenceLearningTask,001,089,
min1.png,min2.png,min3.png,min4.png,images/allBlank.png,"['num_7', 'num_4', 'num_1', 'num_0']",['num_7'],num_7,[1],'num_7',images/min1.png,"[(0.45, 0.79)]",,,,,0,-1,-1,0,3,3,15,0,,,,,,,,,,,,,"(0.75, 0.04)",images/min4.png,16,0.0646957683298,0.706344735859,[ 0.190625 -0.175   ],,,,,,,,['num_7'],,,,2018_Jun_22_1502,59.7365222207,sequenceLearningTask,001,089,
min1.png,min2.png,min3.png,min4.png,images/allBlank.png,"['num_7', 'num_4', 'num_1', 'num_0']",['num_1'],num_1,[3],'num_1',images/min3.png,"[(0.45, 0.79)]",,,,,0,-1,-1,0,4,0,16,2,,,,,,,,,,,,,"(0.25, 0.04)",images/min3.png,17,0.0563162845883,0.495874258103,[ 0.690625   -0.33055556],,,,,,,,['num_1'],,,,2018_Jun_22_1502,59.7365222207,sequenceLearningTask,001,089,
min1.png,min2.png,min3.png,min4.png,images/allBlank.png,"['num_7', 'num_4', 'num_1', 'num_0']",['num_1'],num_1,[3],'num_1',images/min3.png,"[(0.45, 0.79)]",,,,,0,-1,-1,0,4,0,16,2,,,,,,,,,,,,,"(0.75, 0.04)",images/min4.png,17,0.0558514642662,0.615286311677,[ 0.2171875  -0.29166667],,,,,,,,['num_1'],,,,2018_Jun_22_1502,59.7365222207,sequenceLearningTask,001,089,
min1.png,min2.png,min3.png,min4.png,images/allBlank.png,"['num_7', 'num_4', 'num_1', 'num_0']",['num_1'],num_1,[3],'num_1',images/min3.png,"[(0.45, 0.79)]",,,,,0,-1,-1,0,4,0,16,2,,,,,,,,,,,,,"(0.75, 0.04)",images/min4.png,17,0.0617123849388,0.608774314349,[ 0.6453125  -0.15555556],,,,,,,,['num_1'],,,,2018_Jun_22_1502,59.7365222207,sequenceLearningTask,001,089,
min1.png,min2.png,min3.png,min4.png,images/allBlank.png,"['num_7', 'num_4', 'num_1', 'num_0']",['num_1'],num_1,[3],'num_1',images/min3.png,"[(0.45, 0.79)]",,,,,0,-1,-1,0,4,0,16,2,,,,,,,,,,,,,"(-0.25, 0.04)",images/min2.png,17,0.0598457190376,0.477740111697,[ 0.6796875  -0.28055556],,,,,,,,['num_1'],,,,2018_Jun_22_1502,59.7365222207,sequenceLearningTask,001,089,
min1.png,min2.png,min3.png,min4.png,images/allBlank.png,"['num_7', 'num_4', 'num_1', 'num_0']",['num_7'],num_7,[1],'num_7',images/min1.png,"[(0.45, 0.79)]",,,,,0,-1,-1,0,4,1,17,0,,,,,,,,,,,,,"(-0.25, 0.04)",images/min2.png,18,0.0616147439528,0.404552859671,[-0.2890625  -0.04444444],,,,,,,,['num_7'],,,,2018_Jun_22_1502,59.7365222207,sequenceLearningTask,001,089,
min1.png,min2.png,min3.png,min4.png,images/allBlank.png,"['num_7', 'num_4', 'num_1', 'num_0']",['num_7'],num_7,[1],'num_7',images/min1.png,"[(0.45, 0.79)]",,,,,0,-1,-1,0,4,1,17,0,,,,,,,,,,,,,"(0.25, 0.04)",images/min3.png,18,0.0596155652861,0.411457061966,[-0.2765625  -0.06944444],,,,,,,,['num_7'],,,,2018_Jun_22_1502,59.7365222207,sequenceLearningTask,001,089,
min1.png,min2.png,min3.png,min4.png,images/allBlank.png,"['num_7', 'num_4', 'num_1', 'num_0']",['num_7'],num_7,[1],'num_7',images/min1.png,"[(0.45, 0.79)]",,,,,0,-1,-1,0,4,1,17,0,,,,,,,,,,,,,"(0.25, 0.04)",images/min3.png,18,0.0604352572573,0.528048193622,[ 0.2703125  -0.06944444],,,,,,,,['num_7'],,,,2018_Jun_22_1502,59.7365222207,sequenceLearningTask,001,089,
min1.png,min2.png,min3.png,min4.png,images/allBlank.png,"['num_7', 'num_4', 'num_1', 'num_0']",['num_7'],num_7,[1],'num_7',images/min1.png,"[(0.45, 0.79)]",,,,,0,-1,-1,0,4,1,17,0,,,,,,,,,,,,,"(-0.75, 0.04)",images/min1.png,18,0.0647101272984,0.624136769585,[ 0.34375    -0.21388889],,,,,,,,['num_7'],,,,2018_Jun_22_1502,59.7365222207,sequenceLearningTask,001,089,
min1.png,min2.png,min3.png,min4.png,images/allBlank.png,"['num_7', 'num_4', 'num_1', 'num_0']",['num_4'],num_4,[2],'num_4',images/min2.png,"[(0.45, 0.79)]",,,,,0,-1,-1,0,4,2,18,1,,,,,,,,,,,,,"(-0.25, 0.04)",images/min2.png,19,0.0750284820397,0.514527788911,[-0.68125    -0.11666667],,,,,,,,['num_4'],,,,2018_Jun_22_1502,59.7365222207,sequenceLearningTask,001,089,
min1.png,min2.png,min3.png,min4.png,images/allBlank.png,"['num_7', 'num_4', 'num_1', 'num_0']",['num_4'],num_4,[2],'num_4',images/min2.png,"[(0.45, 0.79)]",,,,,0,-1,-1,0,4,2,18,1,,,,,,,,,,,,,"(-0.25, 0.04)",images/min2.png,19,0.0574227456723,0.797672288134,[-0.1109375  -0.10555556],,,,,,,,['num_4'],,,,2018_Jun_22_1502,59.7365222207,sequenceLearningTask,001,089,
min1.png,min2.png,min3.png,min4.png,images/allBlank.png,"['num_7', 'num_4', 'num_1', 'num_0']",['num_4'],num_4,[2],'num_4',images/min2.png,"[(0.45, 0.79)]",,,,,0,-1,-1,0,4,2,18,1,,,,,,,,,,,,,"(0.25, 0.04)",images/min3.png,19,0.0650699220228,0.654545372494,[-0.1921875  -0.01388889],,,,,,,,['num_4'],,,,2018_Jun_22_1502,59.7365222207,sequenceLearningTask,001,089,
min1.png,min2.png,min3.png,min4.png,images/allBlank.png,"['num_7', 'num_4', 'num_1', 'num_0']",['num_4'],num_4,[2],'num_4',images/min2.png,"[(0.45, 0.79)]",,,,,0,-1,-1,0,4,2,18,1,,,,,,,,,,,,,"(0.25, 0.04)",images/min3.png,19,0.0707630478923,0.614359953083,[ 0.271875   -0.08055556],,,,,,,,['num_4'],,,,2018_Jun_22_1502,59.7365222207,sequenceLearningTask,001,089,
min1.png,min2.png,min3.png,min4.png,images/allBlank.png,"['num_7', 'num_4', 'num_1', 'num_0']",['num_0'],num_0,[4],'num_0',images/min4.png,"[(0.45, 0.79)]",,,,,0,-1,-1,0,4,3,19,3,,,,,,,,,,,,,"(-0.25, 0.04)",images/min2.png,20,0.050454133147,0.418137674611,[ 0.215625   -0.11388889],,,,,,,,['num_0'],,,,2018_Jun_22_1502,59.7365222207,sequenceLearningTask,001,089,
min1.png,min2.png,min3.png,min4.png,images/allBlank.png,"['num_7', 'num_4', 'num_1', 'num_0']",['num_0'],num_0,[4],'num_0',images/min4.png,"[(0.45, 0.79)]",,,,,0,-1,-1,0,4,3,19,3,,,,,,,,,,,,,"(0.75, 0.04)",images/min4.png,20,0.0624832564167,0.613175543313,[-0.1921875  -0.12777778],,,,,,,,['num_0'],,,,2018_Jun_22_1502,59.7365222207,sequenceLearningTask,001,089,
min1.png,min2.png,min3.png,min4.png,images/allBlank.png,"['num_7', 'num_4', 'num_1', 'num_0']",['num_0'],num_0,[4],'num_0',images/min4.png,"[(0.45, 0.79)]",,,,,0,-1,-1,0,4,3,19,3,,,,,,,,,,,,,"(-0.25, 0.04)",images/min2.png,20,0.0606198725663,0.414563111974,[ 0.7234375  -0.20833333],,,,,,,,['num_0'],,,,2018_Jun_22_1502,59.7365222207,sequenceLearningTask,001,089,
min1.png,min2.png,min3.png,min4.png,images/allBlank.png,"['num_7', 'num_4', 'num_1', 'num_0']",['num_0'],num_0,[4],'num_0',images/min4.png,"[(0.45, 0.79)]",,,,,0,-1,-1,0,4,3,19,3,,,,,,,,,,,,,"(0.25, 0.04)",images/min3.png,20,0.0494092104987,0.446187304128,[-0.2515625  -0.23055556],,,,,,,,['num_0'],,,,2018_Jun_22_1502,59.7365222207,sequenceLearningTask,001,089,
min1.png,min2.png,min3.png,min4.png,images/allBlank.png,"['num_7', 'num_4', 'num_1', 'num_0']",['num_4'],num_4,[2],'num_4',images/min2.png,"[(0.45, 0.79)]",,,,,0,-1,-1,0,0,0,0,1,,,,,,,,,,,,,"(0.75, 0.04)",images/min4.png,1,0.0296184493873,0.568842433296,[ 0.3578125  -0.30277778],,,,,,,,['num_4'],,,,2018_Jun_22_1502,59.7365222207,sequenceLearningTask,001,089,
min1.png,min2.png,min3.png,min4.png,images/allBlank.png,"['num_7', 'num_4', 'num_1', 'num_0']",['num_4'],num_4,[2],'num_4',images/min2.png,"[(0.45, 0.79)]",,,,,0,-1,-1,0,0,0,0,1,,,,,,,,,,,,,"(-0.25, 0.04)",images/min2.png,1,0.071458021966,0.413580958531,[ 0.5828125  -0.18611111],,,,,,,,['num_4'],,,,2018_Jun_22_1502,59.7365222207,sequenceLearningTask,001,089,
min1.png,min2.png,min3.png,min4.png,images/allBlank.png,"['num_7', 'num_4', 'num_1', 'num_0']",['num_4'],num_4,[2],'num_4',images/min2.png,"[(0.45, 0.79)]",,,,,0,-1,-1,0,0,0,0,1,,,,,,,,,,,,,"(-0.75, 0.04)",images/min1.png,1,0.0658974088628,0.475436522898,[-0.1921875 -0.275    ],,,,,,,,['num_4'],,,,2018_Jun_22_1502,59.7365222207,sequenceLearningTask,001,089,
min1.png,min2.png,min3.png,min4.png,images/allBlank.png,"['num_7', 'num_4', 'num_1', 'num_0']",['num_4'],num_4,[2],'num_4',images/min2.png,"[(0.45, 0.79)]",,,,,0,-1,-1,0,0,0,0,1,,,,,,,,,,,,,"(-0.25, 0.04)",images/min2.png,1,0.0610994621129,0.396424042493,[-0.646875   -0.11388889],,,,,,,,['num_4'],,,,2018_Jun_22_1502,59.7365222207,sequenceLearningTask,001,089,
min1.png,min2.png,min3.png,min4.png,images/allBlank.png,"['num_7', 'num_4', 'num_1', 'num_0']",['num_1'],num_1,[3],'num_1',images/min3.png,"[(0.45, 0.79)]",,,,,0,-1,-1,0,0,1,1,2,,,,,,,,,,,,,"(-0.25, 0.04)",images/min2.png,2,0.0548672595414,0.548759979996,[-0.1984375  -0.19444444],,,,,,,,['num_1'],,,,2018_Jun_22_1502,59.7365222207,sequenceLearningTask,001,089,
min1.png,min2.png,min3.png,min4.png,images/allBlank.png,"['num_7', 'num_4', 'num_1', 'num_0']",['num_1'],num_1,[3],'num_1',images/min3.png,"[(0.45, 0.79)]",,,,,0,-1,-1,0,0,1,1,2,,,,,,,,,,,,,"(-0.75, 0.04)",images/min1.png,2,0.0684631514,1.12162620651,[-0.1046875  -0.13333333],0.536026446758,1,,,,,,['num_1'],,,,2018_Jun_22_1502,59.7365222207,sequenceLearningTask,001,089,
min1.png,min2.png,min3.png,min4.png,images/allBlank.png,"['num_7', 'num_4', 'num_1', 'num_0']",['num_1'],num_1,[3],'num_1',images/min3.png,"[(0.45, 0.79)]",,,,,0,-1,-1,0,0,1,1,2,,,,,,,,,,,,,"(-0.25, 0.04)",images/min2.png,2,0.0634879739537,0.457748735283,[-0.5984375  -0.23888889],,,,,,,,['num_1'],,,,2018_Jun_22_1502,59.7365222207,sequenceLearningTask,001,089,
min1.png,min2.png,min3.png,min4.png,images/allBlank.png,"['num_7', 'num_4', 'num_1', 'num_0']",['num_1'],num_1,[3],'num_1',images/min3.png,"[(0.45, 0.79)]",,,,,0,-1,-1,0,0,1,1,2,,,,,,,,,,,,,"(-0.75, 0.04)",images/min1.png,2,0.0622732052211,0.558281206859,[-0.1859375  -0.16111111],,,,,,,,['num_1'],,,,2018_Jun_22_1502,59.7365222207,sequenceLearningTask,001,089,
min1.png,min2.png,min3.png,min4.png,images/allBlank.png,"['num_7', 'num_4', 'num_1', 'num_0']",['num_7'],num_7,[1],'num_7',images/min1.png,"[(0.45, 0.79)]",,,,,0,-1,-1,0,0,2,2,0,,,,,,,,,,,,,"(0.75, 0.04)",images/min4.png,3,0.0551577209612,0.544800597005,[-0.7359375  -0.20833333],,,,,,,,['num_7'],,,,2018_Jun_22_1502,59.7365222207,sequenceLearningTask,001,089,
min1.png,min2.png,min3.png,min4.png,images/allBlank.png,"['num_7', 'num_4', 'num_1', 'num_0']",['num_7'],num_7,[1],'num_7',images/min1.png,"[(0.45, 0.79)]",,,,,0,-1,-1,0,0,2,2,0,,,,,,,,,,,,,"(0.25, 0.04)",images/min3.png,3,0.0721923806391,0.550470748525,[ 0.79375    -0.19166667],,,,,,,,['num_7'],,,,2018_Jun_22_1502,59.7365222207,sequenceLearningTask,001,089,
min1.png,min2.png,min3.png,min4.png,images/allBlank.png,"['num_7', 'num_4', 'num_1', 'num_0']",['num_7'],num_7,[1],'num_7',images/min1.png,"[(0.45, 0.79)]",,,,,0,-1,-1,0,0,2,2,0,,,,,,,,,,,,,"(0.25, 0.04)",images/min3.png,3,0.0591257193328,0.527849219344,[ 0.2203125  -0.18055556],,,,,,,,['num_7'],,,,2018_Jun_22_1502,59.7365222207,sequenceLearningTask,001,089,
min1.png,min2.png,min3.png,min4.png,images/allBlank.png,"['num_7', 'num_4', 'num_1', 'num_0']",['num_7'],num_7,[1],'num_7',images/min1.png,"[(0.45, 0.79)]",,,,,0,-1,-1,0,0,2,2,0,,,,,,,,,,,,,"(0.75, 0.04)",images/min4.png,3,0.0561665410601,0.695635406919,[ 0.246875   -0.14722222],,,,,,,,['num_7'],,,,2018_Jun_22_1502,59.7365222207,sequenceLearningTask,001,089,
min1.png,min2.png,min3.png,min4.png,images/allBlank.png,"['num_7', 'num_4', 'num_1', 'num_0']",['num_0'],num_0,[4],'num_0',images/min4.png,"[(0.45, 0.79)]",,,,,0,-1,-1,0,0,3,3,3,,,,,,,,,,,,,"(-0.75, 0.04)",images/min1.png,4,0.0625493076718,0.439692537562,[ 0.7265625  -0.23055556],,,,,,,,['num_0'],,,,2018_Jun_22_1502,59.7365222207,sequenceLearningTask,001,089,
min1.png,min2.png,min3.png,min4.png,images/allBlank.png,"['num_7', 'num_4', 'num_1', 'num_0']",['num_0'],num_0,[4],'num_0',images/min4.png,"[(0.45, 0.79)]",,,,,0,-1,-1,0,0,3,3,3,,,,,,,,,,,,,"(0.25, 0.04)",images/min3.png,4,0.0562276692399,0.498243077644,[-0.825      -0.16388889],,,,,,,,['num_0'],,,,2018_Jun_22_1502,59.7365222207,sequenceLearningTask,001,089,
min1.png,min2.png,min3.png,min4.png,images/allBlank.png,"['num_7', 'num_4', 'num_1', 'num_0']",['num_0'],num_0,[4],'num_0',images/min4.png,"[(0.45, 0.79)]",,,,,0,-1,-1,0,0,3,3,3,,,,,,,,,,,,,"(0.25, 0.04)",images/min3.png,4,0.0631093074421,0.638502712409,[ 0.1859375  -0.23333333],,,,,,,,['num_0'],,,,2018_Jun_22_1502,59.7365222207,sequenceLearningTask,001,089,
min1.png,min2.png,min3.png,min4.png,images/allBlank.png,"['num_7', 'num_4', 'num_1', 'num_0']",['num_0'],num_0,[4],'num_0',images/min4.png,"[(0.45, 0.79)]",,,,,0,-1,-1,0,0,3,3,3,,,,,,,,,,,,,"(0.75, 0.04)",images/min4.png,4,0.0406268551274,0.631983330468,[ 0.2765625  -0.18611111],,,,,,,,['num_0'],,,,2018_Jun_22_1502,59.7365222207,sequenceLearningTask,001,089,
min1.png,min2.png,min3.png,min4.png,images/allBlank.png,"['num_7', 'num_4', 'num_1', 'num_0']",['num_7'],num_7,[1],'num_7',images/min1.png,"[(0.45, 0.79)]",,,,,0,-1,-1,0,1,0,4,0,,,,,,,,,,,,,"(-0.75, 0.04)",images/min1.png,5,0.0548139262301,0.613766722558,[ 0.7578125  -0.15833333],,,,,,,,['num_7'],,,,2018_Jun_22_1502,59.7365222207,sequenceLearningTask,001,089,
min1.png,min2.png,min3.png,min4.png,images/allBlank.png,"['num_7', 'num_4', 'num_1', 'num_0']",['num_7'],num_7,[1],'num_7',images/min1.png,"[(0.45, 0.79)]",,,,,0,-1,-1,0,1,0,4,0,,,,,,,,,,,,,"(-0.75, 0.04)",images/min1.png,5,0.0603819239459,0.645649376144,[-0.8        -0.10833333],,,,,,,,['num_7'],,,,2018_Jun_22_1502,59.7365222207,sequenceLearningTask,001,089,
min1.png,min2.png,min3.png,min4.png,images/allBlank.png,"['num_7', 'num_4', 'num_1', 'num_0']",['num_7'],num_7,[1],'num_7',images/min1.png,"[(0.45, 0.79)]",,,,,0,-1,-1,0,1,0,4,0,,,,,,,,,,,,,"(0.75, 0.04)",images/min4.png,5,0.0681525874247,0.703628839537,[-0.7375     -0.27222222],,,,,,,,['num_7'],,,,2018_Jun_22_1502,59.7365222207,sequenceLearningTask,001,089,
min1.png,min2.png,min3.png,min4.png,images/allBlank.png,"['num_7', 'num_4', 'num_1', 'num_0']",['num_7'],num_7,[1],'num_7',images/min1.png,"[(0.45, 0.79)]",,,,,0,-1,-1,0,1,0,4,0,,,,,,,,,,,,,"(-0.25, 0.04)",images/min2.png,5,0.0610670518699,0.426488440415,[ 0.6890625  -0.15277778],,,,,,,,['num_7'],,,,2018_Jun_22_1502,59.7365222207,sequenceLearningTask,001,089,
min1.png,min2.png,min3.png,min4.png,images/allBlank.png,"['num_7', 'num_4', 'num_1', 'num_0']",['num_4'],num_4,[2],'num_4',images/min2.png,"[(0.45, 0.79)]",,,,,0,-1,-1,0,1,1,5,1,,,,,,,,,,,,,"(-0.25, 0.04)",images/min2.png,6,0.048907467115,0.423759005638,[-0.309375   -0.08055556],,,,,,,,['num_4'],,,,2018_Jun_22_1502,59.7365222207,sequenceLearningTask,001,089,
min1.png,min2.png,min3.png,min4.png,images/allBlank.png,"['num_7', 'num_4', 'num_1', 'num_0']",['num_4'],num_4,[2],'num_4',images/min2.png,"[(0.45, 0.79)]",,,,,0,-1,-1,0,1,1,5,1,,,,,,,,,,,,,"(0.75, 0.04)",images/min4.png,6,0.0588959758375,0.979632008356,[-0.2171875  -0.21944444],0.476442060947,1,,,,,,['num_4'],,,,2018_Jun_22_1502,59.7365222207,sequenceLearningTask,001,089,
min1.png,min2.png,min3.png,min4.png,images/allBlank.png,"['num_7', 'num_4', 'num_1', 'num_0']",['num_4'],num_4,[2],'num_4',images/min2.png,"[(0.45, 0.79)]",,,,,0,-1,-1,0,1,1,5,1,,,,,,,,,,,,,"(0.25, 0.04)",images/min3.png,6,0.0644561786848,0.524199579816,[ 0.665625   -0.26944444],,,,,,,,['num_4'],,,,2018_Jun_22_1502,59.7365222207,sequenceLearningTask,001,089,
min1.png,min2.png,min3.png,min4.png,images/allBlank.png,"['num_7', 'num_4', 'num_1', 'num_0']",['num_4'],num_4,[2],'num_4',images/min2.png,"[(0.45, 0.79)]",,,,,0,-1,-1,0,1,1,5,1,,,,,,,,,,,,,"(0.75, 0.04)",images/min4.png,6,0.0654563834028,0.587972271601,[ 0.2359375  -0.13611111],,,,,,,,['num_4'],,,,2018_Jun_22_1502,59.7365222207,sequenceLearningTask,001,089,
min1.png,min2.png,min3.png,min4.png,images/allBlank.png,"['num_7', 'num_4', 'num_1', 'num_0']",['num_0'],num_0,[4],'num_0',images/min4.png,"[(0.45, 0.79)]",,,,,0,-1,-1,0,1,2,6,3,,,,,,,,,,,,,"(-0.75, 0.04)",images/min1.png,7,0.0662174087311,0.570549099262,[ 0.6640625 -0.15     ],,,,,,,,['num_0'],,,,2018_Jun_22_1502,59.7365222207,sequenceLearningTask,001,089,
min1.png,min2.png,min3.png,min4.png,images/allBlank.png,"['num_7', 'num_4', 'num_1', 'num_0']",['num_0'],num_0,[4],'num_0',images/min4.png,"[(0.45, 0.79)]",,,,,0,-1,-1,0,1,2,6,3,,,,,,,,,,,,,"(-0.75, 0.04)",images/min1.png,7,0.060136180457,0.597299857518,[-0.8078125  -0.18333333],,,,,,,,['num_0'],,,,2018_Jun_22_1502,59.7365222207,sequenceLearningTask,001,089,
min1.png,min2.png,min3.png,min4.png,images/allBlank.png,"['num_7', 'num_4', 'num_1', 'num_0']",['num_0'],num_0,[4],'num_0',images/min4.png,"[(0.45, 0.79)]",,,,,0,-1,-1,0,1,2,6,3,,,,,,,,,,,,,"(0.25, 0.04)",images/min3.png,7,0.0611568979866,0.576345199448,[-0.765625   -0.14166667],,,,,,,,['num_0'],,,,2018_Jun_22_1502,59.7365222207,sequenceLearningTask,001,089,
min1.png,min2.png,min3.png,min4.png,images/allBlank.png,"['num_7', 'num_4', 'num_1', 'num_0']",['num_0'],num_0,[4],'num_0',images/min4.png,"[(0.45, 0.79)]",,,,,0,-1,-1,0,1,2,6,3,,,,,,,,,,,,,"(0.25, 0.04)",images/min3.png,7,0.062816794742,0.521970247397,[ 0.371875   -0.26944444],,,,,,,,['num_0'],,,,2018_Jun_22_1502,59.7365222207,sequenceLearningTask,001,089,
min1.png,min2.png,min3.png,min4.png,images/allBlank.png,"['num_7', 'num_4', 'num_1', 'num_0']",['num_1'],num_1,[3],'num_1',images/min3.png,"[(0.45, 0.79)]",,,,,0,-1,-1,0,1,3,7,2,,,,,,,,,,,,,"(0.75, 0.04)",images/min4.png,8,0.0622559744593,0.57098602216,[ 0.2203125  -0.16111111],,,,,,,,['num_1'],,,,2018_Jun_22_1502,59.7365222207,sequenceLearningTask,001,089,
min1.png,min2.png,min3.png,min4.png,images/allBlank.png,"['num_7', 'num_4', 'num_1', 'num_0']",['num_1'],num_1,[3],'num_1',images/min3.png,"[(0.45, 0.79)]",,,,,0,-1,-1,0,1,3,7,2,,,,,,,,,,,,,"(-0.75, 0.04)",images/min1.png,8,0.0581316684588,0.528454757557,[ 0.678125 -0.225   ],,,,,,,,['num_1'],,,,2018_Jun_22_1502,59.7365222207,sequenceLearningTask,001,089,
min1.png,min2.png,min3.png,min4.png,images/allBlank.png,"['num_7', 'num_4', 'num_1', 'num_0']",['num_1'],num_1,[3],'num_1',images/min3.png,"[(0.45, 0.79)]",,,,,0,-1,-1,0,1,3,7,2,,,,,,,,,,,,,"(-0.25, 0.04)",images/min2.png,8,0.0674350492573,0.401578912173,[-0.7828125  -0.19166667],,,,,,,,['num_1'],,,,2018_Jun_22_1502,59.7365222207,sequenceLearningTask,001,089,
min1.png,min2.png,min3.png,min4.png,images/allBlank.png,"['num_7', 'num_4', 'num_1', 'num_0']",['num_1'],num_1,[3],'num_1',images/min3.png,"[(0.45, 0.79)]",,,,,0,-1,-1,0,1,3,7,2,,,,,,,,,,,,,"(-0.75, 0.04)",images/min1.png,8,0.0612213082168,0.59372119232,[-0.2828125  -0.18611111],,,,,,,,['num_1'],,,,2018_Jun_22_1502,59.7365222207,sequenceLearningTask,001,089,
min1.png,min2.png,min3.png,min4.png,images/allBlank.png,"['num_7', 'num_4', 'num_1', 'num_0']",['num_4'],num_4,[2],'num_4',images/min2.png,"[(0.45, 0.79)]",,,,,0,-1,-1,0,2,0,8,1,,,,,,,,,,,,,"(0.25, 0.04)",images/min3.png,9,0.0705800736082,0.547671570186,[-0.6984375  -0.20833333],,,,,,,,['num_4'],,,,2018_Jun_22_1502,59.7365222207,sequenceLearningTask,001,089,
min1.png,min2.png,min3.png,min4.png,images/allBlank.png,"['num_7', 'num_4', 'num_1', 'num_0']",['num_4'],num_4,[2],'num_4',images/min2.png,"[(0.45, 0.79)]",,,,,0,-1,-1,0,2,0,8,1,,,,,,,,,,,,,"(0.75, 0.04)",images/min4.png,9,0.0589095142936,0.57937658282,[ 0.2171875  -0.34166667],,,,,,,,['num_4'],,,,2018_Jun_22_1502,59.7365222207,sequenceLearningTask,001,089,
min1.png,min2.png,min3.png,min4.png,images/allBlank.png,"['num_7', 'num_4', 'num_1', 'num_0']",['num_4'],num_4,[2],'num_4',images/min2.png,"[(0.45, 0.79)]",,,,,0,-1,-1,0,2,0,8,1,,,,,,,,,,,,,"(-0.75, 0.04)",images/min1.png,9,0.0699921764135,0.61657533679,[ 0.6203125  -0.24166667],,,,,,,,['num_4'],,,,2018_Jun_22_1502,59.7365222207,sequenceLearningTask,001,089,
min1.png,min2.png,min3.png,min4.png,images/allBlank.png,"['num_7', 'num_4', 'num_1', 'num_0']",['num_4'],num_4,[2],'num_4',images/min2.png,"[(0.45, 0.79)]",,,,,0,-1,-1,0,2,0,8,1,,,,,,,,,,,,,"(-0.25, 0.04)",images/min2.png,9,0.069336997195,0.416421162494,[-0.7421875  -0.14166667],,,,,,,,['num_4'],,,,2018_Jun_22_1502,59.7365222207,sequenceLearningTask,001,089,
min1.png,min2.png,min3.png,min4.png,images/allBlank.png,"['num_7', 'num_4', 'num_1', 'num_0']",['num_1'],num_1,[3],'num_1',images/min3.png,"[(0.45, 0.79)]",,,,,0,-1,-1,0,2,1,9,2,,,,,,,,,,,,,"(-0.75, 0.04)",images/min1.png,10,0.0644803838027,0.60387257277,[-0.2375     -0.17777778],,,,,,,,['num_1'],,,,2018_Jun_22_1502,59.7365222207,sequenceLearningTask,001,089,
min1.png,min2.png,min3.png,min4.png,images/allBlank.png,"['num_7', 'num_4', 'num_1', 'num_0']",['num_1'],num_1,[3],'num_1',images/min3.png,"[(0.45, 0.79)]",,,,,0,-1,-1,0,2,1,9,2,,,,,,,,,,,,,"(0.75, 0.04)",images/min4.png,10,0.0682428437981,0.706234376929,[-0.7234375  -0.06944444],,,,,,,,['num_1'],,,,2018_Jun_22_1502,59.7365222207,sequenceLearningTask,001,089,
min1.png,min2.png,min3.png,min4.png,images/allBlank.png,"['num_7', 'num_4', 'num_1', 'num_0']",['num_1'],num_1,[3],'num_1',images/min3.png,"[(0.45, 0.79)]",,,,,0,-1,-1,0,2,1,9,2,,,,,,,,,,,,,"(-0.75, 0.04)",images/min1.png,10,0.0606551546034,0.513577635455,[ 0.690625   -0.30833333],,,,,,,,['num_1'],,,,2018_Jun_22_1502,59.7365222207,sequenceLearningTask,001,089,
min1.png,min2.png,min3.png,min4.png,images/allBlank.png,"['num_7', 'num_4', 'num_1', 'num_0']",['num_1'],num_1,[3],'num_1',images/min3.png,"[(0.45, 0.79)]",,,,,0,-1,-1,0,2,1,9,2,,,,,,,,,,,,,"(0.25, 0.04)",images/min3.png,10,0.0589653091424,0.546465827091,[-0.6875     -0.21944444],,,,,,,,['num_1'],,,,2018_Jun_22_1502,59.7365222207,sequenceLearningTask,001,089,
min1.png,min2.png,min3.png,min4.png,images/allBlank.png,"['num_7', 'num_4', 'num_1', 'num_0']",['num_7'],num_7,[1],'num_7',images/min1.png,"[(0.45, 0.79)]",,,,,0,-1,-1,0,2,2,10,0,,,,,,,,,,,,,"(0.25, 0.04)",images/min3.png,11,0.0622170001161,0.503990357337,[ 0.3109375  -0.26944444],,,,,,,,['num_7'],,,,2018_Jun_22_1502,59.7365222207,sequenceLearningTask,001,089,
min1.png,min2.png,min3.png,min4.png,images/allBlank.png,"['num_7', 'num_4', 'num_1', 'num_0']",['num_7'],num_7,[1],'num_7',images/min1.png,"[(0.45, 0.79)]",,,,,0,-1,-1,0,2,2,10,0,,,,,,,,,,,,,"(0.25, 0.04)",images/min3.png,11,0.0609571031969,0.459889042097,[ 0.0921875 -0.25     ],,,,,,,,['num_7'],,,,2018_Jun_22_1502,59.7365222207,sequenceLearningTask,001,089,
min1.png,min2.png,min3.png,min4.png,images/allBlank.png,"['num_7', 'num_4', 'num_1', 'num_0']",['num_7'],num_7,[1],'num_7',images/min1.png,"[(0.45, 0.79)]",,,,,0,-1,-1,0,2,2,10,0,,,,,,,,,,,,,"(0.25, 0.04)",images/min3.png,11,0.061090846732,0.560978231394,[ 0.2109375  -0.25277778],,,,,,,,['num_7'],,,,2018_Jun_22_1502,59.7365222207,sequenceLearningTask,001,089,
min1.png,min2.png,min3.png,min4.png,images/allBlank.png,"['num_7', 'num_4', 'num_1', 'num_0']",['num_7'],num_7,[1],'num_7',images/min1.png,"[(0.45, 0.79)]",,,,,0,-1,-1,0,2,2,10,0,,,,,,,,,,,,,"(0.25, 0.04)",images/min3.png,11,0.0646855119239,0.456289043574,[ 0.2109375  -0.33055556],,,,,,,,['num_7'],,,,2018_Jun_22_1502,59.7365222207,sequenceLearningTask,001,089,
min1.png,min2.png,min3.png,min4.png,images/allBlank.png,"['num_7', 'num_4', 'num_1', 'num_0']",['num_0'],num_0,[4],'num_0',images/min4.png,"[(0.45, 0.79)]",,,,,0,-1,-1,0,2,3,11,3,,,,,,,,,,,,,"(0.25, 0.04)",images/min3.png,12,0.0627856152678,0.486924107929,[ 0.140625   -0.28611111],,,,,,,,['num_0'],,,,2018_Jun_22_1502,59.7365222207,sequenceLearningTask,001,089,
min1.png,min2.png,min3.png,min4.png,images/allBlank.png,"['num_7', 'num_4', 'num_1', 'num_0']",['num_0'],num_0,[4],'num_0',images/min4.png,"[(0.45, 0.79)]",,,,,0,-1,-1,0,2,3,11,3,,,,,,,,,,,,,"(-0.25, 0.04)",images/min2.png,12,0.0570896176041,0.615276875784,[ 0.2046875 -0.2      ],,,,,,,,['num_0'],,,,2018_Jun_22_1502,59.7365222207,sequenceLearningTask,001,089,
min1.png,min2.png,min3.png,min4.png,images/allBlank.png,"['num_7', 'num_4', 'num_1', 'num_0']",['num_0'],num_0,[4],'num_0',images/min4.png,"[(0.45, 0.79)]",,,,,0,-1,-1,0,2,3,11,3,,,,,,,,,,,,,"(0.75, 0.04)",images/min4.png,12,0.0685160744547,0.687440948742,[-0.28125    -0.08611111],,,,,,,,['num_0'],,,,2018_Jun_22_1502,59.7365222207,sequenceLearningTask,001,089,
min1.png,min2.png,min3.png,min4.png,images/allBlank.png,"['num_7', 'num_4', 'num_1', 'num_0']",['num_0'],num_0,[4],'num_0',images/min4.png,"[(0.45, 0.79)]",,,,,0,-1,-1,0,2,3,11,3,,,,,,,,,,,,,"(0.75, 0.04)",images/min4.png,12,0.0574366943847,0.69829673916,[ 0.7296875  -0.20277778],,,,,,,,['num_0'],,,,2018_Jun_22_1502,59.7365222207,sequenceLearningTask,001,089,
min1.png,min2.png,min3.png,min4.png,images/allBlank.png,"['num_7', 'num_4', 'num_1', 'num_0']",['num_0'],num_0,[4],'num_0',images/min4.png,"[(0.45, 0.79)]",,,,,0,-1,-1,0,3,0,12,3,,,,,,,,,,,,,"(-0.25, 0.04)",images/min2.png,13,0.0639220250578,0.519170658802,[ 0.6796875 -0.175    ],,,,,,,,['num_0'],,,,2018_Jun_22_1502,59.7365222207,sequenceLearningTask,001,089,
min1.png,min2.png,min3.png,min4.png,images/allBlank.png,"['num_7', 'num_4', 'num_1', 'num_0']",['num_0'],num_0,[4],'num_0',images/min4.png,"[(0.45, 0.79)]",,,,,0,-1,-1,0,3,0,12,3,,,,,,,,,,,,,"(0.25, 0.04)",images/min3.png,13,0.0778707372838,0.523579682634,[-0.246875   -0.26388889],,,,,,,,['num_0'],,,,2018_Jun_22_1502,59.7365222207,sequenceLearningTask,001,089,
min1.png,min2.png,min3.png,min4.png,images/allBlank.png,"['num_7', 'num_4', 'num_1', 'num_0']",['num_0'],num_0,[4],'num_0',images/min4.png,"[(0.45, 0.79)]",,,,,0,-1,-1,0,3,0,12,3,,,,,,,,,,,,,"(0.75, 0.04)",images/min4.png,13,0.0607958724941,0.567803254235,[ 0.259375   -0.33611111],,,,,,,,['num_0'],,,,2018_Jun_22_1502,59.7365222207,sequenceLearningTask,001,089,
min1.png,min2.png,min3.png,min4.png,images/allBlank.png,"['num_7', 'num_4', 'num_1', 'num_0']",['num_0'],num_0,[4],'num_0',images/min4.png,"[(0.45, 0.79)]",,,,,0,-1,-1,0,3,0,12,3,,,,,,,,,,,,,"(0.25, 0.04)",images/min3.png,13,0.0579056172696,0.460285759883,[ 0.6828125  -0.31388889],,,,,,,,['num_0'],,,,2018_Jun_22_1502,59.7365222207,sequenceLearningTask,001,089,
min1.png,min2.png,min3.png,min4.png,images/allBlank.png,"['num_7', 'num_4', 'num_1', 'num_0']",['num_7'],num_7,[1],'num_7',images/min1.png,"[(0.45, 0.79)]",,,,,0,-1,-1,0,3,1,13,0,,,,,,,,,,,,,"(0.25, 0.04)",images/min3.png,14,0.0543269520713,0.479674880133,[ 0.2234375  -0.20555556],,,,,,,,['num_7'],,,,2018_Jun_22_1502,59.7365222207,sequenceLearningTask,001,089,
min1.png,min2.png,min3.png,min4.png,images/allBlank.png,"['num_7', 'num_4', 'num_1', 'num_0']",['num_7'],num_7,[1],'num_7',images/min1.png,"[(0.45, 0.79)]",,,,,0,-1,-1,0,3,1,13,0,,,,,,,,,,,,,"(-0.75, 0.04)",images/min1.png,14,0.0655560756695,0.705996838566,[ 0.240625   -0.13611111],,,,,,,,['num_7'],,,,2018_Jun_22_1502,59.7365222207,sequenceLearningTask,001,089,
min1.png,min2.png,min3.png,min4.png,images/allBlank.png,"['num_7', 'num_4', 'num_1', 'num_0']",['num_7'],num_7,[1],'num_7',images/min1.png,"[(0.45, 0.79)]",,,,,0,-1,-1,0,3,1,13,0,,,,,,,,,,,,,"(-0.25, 0.04)",images/min2.png,14,0.0693612023138,0.522417836957,[-0.728125   -0.14166667],,,,,,,,['num_7'],,,,2018_Jun_22_1502,59.7365222207,sequenceLearningTask,001,089,
min1.png,min2.png,min3.png,min4.png,images/allBlank.png,"['num_7', 'num_4', 'num_1', 'num_0']",['num_7'],num_7,[1],'num_7',images/min1.png,"[(0.45, 0.79)]",,,,,0,-1,-1,0,3,1,13,0,,,,,,,,,,,,,"(-0.25, 0.04)",images/min2.png,14,0.0626297178951,0.487965338271,[-0.1953125  -0.11944444],,,,,,,,['num_7'],,,,2018_Jun_22_1502,59.7365222207,sequenceLearningTask,001,089,
min1.png,min2.png,min3.png,min4.png,images/allBlank.png,"['num_7', 'num_4', 'num_1', 'num_0']",['num_1'],num_1,[3],'num_1',images/min3.png,"[(0.45, 0.79)]",,,,,0,-1,-1,0,3,2,14,2,,,,,,,,,,,,,"(0.25, 0.04)",images/min3.png,15,0.0600873599642,0.489469337654,[-0.2234375   0.03888889],,,,,,,,['num_1'],,,,2018_Jun_22_1502,59.7365222207,sequenceLearningTask,001,089,
min1.png,min2.png,min3.png,min4.png,images/allBlank.png,"['num_7', 'num_4', 'num_1', 'num_0']",['num_1'],num_1,[3],'num_1',images/min3.png,"[(0.45, 0.79)]",,,,,0,-1,-1,0,3,2,14,2,,,,,,,,,,,,,"(-0.25, 0.04)",images/min2.png,15,0.0680549464391,0.416171726699,[ 0.2515625  -0.09166667],,,,,,,,['num_1'],,,,2018_Jun_22_1502,59.7365222207,sequenceLearningTask,001,089,
min1.png,min2.png,min3.png,min4.png,images/allBlank.png,"['num_7', 'num_4', 'num_1', 'num_0']",['num_1'],num_1,[3],'num_1',images/min3.png,"[(0.45, 0.79)]",,,,,0,-1,-1,0,3,2,14,2,,,,,,,,,,,,,"(0.25, 0.04)",images/min3.png,15,0.0661365882515,0.689997255386,[-0.303125   -0.09722222],,,,,,,,['num_1'],,,,2018_Jun_22_1502,59.7365222207,sequenceLearningTask,001,089,
min1.png,min2.png,min3.png,min4.png,images/allBlank.png,"['num_7', 'num_4', 'num_1', 'num_0']",['num_1'],num_1,[3],'num_1',images/min3.png,"[(0.45, 0.79)]",,,,,0,-1,-1,0,3,2,14,2,,,,,,,,,,,,,"(-0.25, 0.04)",images/min2.png,15,0.0729041752188,0.583105812059,[ 0.2734375  -0.10555556],,,,,,,,['num_1'],,,,2018_Jun_22_1502,59.7365222207,sequenceLearningTask,001,089,
min1.png,min2.png,min3.png,min4.png,images/allBlank.png,"['num_7', 'num_4', 'num_1', 'num_0']",['num_4'],num_4,[2],'num_4',images/min2.png,"[(0.45, 0.79)]",,,,,0,-1,-1,0,3,3,15,1,,,,,,,,,,,,,"(-0.75, 0.04)",images/min1.png,16,0.0627056153003,0.773881118408,[-0.1734375  -0.23333333],,,,,,,,['num_4'],,,,2018_Jun_22_1502,59.7365222207,sequenceLearningTask,001,089,
min1.png,min2.png,min3.png,min4.png,images/allBlank.png,"['num_7', 'num_4', 'num_1', 'num_0']",['num_4'],num_4,[2],'num_4',images/min2.png,"[(0.45, 0.79)]",,,,,0,-1,-1,0,3,3,15,1,,,,,,,,,,,,,"(-0.25, 0.04)",images/min2.png,16,0.0686186385155,0.576099866215,[-0.103125   -0.17222222],,,,,,,,['num_4'],,,,2018_Jun_22_1502,59.7365222207,sequenceLearningTask,001,089,
min1.png,min2.png,min3.png,min4.png,images/allBlank.png,"['num_7', 'num_4', 'num_1', 'num_0']",['num_4'],num_4,[2],'num_4',images/min2.png,"[(0.45, 0.79)]",,,,,0,-1,-1,0,3,3,15,1,,,,,,,,,,,,,"(-0.75, 0.04)",images/min1.png,16,0.0605251033744,0.804558028899,[-0.1515625  -0.15833333],,,,,,,,['num_4'],,,,2018_Jun_22_1502,59.7365222207,sequenceLearningTask,001,089,
min1.png,min2.png,min3.png,min4.png,images/allBlank.png,"['num_7', 'num_4', 'num_1', 'num_0']",['num_4'],num_4,[2],'num_4',images/min2.png,"[(0.45, 0.79)]",,,,,0,-1,-1,0,3,3,15,1,,,,,,,,,,,,,"(-0.75, 0.04)",images/min1.png,16,0.053174132031,0.771650144964,[-0.2671875 -0.175    ],,,,,,,,['num_4'],,,,2018_Jun_22_1502,59.7365222207,sequenceLearningTask,001,089,
min1.png,min2.png,min3.png,min4.png,images/allBlank.png,"['num_7', 'num_4', 'num_1', 'num_0']",['num_4'],num_4,[2],'num_4',images/min2.png,"[(0.45, 0.79)]",,,,,0,-1,-1,0,4,0,16,1,,,,,,,,,,,,,"(0.25, 0.04)",images/min3.png,17,0.066081203659,0.638217174065,[-0.7171875  -0.06944444],,,,,,,,['num_4'],,,,2018_Jun_22_1502,59.7365222207,sequenceLearningTask,001,089,
min1.png,min2.png,min3.png,min4.png,images/allBlank.png,"['num_7', 'num_4', 'num_1', 'num_0']",['num_4'],num_4,[2],'num_4',images/min2.png,"[(0.45, 0.79)]",,,,,0,-1,-1,0,4,0,16,1,,,,,,,,,,,,,"(-0.25, 0.04)",images/min2.png,17,0.0712069451456,0.668016956711,[ 0.1609375  -0.15833333],,,,,,,,['num_4'],,,,2018_Jun_22_1502,59.7365222207,sequenceLearningTask,001,089,
min1.png,min2.png,min3.png,min4.png,images/allBlank.png,"['num_7', 'num_4', 'num_1', 'num_0']",['num_4'],num_4,[2],'num_4',images/min2.png,"[(0.45, 0.79)]",,,,,0,-1,-1,0,4,0,16,1,,,,,,,,,,,,,"(0.25, 0.04)",images/min3.png,17,0.0494982361033,0.419362699748,[-0.2171875 -0.175    ],,,,,,,,['num_4'],,,,2018_Jun_22_1502,59.7365222207,sequenceLearningTask,001,089,
min1.png,min2.png,min3.png,min4.png,images/allBlank.png,"['num_7', 'num_4', 'num_1', 'num_0']",['num_4'],num_4,[2],'num_4',images/min2.png,"[(0.45, 0.79)]",,,,,0,-1,-1,0,4,0,16,1,,,,,,,,,,,,,"(-0.25, 0.04)",images/min2.png,17,0.0226670676238,0.688931819926,[ 0.2421875  -0.10833333],,,,,,,,['num_4'],,,,2018_Jun_22_1502,59.7365222207,sequenceLearningTask,001,089,
min1.png,min2.png,min3.png,min4.png,images/allBlank.png,"['num_7', 'num_4', 'num_1', 'num_0']",['num_7'],num_7,[1],'num_7',images/min1.png,"[(0.45, 0.79)]",,,,,0,-1,-1,0,4,1,17,0,,,,,,,,,,,,,"(-0.75, 0.04)",images/min1.png,18,0.0581772069017,0.794696289355,[-0.153125   -0.16388889],,,,,,,,['num_7'],,,,2018_Jun_22_1502,59.7365222207,sequenceLearningTask,001,089,
min1.png,min2.png,min3.png,min4.png,images/allBlank.png,"['num_7', 'num_4', 'num_1', 'num_0']",['num_7'],num_7,[1],'num_7',images/min1.png,"[(0.45, 0.79)]",,,,,0,-1,-1,0,4,1,17,0,,,,,,,,,,,,,"(0.75, 0.04)",images/min4.png,18,0.0604516675071,0.693855715341,[-0.7828125  -0.15277778],,,,,,,,['num_7'],,,,2018_Jun_22_1502,59.7365222207,sequenceLearningTask,001,089,
min1.png,min2.png,min3.png,min4.png,images/allBlank.png,"['num_7', 'num_4', 'num_1', 'num_0']",['num_7'],num_7,[1],'num_7',images/min1.png,"[(0.45, 0.79)]",,,,,0,-1,-1,0,4,1,17,0,,,,,,,,,,,,,"(0.75, 0.04)",images/min4.png,18,0.0655433577258,0.656768551069,[ 0.628125   -0.27777778],,,,,,,,['num_7'],,,,2018_Jun_22_1502,59.7365222207,sequenceLearningTask,001,089,
min1.png,min2.png,min3.png,min4.png,images/allBlank.png,"['num_7', 'num_4', 'num_1', 'num_0']",['num_7'],num_7,[1],'num_7',images/min1.png,"[(0.45, 0.79)]",,,,,0,-1,-1,0,4,1,17,0,,,,,,,,,,,,,"(-0.25, 0.04)",images/min2.png,18,0.0604820264689,0.69422371519,[ 0.6734375  -0.31388889],,,,,,,,['num_7'],,,,2018_Jun_22_1502,59.7365222207,sequenceLearningTask,001,089,
min1.png,min2.png,min3.png,min4.png,images/allBlank.png,"['num_7', 'num_4', 'num_1', 'num_0']",['num_1'],num_1,[3],'num_1',images/min3.png,"[(0.45, 0.79)]",,,,,0,-1,-1,0,4,2,18,2,,,,,,,,,,,,,"(0.75, 0.04)",images/min4.png,19,0.0675331004995,0.616527747065,[-0.234375   -0.08055556],,,,,,,,['num_1'],,,,2018_Jun_22_1502,59.7365222207,sequenceLearningTask,001,089,
min1.png,min2.png,min3.png,min4.png,images/allBlank.png,"['num_7', 'num_4', 'num_1', 'num_0']",['num_1'],num_1,[3],'num_1',images/min3.png,"[(0.45, 0.79)]",,,,,0,-1,-1,0,4,2,18,2,,,,,,,,,,,,,"(-0.75, 0.04)",images/min1.png,19,0.0634625380662,0.776425117364,[ 0.753125   -0.25277778],,,,,,,,['num_1'],,,,2018_Jun_22_1502,59.7365222207,sequenceLearningTask,001,089,
min1.png,min2.png,min3.png,min4.png,images/allBlank.png,"['num_7', 'num_4', 'num_1', 'num_0']",['num_1'],num_1,[3],'num_1',images/min3.png,"[(0.45, 0.79)]",,,,,0,-1,-1,0,4,2,18,2,,,,,,,,,,,,,"(0.75, 0.04)",images/min4.png,19,0.0626945383815,0.740864516568,[-0.478125 -0.075   ],,,,,,,,['num_1'],,,,2018_Jun_22_1502,59.7365222207,sequenceLearningTask,001,089,
min1.png,min2.png,min3.png,min4.png,images/allBlank.png,"['num_7', 'num_4', 'num_1', 'num_0']",['num_1'],num_1,[3],'num_1',images/min3.png,"[(0.45, 0.79)]",,,,,0,-1,-1,0,4,2,18,2,,,,,,,,,,,,,"(0.25, 0.04)",images/min3.png,19,0.0577460275917,0.748573641611,[ 0.7171875  -0.08055556],,,,,,,,['num_1'],,,,2018_Jun_22_1502,59.7365222207,sequenceLearningTask,001,089,
min1.png,min2.png,min3.png,min4.png,images/allBlank.png,"['num_7', 'num_4', 'num_1', 'num_0']",['num_0'],num_0,[4],'num_0',images/min4.png,"[(0.45, 0.79)]",,,,,0,-1,-1,0,4,3,19,3,,,,,,,,,,,,,"(-0.75, 0.04)",images/min1.png,20,0.0668036649013,0.65610803852,[ 0.1859375  -0.03055556],,,,,,,,['num_0'],,,,2018_Jun_22_1502,59.7365222207,sequenceLearningTask,001,089,
min1.png,min2.png,min3.png,min4.png,images/allBlank.png,"['num_7', 'num_4', 'num_1', 'num_0']",['num_0'],num_0,[4],'num_0',images/min4.png,"[(0.45, 0.79)]",,,,,0,-1,-1,0,4,3,19,3,,,,,,,,,,,,,"(0.25, 0.04)",images/min3.png,20,0.0626087948272,0.462896220351,[-0.6796875  -0.05833333],,,,,,,,['num_0'],,,,2018_Jun_22_1502,59.7365222207,sequenceLearningTask,001,089,
min1.png,min2.png,min3.png,min4.png,images/allBlank.png,"['num_7', 'num_4', 'num_1', 'num_0']",['num_0'],num_0,[4],'num_0',images/min4.png,"[(0.45, 0.79)]",,,,,0,-1,-1,0,4,3,19,3,,,,,,,,,,,,,"(-0.25, 0.04)",images/min2.png,20,0.0670149468656,0.621956667915,[ 0.259375   -0.15555556],,,,,,,,['num_0'],,,,2018_Jun_22_1502,59.7365222207,sequenceLearningTask,001,089,
min1.png,min2.png,min3.png,min4.png,images/allBlank.png,"['num_7', 'num_4', 'num_1', 'num_0']",['num_0'],num_0,[4],'num_0',images/min4.png,"[(0.45, 0.79)]",,,,,0,-1,-1,0,4,3,19,3,,,,,,,,,,,,,"(0.25, 0.04)",images/min3.png,20,0.0611675646492,0.544294751059,[-0.25625    -0.07777778],,,,,,,,['num_0'],,,,2018_Jun_22_1502,59.7365222207,sequenceLearningTask,001,089,
min1.png,min2.png,min3.png,min4.png,allBlank.png,"['num_7', 'num_4', 'num_1', 'num_0']",['num_0'],num_0,[4],'num_0',images/min4.png,"[(0.45, 0.79)]",,,,,0,0,0,0,4,3,19,3,,,,,,,,,,,,,"(-0.75, -0.04)",images/min1.png,1,0.0354161905984,0.642514197943,[ 0.3515625  -0.11388889],,,,,,,,['num_0'],,,,2018_Jun_22_1502,59.7365222207,sequenceLearningTask,001,089,
min1.png,min2.png,min3.png,min4.png,allBlank.png,"['num_7', 'num_4', 'num_1', 'num_0']",['num_0'],num_0,[4],'num_0',images/min4.png,"[(0.45, 0.79)]",,,,,0,0,0,0,4,3,19,3,,,,,,,,,,,,,"(0.25, -0.04)",images/min3.png,1,0.0673296134032,0.470635704355,[-0.6734375  -0.16388889],,,,,,,,['num_0'],,,,2018_Jun_22_1502,59.7365222207,sequenceLearningTask,001,089,
min1.png,min2.png,min3.png,min4.png,allBlank.png,"['num_7', 'num_4', 'num_1', 'num_0']",['num_0'],num_0,[4],'num_0',images/min4.png,"[(0.45, 0.79)]",,,,,0,0,0,0,4,3,19,3,,,,,,,,,,,,,"(-0.25, -0.04)",images/min2.png,1,0.0541624393181,0.398246810976,[ 0.1984375  -0.13611111],,,,,,,,['num_0'],,,,2018_Jun_22_1502,59.7365222207,sequenceLearningTask,001,089,
min1.png,min2.png,min3.png,min4.png,allBlank.png,"['num_7', 'num_4', 'num_1', 'num_0']",['num_0'],num_0,[4],'num_0',images/min4.png,"[(0.45, 0.79)]",,,,,0,0,0,0,4,3,19,3,,,,,,,,,,,,,"(0.75, -0.04)",images/min4.png,1,0.0591441808638,0.561180487721,[-0.24375    -0.17222222],,,,,,,,['num_0'],,,,2018_Jun_22_1502,59.7365222207,sequenceLearningTask,001,089,
min1.png,min2.png,min3.png,min4.png,allBlank.png,"['num_7', 'num_4', 'num_1', 'num_0']",['num_0'],num_0,[4],'num_0',images/min4.png,"[(0.45, 0.79)]",,,,,0,0,0,0,4,3,19,3,,,,,,,,,,,,,"(0.75, -0.04)",images/min4.png,1,0.0648003836714,0.623833179966,[ 0.765625   -0.39722222],,,,,,,,['num_0'],,,,2018_Jun_22_1502,59.7365222207,sequenceLearningTask,001,089,
min1.png,min2.png,min3.png,min4.png,allBlank.png,"['num_7', 'num_4', 'num_1', 'num_0']",['num_0'],num_0,[4],'num_0',images/min4.png,"[(0.45, 0.79)]",,,,,0,0,0,0,4,3,19,3,,,,,,,,,,,,,"(-0.25, -0.04)",images/min2.png,1,0.0612619235849,0.545137417379,[ 0.7046875  -0.25833333],,,,,,,,['num_0'],,,,2018_Jun_22_1502,59.7365222207,sequenceLearningTask,001,089,
min1.png,min2.png,min3.png,min4.png,allBlank.png,"['num_7', 'num_4', 'num_1', 'num_0']",['num_0'],num_0,[4],'num_0',images/min4.png,"[(0.45, 0.79)]",,,,,0,0,0,0,4,3,19,3,,,,,,,,,,,,,"(0.25, -0.04)",images/min3.png,1,0.0639507429946,0.528540911368,[-0.0984375  -0.11944444],,,,,,,,['num_0'],,,,2018_Jun_22_1502,59.7365222207,sequenceLearningTask,001,089,
min1.png,min2.png,min3.png,min4.png,allBlank.png,"['num_7', 'num_4', 'num_1', 'num_0']",['num_0'],num_0,[4],'num_0',images/min4.png,"[(0.45, 0.79)]",,,,,0,0,0,0,4,3,19,3,,,,,,,,,,,,,"(0.75, -0.04)",images/min4.png,1,0.0504081844483,0.552949106482,[ 0.2125     -0.25277778],,,,,,,,['num_0'],,,,2018_Jun_22_1502,59.7365222207,sequenceLearningTask,001,089,
min1.png,min2.png,min3.png,min4.png,allBlank.png,"['num_7', 'num_4', 'num_1', 'num_0']",['num_0'],num_0,[4],'num_0',images/min4.png,"[(0.45, 0.79)]",,,,,0,1,1,1,4,3,19,3,,,,,,,,,,,,,"(-0.75, -0.04)",images/min1.png,2,0.0564824383659,0.579977197958,[ 0.6640625  -0.31944444],,,,,,,,['num_0'],,,,2018_Jun_22_1502,59.7365222207,sequenceLearningTask,001,089,
min1.png,min2.png,min3.png,min4.png,allBlank.png,"['num_7', 'num_4', 'num_1', 'num_0']",['num_0'],num_0,[4],'num_0',images/min4.png,"[(0.45, 0.79)]",,,,,0,1,1,1,4,3,19,3,,,,,,,,,,,,,"(0.25, -0.04)",images/min3.png,2,0.0578998736823,0.49742584721,[-0.7046875  -0.06111111],,,,,,,,['num_0'],,,,2018_Jun_22_1502,59.7365222207,sequenceLearningTask,001,089,
min1.png,min2.png,min3.png,min4.png,allBlank.png,"['num_7', 'num_4', 'num_1', 'num_0']",['num_0'],num_0,[4],'num_0',images/min4.png,"[(0.45, 0.79)]",,,,,0,1,1,1,4,3,19,3,,,,,,,,,,,,,"(-0.25, -0.04)",images/min2.png,2,0.0476537240397,0.427585875862,[ 0.26875 -0.375  ],,,,,,,,['num_0'],,,,2018_Jun_22_1502,59.7365222207,sequenceLearningTask,001,089,
min1.png,min2.png,min3.png,min4.png,allBlank.png,"['num_7', 'num_4', 'num_1', 'num_0']",['num_0'],num_0,[4],'num_0',images/min4.png,"[(0.45, 0.79)]",,,,,0,1,1,1,4,3,19,3,,,,,,,,,,,,,"(0.75, -0.04)",images/min4.png,2,0.0889443737665,0.578772275376,[-0.2078125  -0.19166667],,,,,,,,['num_0'],,,,2018_Jun_22_1502,59.7365222207,sequenceLearningTask,001,089,
min1.png,min2.png,min3.png,min4.png,allBlank.png,"['num_7', 'num_4', 'num_1', 'num_0']",['num_0'],num_0,[4],'num_0',images/min4.png,"[(0.45, 0.79)]",,,,,0,1,1,1,4,3,19,3,,,,,,,,,,,,,"(0.75, -0.04)",images/min4.png,2,0.0552291055474,0.582936786487,[ 0.7515625  -0.25277778],,,,,,,,['num_0'],,,,2018_Jun_22_1502,59.7365222207,sequenceLearningTask,001,089,
min1.png,min2.png,min3.png,min4.png,allBlank.png,"['num_7', 'num_4', 'num_1', 'num_0']",['num_0'],num_0,[4],'num_0',images/min4.png,"[(0.45, 0.79)]",,,,,0,1,1,1,4,3,19,3,,,,,,,,,,,,,"(-0.25, -0.04)",images/min2.png,2,0.0667080751964,0.655178808132,[ 0.6296875  -0.29166667],,,,,,,,['num_0'],,,,2018_Jun_22_1502,59.7365222207,sequenceLearningTask,001,089,
min1.png,min2.png,min3.png,min4.png,allBlank.png,"['num_7', 'num_4', 'num_1', 'num_0']",['num_0'],num_0,[4],'num_0',images/min4.png,"[(0.45, 0.79)]",,,,,0,1,1,1,4,3,19,3,,,,,,,,,,,,,"(0.25, -0.04)",images/min3.png,2,0.0629529998141,0.823065918742,[-0.128125   -0.32777778],,,,,,,,['num_0'],,,,2018_Jun_22_1502,59.7365222207,sequenceLearningTask,001,089,
min1.png,min2.png,min3.png,min4.png,allBlank.png,"['num_7', 'num_4', 'num_1', 'num_0']",['num_0'],num_0,[4],'num_0',images/min4.png,"[(0.45, 0.79)]",,,,,0,1,1,1,4,3,19,3,,,,,,,,,,,,,"(0.75, -0.04)",images/min4.png,2,0.0625755640717,0.610657390499,[ 0.1765625  -0.16666667],,,,,,,,['num_0'],,,,2018_Jun_22_1502,59.7365222207,sequenceLearningTask,001,089,
min1.png,min2.png,min3.png,min4.png,allBlank.png,"['num_7', 'num_4', 'num_1', 'num_0']",['num_0'],num_0,[4],'num_0',images/min4.png,"[(0.45, 0.79)]",,,,,0,2,2,2,4,3,19,3,,,,,,,,,,,,,"(-0.75, -0.04)",images/min1.png,3,0.0625320769095,0.561328590224,[ 0.6234375 -0.35     ],,,,,,,,['num_0'],,,,2018_Jun_22_1502,59.7365222207,sequenceLearningTask,001,089,
min1.png,min2.png,min3.png,min4.png,allBlank.png,"['num_7', 'num_4', 'num_1', 'num_0']",['num_0'],num_0,[4],'num_0',images/min4.png,"[(0.45, 0.79)]",,,,,0,2,2,2,4,3,19,3,,,,,,,,,,,,,"(0.25, -0.04)",images/min3.png,3,0.0515384403943,0.420605365905,[-0.653125 -0.075   ],,,,,,,,['num_0'],,,,2018_Jun_22_1502,59.7365222207,sequenceLearningTask,001,089,
min1.png,min2.png,min3.png,min4.png,allBlank.png,"['num_7', 'num_4', 'num_1', 'num_0']",['num_0'],num_0,[4],'num_0',images/min4.png,"[(0.45, 0.79)]",,,,,0,2,2,2,4,3,19,3,,,,,,,,,,,,,"(-0.25, -0.04)",images/min2.png,3,0.0542371059541,0.415174393775,[ 0.1640625  -0.14166667],,,,,,,,['num_0'],,,,2018_Jun_22_1502,59.7365222207,sequenceLearningTask,001,089,
min1.png,min2.png,min3.png,min4.png,allBlank.png,"['num_7', 'num_4', 'num_1', 'num_0']",['num_0'],num_0,[4],'num_0',images/min4.png,"[(0.45, 0.79)]",,,,,0,2,2,2,4,3,19,3,,,,,,,,,,,,,"(0.75, -0.04)",images/min4.png,3,0.0566818228995,0.583970221961,[-0.23125    -0.06944444],,,,,,,,['num_0'],,,,2018_Jun_22_1502,59.7365222207,sequenceLearningTask,001,089,
min1.png,min2.png,min3.png,min4.png,allBlank.png,"['num_7', 'num_4', 'num_1', 'num_0']",['num_0'],num_0,[4],'num_0',images/min4.png,"[(0.45, 0.79)]",,,,,0,2,2,2,4,3,19,3,,,,,,,,,,,,,"(0.75, -0.04)",images/min4.png,3,0.0382641894303,0.636188456948,[ 0.6796875 -0.1      ],,,,,,,,['num_0'],,,,2018_Jun_22_1502,59.7365222207,sequenceLearningTask,001,089,
min1.png,min2.png,min3.png,min4.png,allBlank.png,"['num_7', 'num_4', 'num_1', 'num_0']",['num_0'],num_0,[4],'num_0',images/min4.png,"[(0.45, 0.79)]",,,,,0,2,2,2,4,3,19,3,,,,,,,,,,,,,"(-0.25, -0.04)",images/min2.png,3,0.0468073654124,0.600975753446,[ 0.65       -0.12777778],,,,,,,,['num_0'],,,,2018_Jun_22_1502,59.7365222207,sequenceLearningTask,001,089,
min1.png,min2.png,min3.png,min4.png,allBlank.png,"['num_7', 'num_4', 'num_1', 'num_0']",['num_0'],num_0,[4],'num_0',images/min4.png,"[(0.45, 0.79)]",,,,,0,2,2,2,4,3,19,3,,,,,,,,,,,,,"(0.25, -0.04)",images/min3.png,3,0.0697595611241,0.402060963257,[-0.2421875  -0.15833333],,,,,,,,['num_0'],,,,2018_Jun_22_1502,59.7365222207,sequenceLearningTask,001,089,
min1.png,min2.png,min3.png,min4.png,allBlank.png,"['num_7', 'num_4', 'num_1', 'num_0']",['num_0'],num_0,[4],'num_0',images/min4.png,"[(0.45, 0.79)]",,,,,0,2,2,2,4,3,19,3,,,,,,,,,,,,,"(0.75, -0.04)",images/min4.png,3,0.0636844866935,0.45680145362,[ 0.2234375  -0.13888889],,,,,,,,['num_0'],,,,2018_Jun_22_1502,59.7365222207,sequenceLearningTask,001,089,
min1.png,min2.png,min3.png,min4.png,allBlank.png,"['num_7', 'num_4', 'num_1', 'num_0']",['num_0'],num_0,[4],'num_0',images/min4.png,"[(0.45, 0.79)]",,,,,0,3,3,3,4,3,19,3,,,,,,,,,,,,,"(-0.75, -0.04)",images/min1.png,4,0.0605132059432,0.643138197687,[ 0.6359375 -0.275    ],,,,,,,,['num_0'],,,,2018_Jun_22_1502,59.7365222207,sequenceLearningTask,001,089,
min1.png,min2.png,min3.png,min4.png,allBlank.png,"['num_7', 'num_4', 'num_1', 'num_0']",['num_0'],num_0,[4],'num_0',images/min4.png,"[(0.45, 0.79)]",,,,,0,3,3,3,4,3,19,3,,,,,,,,,,,,,"(0.25, -0.04)",images/min3.png,4,0.055774746349,0.502168819623,[-0.8140625  -0.24722222],,,,,,,,['num_0'],,,,2018_Jun_22_1502,59.7365222207,sequenceLearningTask,001,089,
min1.png,min2.png,min3.png,min4.png,allBlank.png,"['num_7', 'num_4', 'num_1', 'num_0']",['num_0'],num_0,[4],'num_0',images/min4.png,"[(0.45, 0.79)]",,,,,0,3,3,3,4,3,19,3,,,,,,,,,,,,,"(-0.25, -0.04)",images/min2.png,4,0.0538826445609,0.382842099347,[ 0.2203125  -0.04722222],,,,,,,,['num_0'],,,,2018_Jun_22_1502,59.7365222207,sequenceLearningTask,001,089,
min1.png,min2.png,min3.png,min4.png,allBlank.png,"['num_7', 'num_4', 'num_1', 'num_0']",['num_0'],num_0,[4],'num_0',images/min4.png,"[(0.45, 0.79)]",,,,,0,3,3,3,4,3,19,3,,,,,,,,,,,,,"(0.75, -0.04)",images/min4.png,4,0.0603778213836,0.512492507695,[-0.0984375  -0.09166667],,,,,,,,['num_0'],,,,2018_Jun_22_1502,59.7365222207,sequenceLearningTask,001,089,
min1.png,min2.png,min3.png,min4.png,allBlank.png,"['num_7', 'num_4', 'num_1', 'num_0']",['num_0'],num_0,[4],'num_0',images/min4.png,"[(0.45, 0.79)]",,,,,0,3,3,3,4,3,19,3,,,,,,,,,,,,,"(0.75, -0.04)",images/min4.png,4,0.0576377199432,0.696350893805,[ 0.6078125  -0.15277778],,,,,,,,['num_0'],,,,2018_Jun_22_1502,59.7365222207,sequenceLearningTask,001,089,
min1.png,min2.png,min3.png,min4.png,allBlank.png,"['num_7', 'num_4', 'num_1', 'num_0']",['num_0'],num_0,[4],'num_0',images/min4.png,"[(0.45, 0.79)]",,,,,0,3,3,3,4,3,19,3,,,,,,,,,,,,,"(-0.25, -0.04)",images/min2.png,4,0.0725497138255,0.615215747604,[ 0.6640625  -0.28611111],,,,,,,,['num_0'],,,,2018_Jun_22_1502,59.7365222207,sequenceLearningTask,001,089,
min1.png,min2.png,min3.png,min4.png,allBlank.png,"['num_7', 'num_4', 'num_1', 'num_0']",['num_0'],num_0,[4],'num_0',images/min4.png,"[(0.45, 0.79)]",,,,,0,3,3,3,4,3,19,3,,,,,,,,,,,,,"(0.25, -0.04)",images/min3.png,4,0.0645833581198,0.423423005775,[-0.1953125  -0.09722222],,,,,,,,['num_0'],,,,2018_Jun_22_1502,59.7365222207,sequenceLearningTask,001,089,
min1.png,min2.png,min3.png,min4.png,allBlank.png,"['num_7', 'num_4', 'num_1', 'num_0']",['num_0'],num_0,[4],'num_0',images/min4.png,"[(0.45, 0.79)]",,,,,0,3,3,3,4,3,19,3,,,,,,,,,,,,,"(0.75, -0.04)",images/min4.png,4,0.0619999745641,0.447063611461,[ 0.2953125  -0.03888889],,,,,,,,['num_0'],,,,2018_Jun_22_1502,59.7365222207,sequenceLearningTask,001,089,
min1.png,min2.png,min3.png,min4.png,allBlank.png,"['num_7', 'num_4', 'num_1', 'num_0']",['num_0'],num_0,[4],'num_0',images/min4.png,"[(0.45, 0.79)]",,,,,0,4,4,4,4,3,19,3,,,,,,,,,,,,,"(-0.75, -0.04)",images/min1.png,5,0.0570498227485,0.715173039929,[ 0.5953125  -0.24722222],,,,,,,,['num_0'],,,,2018_Jun_22_1502,59.7365222207,sequenceLearningTask,001,089,
min1.png,min2.png,min3.png,min4.png,allBlank.png,"['num_7', 'num_4', 'num_1', 'num_0']",['num_0'],num_0,[4],'num_0',images/min4.png,"[(0.45, 0.79)]",,,,,0,4,4,4,4,3,19,3,,,,,,,,,,,,,"(0.25, -0.04)",images/min3.png,5,0.0530219269654,0.617741285029,[-0.040625   -0.08055556],,,,,,,,['num_0'],,,,2018_Jun_22_1502,59.7365222207,sequenceLearningTask,001,089,
min1.png,min2.png,min3.png,min4.png,allBlank.png,"['num_7', 'num_4', 'num_1', 'num_0']",['num_0'],num_0,[4],'num_0',images/min4.png,"[(0.45, 0.79)]",,,,,0,4,4,4,4,3,19,3,,,,,,,,,,,,,"(-0.25, -0.04)",images/min2.png,5,0.0569021305018,0.68501223179,[ 0.334375   -0.11388889],,,,,,,,['num_0'],,,,2018_Jun_22_1502,59.7365222207,sequenceLearningTask,001,089,
min1.png,min2.png,min3.png,min4.png,allBlank.png,"['num_7', 'num_4', 'num_1', 'num_0']",['num_0'],num_0,[4],'num_0',images/min4.png,"[(0.45, 0.79)]",,,,,0,4,4,4,4,3,19,3,,,,,,,,,,,,,"(0.75, -0.04)",images/min4.png,5,0.0554957721042,0.581760992098,[-0.0640625  -0.09722222],,,,,,,,['num_0'],,,,2018_Jun_22_1502,59.7365222207,sequenceLearningTask,001,089,
min1.png,min2.png,min3.png,min4.png,allBlank.png,"['num_7', 'num_4', 'num_1', 'num_0']",['num_0'],num_0,[4],'num_0',images/min4.png,"[(0.45, 0.79)]",,,,,0,4,4,4,4,3,19,3,,,,,,,,,,,,,"(0.75, -0.04)",images/min4.png,5,0.0577571045096,0.585672785365,[ 0.65625    -0.19166667],,,,,,,,['num_0'],,,,2018_Jun_22_1502,59.7365222207,sequenceLearningTask,001,089,
min1.png,min2.png,min3.png,min4.png,allBlank.png,"['num_7', 'num_4', 'num_1', 'num_0']",['num_0'],num_0,[4],'num_0',images/min4.png,"[(0.45, 0.79)]",,,,,0,4,4,4,4,3,19,3,,,,,,,,,,,,,"(-0.25, -0.04)",images/min2.png,5,0.059979872829,0.598986831185,[ 0.6        -0.24166667],,,,,,,,['num_0'],,,,2018_Jun_22_1502,59.7365222207,sequenceLearningTask,001,089,
min1.png,min2.png,min3.png,min4.png,allBlank.png,"['num_7', 'num_4', 'num_1', 'num_0']",['num_0'],num_0,[4],'num_0',images/min4.png,"[(0.45, 0.79)]",,,,,0,4,4,4,4,3,19,3,,,,,,,,,,,,,"(0.25, -0.04)",images/min3.png,5,0.0554711567297,0.468673859006,[-0.1875     -0.09444444],,,,,,,,['num_0'],,,,2018_Jun_22_1502,59.7365222207,sequenceLearningTask,001,089,
min1.png,min2.png,min3.png,min4.png,allBlank.png,"['num_7', 'num_4', 'num_1', 'num_0']",['num_0'],num_0,[4],'num_0',images/min4.png,"[(0.45, 0.79)]",,,,,0,4,4,4,4,3,19,3,,,,,,,,,,,,,"(0.75, -0.04)",images/min4.png,5,0.0544853109805,0.452673045057,[ 0.2671875  -0.01944444],,,,,,,,['num_0'],,,,2018_Jun_22_1502,59.7365222207,sequenceLearningTask,001,089,
min1.png,min2.png,min3.png,min4.png,allBlank.png,"['num_7', 'num_4', 'num_1', 'num_0']",['num_0'],num_0,[4],'num_0',images/min4.png,"[(0.45, 0.79)]",,,,,0,5,5,5,4,3,19,3,,,,,,,,,,,,,"(-0.75, -0.04)",images/min1.png,6,0.0528040809008,0.47101396061,[ 0.6078125 -0.25     ],,,,,,,,['num_0'],,,,2018_Jun_22_1502,59.7365222207,sequenceLearningTask,001,089,
min1.png,min2.png,min3.png,min4.png,allBlank.png,"['num_7', 'num_4', 'num_1', 'num_0']",['num_0'],num_0,[4],'num_0',images/min4.png,"[(0.45, 0.79)]",,,,,0,5,5,5,4,3,19,3,,,,,,,,,,,,,"(0.25, -0.04)",images/min3.png,6,0.0536955677148,0.471161652857,[-0.784375   -0.17777778],,,,,,,,['num_0'],,,,2018_Jun_22_1502,59.7365222207,sequenceLearningTask,001,089,
min1.png,min2.png,min3.png,min4.png,allBlank.png,"['num_7', 'num_4', 'num_1', 'num_0']",['num_0'],num_0,[4],'num_0',images/min4.png,"[(0.45, 0.79)]",,,,,0,5,5,5,4,3,19,3,,,,,,,,,,,,,"(-0.25, -0.04)",images/min2.png,6,0.0613062312591,0.611523441426,[ 0.309375   -0.09166667],,,,,,,,['num_0'],,,,2018_Jun_22_1502,59.7365222207,sequenceLearningTask,001,089,
min1.png,min2.png,min3.png,min4.png,allBlank.png,"['num_7', 'num_4', 'num_1', 'num_0']",['num_0'],num_0,[4],'num_0',images/min4.png,"[(0.45, 0.79)]",,,,,0,5,5,5,4,3,19,3,,,,,,,,,,,,,"(0.75, -0.04)",images/min4.png,6,0.0589427450491,0.512260712919,[-0.1765625 -0.075    ],,,,,,,,['num_0'],,,,2018_Jun_22_1502,59.7365222207,sequenceLearningTask,001,089,
min1.png,min2.png,min3.png,min4.png,allBlank.png,"['num_7', 'num_4', 'num_1', 'num_0']",['num_0'],num_0,[4],'num_0',images/min4.png,"[(0.45, 0.79)]",,,,,0,5,5,5,4,3,19,3,,,,,,,,,,,,,"(0.75, -0.04)",images/min4.png,6,0.0583823350225,0.71596442422,[ 0.6171875  -0.19722222],,,,,,,,['num_0'],,,,2018_Jun_22_1502,59.7365222207,sequenceLearningTask,001,089,
min1.png,min2.png,min3.png,min4.png,allBlank.png,"['num_7', 'num_4', 'num_1', 'num_0']",['num_0'],num_0,[4],'num_0',images/min4.png,"[(0.45, 0.79)]",,,,,0,5,5,5,4,3,19,3,,,,,,,,,,,,,"(-0.25, -0.04)",images/min2.png,6,0.0600955650889,0.561542743982,[ 0.6109375  -0.28055556],,,,,,,,['num_0'],,,,2018_Jun_22_1502,59.7365222207,sequenceLearningTask,001,089,
min1.png,min2.png,min3.png,min4.png,allBlank.png,"['num_7', 'num_4', 'num_1', 'num_0']",['num_0'],num_0,[4],'num_0',images/min4.png,"[(0.45, 0.79)]",,,,,0,5,5,5,4,3,19,3,,,,,,,,,,,,,"(0.25, -0.04)",images/min3.png,6,0.0670896135016,0.451795917212,[-0.0484375  -0.05277778],,,,,,,,['num_0'],,,,2018_Jun_22_1502,59.7365222207,sequenceLearningTask,001,089,
min1.png,min2.png,min3.png,min4.png,allBlank.png,"['num_7', 'num_4', 'num_1', 'num_0']",['num_0'],num_0,[4],'num_0',images/min4.png,"[(0.45, 0.79)]",,,,,0,5,5,5,4,3,19,3,,,,,,,,,,,,,"(0.75, -0.04)",images/min4.png,6,0.0618707438475,0.58229022265,[ 0.184375   -0.11388889],,,,,,,,['num_0'],,,,2018_Jun_22_1502,59.7365222207,sequenceLearningTask,001,089,
min1.png,min2.png,min3.png,min4.png,allBlank.png,"['num_7', 'num_4', 'num_1', 'num_0']",['num_0'],num_0,[4],'num_0',images/min4.png,"[(0.45, 0.79)]",,,,,0,6,6,6,4,3,19,3,,,,,,,,,,,,,"(-0.75, -0.04)",images/min1.png,7,0.0537148497579,0.369010720406,[ 0.6234375  -0.25277778],,,,,,,,['num_0'],,,,2018_Jun_22_1502,59.7365222207,sequenceLearningTask,001,089,
min1.png,min2.png,min3.png,min4.png,allBlank.png,"['num_7', 'num_4', 'num_1', 'num_0']",['num_0'],num_0,[4],'num_0',images/min4.png,"[(0.45, 0.79)]",,,,,0,6,6,6,4,3,19,3,,,,,,,,,,,,,"(0.25, -0.04)",images/min3.png,7,0.0573530021115,0.532362858518,[-0.7453125  -0.06666667],,,,,,,,['num_0'],,,,2018_Jun_22_1502,59.7365222207,sequenceLearningTask,001,089,
min1.png,min2.png,min3.png,min4.png,allBlank.png,"['num_7', 'num_4', 'num_1', 'num_0']",['num_0'],num_0,[4],'num_0',images/min4.png,"[(0.45, 0.79)]",,,,,0,6,6,6,4,3,19,3,,,,,,,,,,,,,"(-0.25, -0.04)",images/min2.png,7,0.0597419242085,0.681468028116,[ 0.3359375  -0.15277778],,,,,,,,['num_0'],,,,2018_Jun_22_1502,59.7365222207,sequenceLearningTask,001,089,
min1.png,min2.png,min3.png,min4.png,allBlank.png,"['num_7', 'num_4', 'num_1', 'num_0']",['num_0'],num_0,[4],'num_0',images/min4.png,"[(0.45, 0.79)]",,,,,0,6,6,6,4,3,19,3,,,,,,,,,,,,,"(0.75, -0.04)",images/min4.png,7,0.0620758719688,0.545573519765,[-0.2203125  -0.04444444],,,,,,,,['num_0'],,,,2018_Jun_22_1502,59.7365222207,sequenceLearningTask,001,089,
min1.png,min2.png,min3.png,min4.png,allBlank.png,"['num_7', 'num_4', 'num_1', 'num_0']",['num_0'],num_0,[4],'num_0',images/min4.png,"[(0.45, 0.79)]",,,,,0,6,6,6,4,3,19,3,,,,,,,,,,,,,"(0.75, -0.04)",images/min4.png,7,0.0572947457249,0.583134940252,[ 0.5546875  -0.14166667],,,,,,,,['num_0'],,,,2018_Jun_22_1502,59.7365222207,sequenceLearningTask,001,089,
min1.png,min2.png,min3.png,min4.png,allBlank.png,"['num_7', 'num_4', 'num_1', 'num_0']",['num_0'],num_0,[4],'num_0',images/min4.png,"[(0.45, 0.79)]",,,,,0,6,6,6,4,3,19,3,,,,,,,,,,,,,"(-0.25, -0.04)",images/min2.png,7,0.0526223373854,0.739255491587,[ 0.575      -0.33611111],,,,,,,,['num_0'],,,,2018_Jun_22_1502,59.7365222207,sequenceLearningTask,001,089,
min1.png,min2.png,min3.png,min4.png,allBlank.png,"['num_7', 'num_4', 'num_1', 'num_0']",['num_0'],num_0,[4],'num_0',images/min4.png,"[(0.45, 0.79)]",,,,,0,6,6,6,4,3,19,3,,,,,,,,,,,,,"(0.25, -0.04)",images/min3.png,7,0.0615105388674,0.428290285829,[-0.2890625  -0.09722222],,,,,,,,['num_0'],,,,2018_Jun_22_1502,59.7365222207,sequenceLearningTask,001,089,
min1.png,min2.png,min3.png,min4.png,allBlank.png,"['num_7', 'num_4', 'num_1', 'num_0']",['num_0'],num_0,[4],'num_0',images/min4.png,"[(0.45, 0.79)]",,,,,0,6,6,6,4,3,19,3,,,,,,,,,,,,,"(0.75, -0.04)",images/min4.png,7,0.0568918740955,0.389727019599,[ 0.2640625  -0.09722222],,,,,,,,['num_0'],,,,2018_Jun_22_1502,59.7365222207,sequenceLearningTask,001,089,
min1.png,min2.png,min3.png,min4.png,allBlank.png,"['num_7', 'num_4', 'num_1', 'num_0']",['num_0'],num_0,[4],'num_0',images/min4.png,"[(0.45, 0.79)]",,,,,0,7,7,7,4,3,19,3,,,,,,,,,,,,,"(-0.75, -0.04)",images/min1.png,8,0.0607540263577,0.409161268036,[ 0.659375   -0.23611111],,,,,,,,['num_0'],,,,2018_Jun_22_1502,59.7365222207,sequenceLearningTask,001,089,
min1.png,min2.png,min3.png,min4.png,allBlank.png,"['num_7', 'num_4', 'num_1', 'num_0']",['num_0'],num_0,[4],'num_0',images/min4.png,"[(0.45, 0.79)]",,,,,0,7,7,7,4,3,19,3,,,,,,,,,,,,,"(0.25, -0.04)",images/min3.png,8,0.0582937196746,0.516407993268,[-0.746875 -0.2     ],,,,,,,,['num_0'],,,,2018_Jun_22_1502,59.7365222207,sequenceLearningTask,001,089,
min1.png,min2.png,min3.png,min4.png,allBlank.png,"['num_7', 'num_4', 'num_1', 'num_0']",['num_0'],num_0,[4],'num_0',images/min4.png,"[(0.45, 0.79)]",,,,,0,7,7,7,4,3,19,3,,,,,,,,,,,,,"(-0.25, -0.04)",images/min2.png,8,0.0551655158297,0.556913412549,[ 0.340625   -0.26944444],,,,,,,,['num_0'],,,,2018_Jun_22_1502,59.7365222207,sequenceLearningTask,001,089,
min1.png,min2.png,min3.png,min4.png,allBlank.png,"['num_7', 'num_4', 'num_1', 'num_0']",['num_0'],num_0,[4],'num_0',images/min4.png,"[(0.45, 0.79)]",,,,,0,7,7,7,4,3,19,3,,,,,,,,,,,,,"(0.75, -0.04)",images/min4.png,8,0.0558145412042,0.669159520345,[-0.1296875  -0.16944444],,,,,,,,['num_0'],,,,2018_Jun_22_1502,59.7365222207,sequenceLearningTask,001,089,
