pawPatrol1,pawPatrol2,pawPatrol3,pawPatrol4,blank,randomPaw,correctKeyPress,allowableKey,correctKey,correctKeyPressNum,trials.thisRepN,trials.thisTrialN,trials.thisN,trials.thisIndex,trials_3.thisRepN,trials_3.thisTrialN,trials_3.thisN,trials_3.thisIndex,trials_2.thisRepN,trials_2.thisTrialN,trials_2.thisN,trials_2.thisIndex,trials_questions.thisRepN,trials_questions.thisTrialN,trials_questions.thisN,trials_questions.thisIndex,trials_test.thisRepN,trials_test.thisTrialN,trials_test.thisN,trials_test.thisIndex,trials_recogtest.thisRepN,trials_recogtest.thisTrialN,trials_recogtest.thisN,trials_recogtest.thisIndex,correctKey,repetitionNumber,stimulusPresent.t,trialCorrect,key_resp_9.keys,key_resp_9.corr,key_resp_9.rt,keyRespCorrect,questionsResponses,AnswerFinished.keys,AnswerFinished.rt,RecordAnswer.keys,RecordAnswer.rt,recallResponse,recallResponseTime,date,frameRate,expName,session,participant,
min1.png,min2.png,min3.png,min4.png,allBlank.png,,,,['num_7'],,,,,,0,0,0,0,,,,,,,,,,,,,,,,,['num_7'],1,0.0531814730074,1,['num_7'],0,[16.3634498090874],,,,,,,,,2018_Apr_28_1224,59.9079078341,sequenceLearningTask,001,083,
min1.png,min2.png,min3.png,min4.png,allBlank.png,,,,['num_1'],,,,,,0,0,0,0,,,,,,,,,,,,,,,,,['num_1'],1,0.0770755974454,1,['num_1'],0,[0.9673666042667719],,,,,,,,,2018_Apr_28_1224,59.9079078341,sequenceLearningTask,001,083,
min1.png,min2.png,min3.png,min4.png,allBlank.png,,,,['num_4'],,,,,,0,0,0,0,,,,,,,,,,,,,,,,,['num_4'],1,0.0680717110912,0,"['num_7', 'num_4']",0,"[1.5770963153686353, 2.209888151932546]",,,,,,,,,2018_Apr_28_1224,59.9079078341,sequenceLearningTask,001,083,
min1.png,min2.png,min3.png,min4.png,allBlank.png,,,,['num_0'],,,,,,0,0,0,0,,,,,,,,,,,,,,,,,['num_0'],1,0.0632142811721,1,['num_0'],0,[1.4977003105226459],,,,,,,,,2018_Apr_28_1224,59.9079078341,sequenceLearningTask,001,083,
min1.png,min2.png,min3.png,min4.png,allBlank.png,,,,['num_0'],,,,,,0,0,0,0,,,,,,,,,,,,,,,,,['num_0'],1,0.0588680301111,1,['num_0'],0,[0.7684019260693731],,,,,,,,,2018_Apr_28_1224,59.9079078341,sequenceLearningTask,001,083,
min1.png,min2.png,min3.png,min4.png,allBlank.png,,,,['num_4'],,,,,,0,0,0,0,,,,,,,,,,,,,,,,,['num_4'],1,0.0497804515522,1,['num_4'],0,[1.0255363788270415],,,,,,,,,2018_Apr_28_1224,59.9079078341,sequenceLearningTask,001,083,
min1.png,min2.png,min3.png,min4.png,allBlank.png,,,,['num_1'],,,,,,0,0,0,0,,,,,,,,,,,,,,,,,['num_1'],1,0.0572286475135,1,['num_1'],0,[1.2380021686126952],,,,,,,,,2018_Apr_28_1224,59.9079078341,sequenceLearningTask,001,083,
min1.png,min2.png,min3.png,min4.png,allBlank.png,,,,['num_0'],,,,,,0,0,0,0,,,,,,,,,,,,,,,,,['num_0'],1,0.0516376800356,1,['num_0'],0,[0.8098447468577774],,,,,,,,,2018_Apr_28_1224,59.9079078341,sequenceLearningTask,001,083,
min1.png,min2.png,min3.png,min4.png,allBlank.png,,,,['num_7'],,,,,,0,1,1,1,,,,,,,,,,,,,,,,,['num_7'],2,0.0553783933805,1,['num_7'],0,[1.8382976349157616],,,,,,,,,2018_Apr_28_1224,59.9079078341,sequenceLearningTask,001,083,
min1.png,min2.png,min3.png,min4.png,allBlank.png,,,,['num_1'],,,,,,0,1,1,1,,,,,,,,,,,,,,,,,['num_1'],2,0.0484889659623,1,['num_1'],0,[1.7629016251467533],,,,,,,,,2018_Apr_28_1224,59.9079078341,sequenceLearningTask,001,083,
min1.png,min2.png,min3.png,min4.png,allBlank.png,,,,['num_4'],,,,,,0,1,1,1,,,,,,,,,,,,,,,,,['num_4'],2,0.0497373746823,1,['num_4'],0,[1.1286591237015955],,,,,,,,,2018_Apr_28_1224,59.9079078341,sequenceLearningTask,001,083,
min1.png,min2.png,min3.png,min4.png,allBlank.png,,,,['num_0'],,,,,,0,1,1,1,,,,,,,,,,,,,,,,,['num_0'],2,0.0499708102923,1,['num_0'],0,[0.8277360068890403],,,,,,,,,2018_Apr_28_1224,59.9079078341,sequenceLearningTask,001,083,
min1.png,min2.png,min3.png,min4.png,allBlank.png,,,,['num_0'],,,,,,0,1,1,1,,,,,,,,,,,,,,,,,['num_0'],2,0.0528257811375,1,['num_0'],0,[0.773707355437125],,,,,,,,,2018_Apr_28_1224,59.9079078341,sequenceLearningTask,001,083,
min1.png,min2.png,min3.png,min4.png,allBlank.png,,,,['num_4'],,,,,,0,1,1,1,,,,,,,,,,,,,,,,,['num_4'],2,0.0525127558817,1,['num_4'],0,[1.7591104503255792],,,,,,,,,2018_Apr_28_1224,59.9079078341,sequenceLearningTask,001,083,
min1.png,min2.png,min3.png,min4.png,allBlank.png,,,,['num_1'],,,,,,0,1,1,1,,,,,,,,,,,,,,,,,['num_1'],2,0.0510834243075,1,['num_1'],0,[0.7603079873132401],,,,,,,,,2018_Apr_28_1224,59.9079078341,sequenceLearningTask,001,083,
min1.png,min2.png,min3.png,min4.png,allBlank.png,,,,['num_0'],,,,,,0,1,1,1,,,,,,,,,,,,,,,,,['num_0'],2,0.0600754132406,1,['num_0'],0,[0.46765029622525844],,,,,,,,,2018_Apr_28_1224,59.9079078341,sequenceLearningTask,001,083,
min1.png,min2.png,min3.png,min4.png,allBlank.png,,,,['num_7'],,,,,,0,2,2,2,,,,,,,,,,,,,,,,,['num_7'],3,0.0533217805271,1,['num_7'],0,[0.7724782287447738],,,,,,,,,2018_Apr_28_1224,59.9079078341,sequenceLearningTask,001,083,
min1.png,min2.png,min3.png,min4.png,allBlank.png,,,,['num_1'],,,,,,0,2,2,2,,,,,,,,,,,,,,,,,['num_1'],3,0.0579662876312,1,['num_1'],0,[0.9371713593788513],,,,,,,,,2018_Apr_28_1224,59.9079078341,sequenceLearningTask,001,083,
min1.png,min2.png,min3.png,min4.png,allBlank.png,,,,['num_4'],,,,,,0,2,2,2,,,,,,,,,,,,,,,,,['num_4'],3,0.0482317355097,1,['num_4'],0,[1.112865502114289],,,,,,,,,2018_Apr_28_1224,59.9079078341,sequenceLearningTask,001,083,
min1.png,min2.png,min3.png,min4.png,allBlank.png,,,,['num_0'],,,,,,0,2,2,2,,,,,,,,,,,,,,,,,['num_0'],3,0.0558764440495,1,['num_0'],0,[0.8218381679940876],,,,,,,,,2018_Apr_28_1224,59.9079078341,sequenceLearningTask,001,083,
min1.png,min2.png,min3.png,min4.png,allBlank.png,,,,['num_0'],,,,,,0,2,2,2,,,,,,,,,,,,,,,,,['num_0'],3,0.0544163432824,1,['num_0'],0,[0.8235255505326222],,,,,,,,,2018_Apr_28_1224,59.9079078341,sequenceLearningTask,001,083,
min1.png,min2.png,min3.png,min4.png,allBlank.png,,,,['num_4'],,,,,,0,2,2,2,,,,,,,,,,,,,,,,,['num_4'],3,0.0512081421028,1,['num_4'],0,[1.1934647875305018],,,,,,,,,2018_Apr_28_1224,59.9079078341,sequenceLearningTask,001,083,
min1.png,min2.png,min3.png,min4.png,allBlank.png,,,,['num_1'],,,,,,0,2,2,2,,,,,,,,,,,,,,,,,['num_1'],3,0.0477800437579,0,"['num_0', 'num_1']",0,"[0.5799508759578771, 1.8807714287941053]",,,,,,,,,2018_Apr_28_1224,59.9079078341,sequenceLearningTask,001,083,
min1.png,min2.png,min3.png,min4.png,allBlank.png,,,,['num_0'],,,,,,0,2,2,2,,,,,,,,,,,,,,,,,['num_0'],3,0.0535843443064,0,"['num_1', 'num_0']",0,"[0.6575643188951972, 1.4410730981664415]",,,,,,,,,2018_Apr_28_1224,59.9079078341,sequenceLearningTask,001,083,
min1.png,min2.png,min3.png,min4.png,allBlank.png,,,,['num_7'],,,,,,0,3,3,3,,,,,,,,,,,,,,,,,['num_7'],4,0.0548036248571,1,['num_7'],0,[0.8037663953644483],,,,,,,,,2018_Apr_28_1224,59.9079078341,sequenceLearningTask,001,083,
min1.png,min2.png,min3.png,min4.png,allBlank.png,,,,['num_1'],,,,,,0,3,3,3,,,,,,,,,,,,,,,,,['num_1'],4,0.0478674282657,0,"['num_4', 'num_1']",0,"[1.0142010081628996, 4.130659121240058]",,,,,,,,,2018_Apr_28_1224,59.9079078341,sequenceLearningTask,001,083,
min1.png,min2.png,min3.png,min4.png,allBlank.png,,,,['num_4'],,,,,,0,3,3,3,,,,,,,,,,,,,,,,,['num_4'],4,0.0522821920629,1,['num_4'],0,[1.8600284799649671],,,,,,,,,2018_Apr_28_1224,59.9079078341,sequenceLearningTask,001,083,
min1.png,min2.png,min3.png,min4.png,allBlank.png,,,,['num_0'],,,,,,0,3,3,3,,,,,,,,,,,,,,,,,['num_0'],4,0.0533283446215,1,['num_0'],0,[0.8566914584310439],,,,,,,,,2018_Apr_28_1224,59.9079078341,sequenceLearningTask,001,083,
min1.png,min2.png,min3.png,min4.png,allBlank.png,,,,['num_0'],,,,,,0,3,3,3,,,,,,,,,,,,,,,,,['num_0'],4,0.0521829101339,1,['num_0'],0,[0.6755917838870005],,,,,,,,,2018_Apr_28_1224,59.9079078341,sequenceLearningTask,001,083,
min1.png,min2.png,min3.png,min4.png,allBlank.png,,,,['num_4'],,,,,,0,3,3,3,,,,,,,,,,,,,,,,,['num_4'],4,0.051679936394,0,"['num_7', 'num_4']",0,"[0.7264471059112338, 0.7592638860342049]",,,,,,,,,2018_Apr_28_1224,59.9079078341,sequenceLearningTask,001,083,
min1.png,min2.png,min3.png,min4.png,allBlank.png,,,,['num_1'],,,,,,0,3,3,3,,,,,,,,,,,,,,,,,['num_1'],4,0.0561053668447,1,['num_1'],0,[2.122004772917194],,,,,,,,,2018_Apr_28_1224,59.9079078341,sequenceLearningTask,001,083,
min1.png,min2.png,min3.png,min4.png,allBlank.png,,,,['num_0'],,,,,,0,3,3,3,,,,,,,,,,,,,,,,,['num_0'],4,0.0610272069409,1,['num_0'],0,[0.7155978884948695],,,,,,,,,2018_Apr_28_1224,59.9079078341,sequenceLearningTask,001,083,
min1.png,min2.png,min3.png,min4.png,allBlank.png,,,,['num_7'],,,,,,0,4,4,4,,,,,,,,,,,,,,,,,['num_7'],5,0.05844833832,1,['num_7'],0,[1.3025206533079086],,,,,,,,,2018_Apr_28_1224,59.9079078341,sequenceLearningTask,001,083,
min1.png,min2.png,min3.png,min4.png,allBlank.png,,,,['num_1'],,,,,,0,4,4,4,,,,,,,,,,,,,,,,,['num_1'],5,0.056723622494,0,"['num_4', 'num_1']",0,"[0.6377756253017992, 2.7712142303004157]",,,,,,,,,2018_Apr_28_1224,59.9079078341,sequenceLearningTask,001,083,
min1.png,min2.png,min3.png,min4.png,allBlank.png,,,,['num_4'],,,,,,0,4,4,4,,,,,,,,,,,,,,,,,['num_4'],5,0.0534083445231,0,"['num_0', 'num_4']",0,"[0.0002904611809526614, 2.0078408108626036]",,,,,,,,,2018_Apr_28_1224,59.9079078341,sequenceLearningTask,001,083,
min1.png,min2.png,min3.png,min4.png,allBlank.png,,,,['num_0'],,,,,,0,4,4,4,,,,,,,,,,,,,,,,,['num_0'],5,0.0737783707343,1,['num_0'],0,[0.7191273200484147],,,,,,,,,2018_Apr_28_1224,59.9079078341,sequenceLearningTask,001,083,
min1.png,min2.png,min3.png,min4.png,allBlank.png,,,,['num_0'],,,,,,0,4,4,4,,,,,,,,,,,,,,,,,['num_0'],5,0.0558805466086,0,"['num_4', 'num_0']",0,"[0.6063500229538477, 1.3217230912126183]",,,,,,,,,2018_Apr_28_1224,59.9079078341,sequenceLearningTask,001,083,
min1.png,min2.png,min3.png,min4.png,allBlank.png,,,,['num_4'],,,,,,0,4,4,4,,,,,,,,,,,,,,,,,['num_4'],5,0.048446709604,1,['num_4'],0,[2.3641119621186135],,,,,,,,,2018_Apr_28_1224,59.9079078341,sequenceLearningTask,001,083,
min1.png,min2.png,min3.png,min4.png,allBlank.png,,,,['num_1'],,,,,,0,4,4,4,,,,,,,,,,,,,,,,,['num_1'],5,0.0552581884002,1,['num_1'],0,[1.7221533676060972],,,,,,,,,2018_Apr_28_1224,59.9079078341,sequenceLearningTask,001,083,
min1.png,min2.png,min3.png,min4.png,allBlank.png,,,,['num_0'],,,,,,0,4,4,4,,,,,,,,,,,,,,,,,['num_0'],5,0.0576516213519,0,"['num_1', 'num_0']",0,"[1.5040268668387284, 2.170726353977784]",,,,,,,,,2018_Apr_28_1224,59.9079078341,sequenceLearningTask,001,083,
min1.png,min2.png,min3.png,min4.png,allBlank.png,,,,['num_7'],,,,,,0,5,5,5,,,,,,,,,,,,,,,,,['num_7'],6,0.0527187043462,1,['num_7'],0,[0.8736001555690223],,,,,,,,,2018_Apr_28_1224,59.9079078341,sequenceLearningTask,001,083,
min1.png,min2.png,min3.png,min4.png,allBlank.png,,,,['num_1'],,,,,,0,5,5,5,,,,,,,,,,,,,,,,,['num_1'],6,0.0571031092064,0,"['num_4', 'num_1']",0,"[0.7872892874388526, 1.9374359744377898]",,,,,,,,,2018_Apr_28_1224,59.9079078341,sequenceLearningTask,001,083,
min1.png,min2.png,min3.png,min4.png,allBlank.png,,,,['num_4'],,,,,,0,5,5,5,,,,,,,,,,,,,,,,,['num_4'],6,0.0574321344425,0,"['num_7', 'num_4']",0,"[2.453638416034778, 2.853384795834131]",,,,,,,,,2018_Apr_28_1224,59.9079078341,sequenceLearningTask,001,083,
min1.png,min2.png,min3.png,min4.png,allBlank.png,,,,['num_0'],,,,,,0,5,5,5,,,,,,,,,,,,,,,,,['num_0'],6,0.0512372702721,1,['num_0'],0,[0.8262857522636864],,,,,,,,,2018_Apr_28_1224,59.9079078341,sequenceLearningTask,001,083,
min1.png,min2.png,min3.png,min4.png,allBlank.png,,,,['num_0'],,,,,,0,5,5,5,,,,,,,,,,,,,,,,,['num_0'],6,0.0516852697207,1,['num_0'],0,[0.5920087072713045],,,,,,,,,2018_Apr_28_1224,59.9079078341,sequenceLearningTask,001,083,
min1.png,min2.png,min3.png,min4.png,allBlank.png,,,,['num_4'],,,,,,0,5,5,5,,,,,,,,,,,,,,,,,['num_4'],6,0.0643318182583,1,['num_4'],0,[1.5306159623188478],,,,,,,,,2018_Apr_28_1224,59.9079078341,sequenceLearningTask,001,083,
min1.png,min2.png,min3.png,min4.png,allBlank.png,,,,['num_1'],,,,,,0,5,5,5,,,,,,,,,,,,,,,,,['num_1'],6,0.0513139881264,0,"['num_4', 'num_1']",0,"[1.0268906335704742, 1.676927577114725]",,,,,,,,,2018_Apr_28_1224,59.9079078341,sequenceLearningTask,001,083,
min1.png,min2.png,min3.png,min4.png,allBlank.png,,,,['num_0'],,,,,,0,5,5,5,,,,,,,,,,,,,,,,,['num_0'],6,0.05661080212,1,['num_0'],0,[0.4881885273576927],,,,,,,,,2018_Apr_28_1224,59.9079078341,sequenceLearningTask,001,083,
min1.png,min2.png,min3.png,min4.png,allBlank.png,,,,['num_7'],,,,,,0,6,6,6,,,,,,,,,,,,,,,,,['num_7'],7,0.0474973774391,1,['num_7'],0,[0.8959287434723251],,,,,,,,,2018_Apr_28_1224,59.9079078341,sequenceLearningTask,001,083,
min1.png,min2.png,min3.png,min4.png,allBlank.png,,,,['num_1'],,,,,,0,6,6,6,,,,,,,,,,,,,,,,,['num_1'],7,0.0577759288912,1,['num_1'],0,[1.1202743135085598],,,,,,,,,2018_Apr_28_1224,59.9079078341,sequenceLearningTask,001,083,
min1.png,min2.png,min3.png,min4.png,allBlank.png,,,,['num_4'],,,,,,0,6,6,6,,,,,,,,,,,,,,,,,['num_4'],7,0.0554637266087,1,['num_4'],0,[1.0060828643082687],,,,,,,,,2018_Apr_28_1224,59.9079078341,sequenceLearningTask,001,083,
min1.png,min2.png,min3.png,min4.png,allBlank.png,,,,['num_0'],,,,,,0,6,6,6,,,,,,,,,,,,,,,,,['num_0'],7,0.0555904956835,1,['num_0'],0,[0.4884564244638909],,,,,,,,,2018_Apr_28_1224,59.9079078341,sequenceLearningTask,001,083,
min1.png,min2.png,min3.png,min4.png,allBlank.png,,,,['num_0'],,,,,,0,6,6,6,,,,,,,,,,,,,,,,,['num_0'],7,0.0561980846792,1,['num_0'],0,[0.6541792974203986],,,,,,,,,2018_Apr_28_1224,59.9079078341,sequenceLearningTask,001,083,
min1.png,min2.png,min3.png,min4.png,allBlank.png,,,,['num_4'],,,,,,0,6,6,6,,,,,,,,,,,,,,,,,['num_4'],7,0.053148652535,1,['num_4'],0,[0.5745724210390222],,,,,,,,,2018_Apr_28_1224,59.9079078341,sequenceLearningTask,001,083,
min1.png,min2.png,min3.png,min4.png,allBlank.png,,,,['num_1'],,,,,,0,6,6,6,,,,,,,,,,,,,,,,,['num_1'],7,0.0519109104686,1,['num_1'],0,[0.7928757421016712],,,,,,,,,2018_Apr_28_1224,59.9079078341,sequenceLearningTask,001,083,
min1.png,min2.png,min3.png,min4.png,allBlank.png,,,,['num_0'],,,,,,0,6,6,6,,,,,,,,,,,,,,,,,['num_0'],7,0.0515371673389,0,"['num_1', 'num_0']",0,"[0.4758180810443946, 1.0931781417294246]",,,,,,,,,2018_Apr_28_1224,59.9079078341,sequenceLearningTask,001,083,
min1.png,min2.png,min3.png,min4.png,allBlank.png,,,,['num_7'],,,,,,0,7,7,7,,,,,,,,,,,,,,,,,['num_7'],8,0.0574071088323,1,['num_7'],0,[0.7024557508237308],,,,,,,,,2018_Apr_28_1224,59.9079078341,sequenceLearningTask,001,083,
min1.png,min2.png,min3.png,min4.png,allBlank.png,,,,['num_1'],,,,,,0,7,7,7,,,,,,,,,,,,,,,,,['num_1'],8,0.0538313183615,1,['num_1'],0,[1.0078239903704684],,,,,,,,,2018_Apr_28_1224,59.9079078341,sequenceLearningTask,001,083,
min1.png,min2.png,min3.png,min4.png,allBlank.png,,,,['num_4'],,,,,,0,7,7,7,,,,,,,,,,,,,,,,,['num_4'],8,0.0555182906442,1,['num_4'],0,[0.8550389476444025],,,,,,,,,2018_Apr_28_1224,59.9079078341,sequenceLearningTask,001,083,
min1.png,min2.png,min3.png,min4.png,allBlank.png,,,,['num_0'],,,,,,0,7,7,7,,,,,,,,,,,,,,,,,['num_0'],8,0.0509205527131,1,['num_0'],0,[0.42701362829092204],,,,,,,,,2018_Apr_28_1224,59.9079078341,sequenceLearningTask,001,083,
min1.png,min2.png,min3.png,min4.png,allBlank.png,,,,['num_0'],,,,,,0,7,7,7,,,,,,,,,,,,,,,,,['num_0'],8,0.0506292710204,0,"['num_1', 'num_0']",0,"[0.4101053414088369, 0.47662915696923847]",,,,,,,,,2018_Apr_28_1224,59.9079078341,sequenceLearningTask,001,083,
min1.png,min2.png,min3.png,min4.png,allBlank.png,,,,['num_4'],,,,,,0,7,7,7,,,,,,,,,,,,,,,,,['num_4'],8,0.0558206492464,0,"['num_7', 'num_0', 'num_4']",0,"[0.4389803827933747, 0.9390503314252214]",,,,,,,,,2018_Apr_28_1224,59.9079078341,sequenceLearningTask,001,083,
min1.png,min2.png,min3.png,min4.png,allBlank.png,,,,['num_1'],,,,,,0,7,7,7,,,,,,,,,,,,,,,,,['num_1'],8,0.0560696745809,1,['num_1'],0,[0.4887764240700676],,,,,,,,,2018_Apr_28_1224,59.9079078341,sequenceLearningTask,001,083,
min1.png,min2.png,min3.png,min4.png,allBlank.png,,,,['num_0'],,,,,,0,7,7,7,,,,,,,,,,,,,,,,,['num_0'],8,0.056511520191,1,['num_0'],0,[0.3887338805326408],,,,,,,,,2018_Apr_28_1224,59.9079078341,sequenceLearningTask,001,083,
min1.png,min2.png,min3.png,min4.png,allBlank.png,,,,['num_7'],,,,,,0,8,8,8,,,,,,,,,,,,,,,,,['num_7'],9,0.0481833253128,1,['num_7'],0,[0.41128646816025594],,,,,,,,,2018_Apr_28_1224,59.9079078341,sequenceLearningTask,001,083,
min1.png,min2.png,min3.png,min4.png,allBlank.png,,,,['num_1'],,,,,,0,8,8,8,,,,,,,,,,,,,,,,,['num_1'],9,0.0574661856826,0,"['num_4', 'num_1']",0,"[0.5050180451059987, 0.5542380870915622]",,,,,,,,,2018_Apr_28_1224,59.9079078341,sequenceLearningTask,001,083,
min1.png,min2.png,min3.png,min4.png,allBlank.png,,,,['num_4'],,,,,,0,8,8,8,,,,,,,,,,,,,,,,,['num_4'],9,0.0543646510384,1,['num_4'],0,[0.5404350271568887],,,,,,,,,2018_Apr_28_1224,59.9079078341,sequenceLearningTask,001,083,
min1.png,min2.png,min3.png,min4.png,allBlank.png,,,,['num_0'],,,,,,0,8,8,8,,,,,,,,,,,,,,,,,['num_0'],9,0.0590009530245,0,"['num_1', 'num_1', 'num_0']",0,"[0.4028072991089857, 1.3528611041709837, 3.335579484415007]",,,,,,,,,2018_Apr_28_1224,59.9079078341,sequenceLearningTask,001,083,
min1.png,min2.png,min3.png,min4.png,allBlank.png,,,,['num_0'],,,,,,0,8,8,8,,,,,,,,,,,,,,,,,['num_0'],9,0.0494629134815,0,"['num_1', 'num_0']",0,"[3.654461963739152, 3.6755409121547586]",,,,,,,,,2018_Apr_28_1224,59.9079078341,sequenceLearningTask,001,083,
min1.png,min2.png,min3.png,min4.png,allBlank.png,,,,['num_4'],,,,,,0,8,8,8,,,,,,,,,,,,,,,,,['num_4'],9,0.0462678404908,1,['num_4'],0,[1.865658832009558],,,,,,,,,2018_Apr_28_1224,59.9079078341,sequenceLearningTask,001,083,
min1.png,min2.png,min3.png,min4.png,allBlank.png,,,,['num_1'],,,,,,0,8,8,8,,,,,,,,,,,,,,,,,['num_1'],9,0.0515002443075,0,"['num_0', 'num_1']",0,"[0.49342790552464066, 1.79132374401172]",,,,,,,,,2018_Apr_28_1224,59.9079078341,sequenceLearningTask,001,083,
min1.png,min2.png,min3.png,min4.png,allBlank.png,,,,['num_0'],,,,,,0,8,8,8,,,,,,,,,,,,,,,,,['num_0'],9,0.0568286480058,1,['num_0'],0,[0.5712042200564156],,,,,,,,,2018_Apr_28_1224,59.9079078341,sequenceLearningTask,001,083,
min1.png,min2.png,min3.png,min4.png,allBlank.png,,,,['num_7'],,,,,,0,9,9,9,,,,,,,,,,,,,,,,,['num_7'],10,0.0486181965725,1,['num_7'],0,[0.7283022831151129],,,,,,,,,2018_Apr_28_1224,59.9079078341,sequenceLearningTask,001,083,
min1.png,min2.png,min3.png,min4.png,allBlank.png,,,,['num_1'],,,,,,0,9,9,9,,,,,,,,,,,,,,,,,['num_1'],10,0.0562793153484,1,['num_1'],0,[0.4208044051638353],,,,,,,,,2018_Apr_28_1224,59.9079078341,sequenceLearningTask,001,083,
min1.png,min2.png,min3.png,min4.png,allBlank.png,,,,['num_4'],,,,,,0,9,9,9,,,,,,,,,,,,,,,,,['num_4'],10,0.052117269189,1,['num_4'],0,[0.44167412306785536],,,,,,,,,2018_Apr_28_1224,59.9079078341,sequenceLearningTask,001,083,
min1.png,min2.png,min3.png,min4.png,allBlank.png,,,,['num_0'],,,,,,0,9,9,9,,,,,,,,,,,,,,,,,['num_0'],10,0.0579954158005,1,['num_0'],0,[0.3197637090087255],,,,,,,,,2018_Apr_28_1224,59.9079078341,sequenceLearningTask,001,083,
min1.png,min2.png,min3.png,min4.png,allBlank.png,,,,['num_0'],,,,,,0,9,9,9,,,,,,,,,,,,,,,,,['num_0'],10,0.0535322418065,1,['num_0'],0,[0.5740850370235648],,,,,,,,,2018_Apr_28_1224,59.9079078341,sequenceLearningTask,001,083,
min1.png,min2.png,min3.png,min4.png,allBlank.png,,,,['num_4'],,,,,,0,9,9,9,,,,,,,,,,,,,,,,,['num_4'],10,0.0589086454457,1,['num_4'],0,[0.7182534749700835],,,,,,,,,2018_Apr_28_1224,59.9079078341,sequenceLearningTask,001,083,
min1.png,min2.png,min3.png,min4.png,allBlank.png,,,,['num_1'],,,,,,0,9,9,9,,,,,,,,,,,,,,,,,['num_1'],10,0.0324910369341,1,['num_1'],0,[0.510832602052119],,,,,,,,,2018_Apr_28_1224,59.9079078341,sequenceLearningTask,001,083,
min1.png,min2.png,min3.png,min4.png,allBlank.png,,,,['num_0'],,,,,,0,9,9,9,,,,,,,,,,,,,,,,,['num_0'],10,0.0513131676146,0,"['num_1', 'num_1', 'num_7', 'num_1', 'num_1', 'num_4', 'num_0']",0,"[0.4596535881186128, 1.444249299385433, 2.1277590222453, 3.0276344275267775, 3.4112380579633736, 3.444072889346103, 4.0272902228222165]",,,,,,,,,2018_Apr_28_1224,59.9079078341,sequenceLearningTask,001,083,
min1.png,min2.png,min3.png,min4.png,allBlank.png,,,,['num_7'],,,,,,0,0,0,0,,,,,,,,,,,,,,,,,['num_7'],1,0.0552216756247,1,['num_7'],0,[0.625943434736314],,,,,,,,,2018_Apr_28_1224,59.9079078341,sequenceLearningTask,001,083,
min1.png,min2.png,min3.png,min4.png,allBlank.png,,,,['num_1'],,,,,,0,0,0,0,,,,,,,,,,,,,,,,,['num_1'],1,0.0544992149753,0,"['num_4', 'num_1']",0,"[0.6395044436867465, 1.4575842573322007]",,,,,,,,,2018_Apr_28_1224,59.9079078341,sequenceLearningTask,001,083,
min1.png,min2.png,min3.png,min4.png,allBlank.png,,,,['num_4'],,,,,,0,0,0,0,,,,,,,,,,,,,,,,,['num_4'],1,0.0550674194042,1,['num_4'],0,[0.6056160751390962],,,,,,,,,2018_Apr_28_1224,59.9079078341,sequenceLearningTask,001,083,
min1.png,min2.png,min3.png,min4.png,allBlank.png,,,,['num_0'],,,,,,0,0,0,0,,,,,,,,,,,,,,,,,['num_0'],1,0.0588003378867,1,['num_0'],0,[0.48541560769365333],,,,,,,,,2018_Apr_28_1224,59.9079078341,sequenceLearningTask,001,083,
min1.png,min2.png,min3.png,min4.png,allBlank.png,,,,['num_0'],,,,,,0,0,0,0,,,,,,,,,,,,,,,,,['num_0'],1,0.0507383990912,1,['num_0'],0,[0.510512602446056],,,,,,,,,2018_Apr_28_1224,59.9079078341,sequenceLearningTask,001,083,
min1.png,min2.png,min3.png,min4.png,allBlank.png,,,,['num_4'],,,,,,0,0,0,0,,,,,,,,,,,,,,,,,['num_4'],1,0.0500581948002,1,['num_4'],0,[0.5938962946917172],,,,,,,,,2018_Apr_28_1224,59.9079078341,sequenceLearningTask,001,083,
min1.png,min2.png,min3.png,min4.png,allBlank.png,,,,['num_1'],,,,,,0,0,0,0,,,,,,,,,,,,,,,,,['num_1'],1,0.0494690673202,1,['num_1'],0,[0.5130098301417547],,,,,,,,,2018_Apr_28_1224,59.9079078341,sequenceLearningTask,001,083,
min1.png,min2.png,min3.png,min4.png,allBlank.png,,,,['num_0'],,,,,,0,0,0,0,,,,,,,,,,,,,,,,,['num_0'],1,0.0520290641693,1,['num_0'],0,[0.4428938138743206],,,,,,,,,2018_Apr_28_1224,59.9079078341,sequenceLearningTask,001,083,
min1.png,min2.png,min3.png,min4.png,allBlank.png,,,,['num_7'],,,,,,0,1,1,1,,,,,,,,,,,,,,,,,['num_7'],2,0.0589763376702,0,"['num_4', 'num_7']",0,"[0.49993333341546986, 1.2000826255393804]",,,,,,,,,2018_Apr_28_1224,59.9079078341,sequenceLearningTask,001,083,
min1.png,min2.png,min3.png,min4.png,allBlank.png,,,,['num_1'],,,,,,0,1,1,1,,,,,,,,,,,,,,,,,['num_1'],2,0.0482698893088,0,"['num_4', 'num_4', 'num_4', 'num_1']",0,"[0.6962452969288506, 1.4632150196327984, 1.9622950207650547, 2.7965877375330592]",,,,,,,,,2018_Apr_28_1224,59.9079078341,sequenceLearningTask,001,083,
min1.png,min2.png,min3.png,min4.png,allBlank.png,,,,['num_4'],,,,,,0,1,1,1,,,,,,,,,,,,,,,,,['num_4'],2,0.0560799309785,0,"['num_7', 'num_4']",0,"[1.0562395205257644, 1.5377909278471407]",,,,,,,,,2018_Apr_28_1224,59.9079078341,sequenceLearningTask,001,083,
min1.png,min2.png,min3.png,min4.png,allBlank.png,,,,['num_0'],,,,,,0,1,1,1,,,,,,,,,,,,,,,,,['num_0'],2,0.0515146032641,1,['num_0'],0,[0.6423819786068634],,,,,,,,,2018_Apr_28_1224,59.9079078341,sequenceLearningTask,001,083,
min1.png,min2.png,min3.png,min4.png,allBlank.png,,,,['num_0'],,,,,,0,1,1,1,,,,,,,,,,,,,,,,,['num_0'],2,0.047246300825,1,['num_0'],0,[0.6475725363210358],,,,,,,,,2018_Apr_28_1224,59.9079078341,sequenceLearningTask,001,083,
min1.png,min2.png,min3.png,min4.png,allBlank.png,,,,['num_4'],,,,,,0,1,1,1,,,,,,,,,,,,,,,,,['num_4'],2,0.0587351071978,0,"['num_7', 'num_4']",0,"[0.7017817003711571, 1.1689893304745738]",,,,,,,,,2018_Apr_28_1224,59.9079078341,sequenceLearningTask,001,083,
min1.png,min2.png,min3.png,min4.png,allBlank.png,,,,['num_1'],,,,,,0,1,1,1,,,,,,,,,,,,,,,,,['num_1'],2,0.0478735821043,0,"['num_4', 'num_4', 'num_1']",0,"[0.9974814389972835, 1.6298092761322778, 2.0805919008100773]",,,,,,,,,2018_Apr_28_1224,59.9079078341,sequenceLearningTask,001,083,
min1.png,min2.png,min3.png,min4.png,allBlank.png,,,,['num_0'],,,,,,0,1,1,1,,,,,,,,,,,,,,,,,['num_0'],2,0.051501475075,0,"['num_4', 'num_1', 'num_0']",0,"[0.0003277944683759415, 0.7915629232046513, 1.2922622043952288]",,,,,,,,,2018_Apr_28_1224,59.9079078341,sequenceLearningTask,001,083,
min1.png,min2.png,min3.png,min4.png,allBlank.png,,,,['num_7'],,,,,,0,2,2,2,,,,,,,,,,,,,,,,,['num_7'],3,0.0538760362551,1,['num_7'],0,[14.986351196285682],,,,,,,,,2018_Apr_28_1224,59.9079078341,sequenceLearningTask,001,083,
min1.png,min2.png,min3.png,min4.png,allBlank.png,,,,['num_1'],,,,,,0,2,2,2,,,,,,,,,,,,,,,,,['num_1'],3,0.0511572703706,1,['num_1'],0,[0.6260115372165274],,,,,,,,,2018_Apr_28_1224,59.9079078341,sequenceLearningTask,001,083,
min1.png,min2.png,min3.png,min4.png,allBlank.png,,,,['num_4'],,,,,,0,2,2,2,,,,,,,,,,,,,,,,,['num_4'],3,0.0583991076114,0,"['num_7', 'num_4']",0,"[0.7691436687462101, 1.402774478636502]",,,,,,,,,2018_Apr_28_1224,59.9079078341,sequenceLearningTask,001,083,
min1.png,min2.png,min3.png,min4.png,allBlank.png,,,,['num_0'],,,,,,0,2,2,2,,,,,,,,,,,,,,,,,['num_0'],3,0.046635429782,1,['num_0'],0,[1.1320712220662017],,,,,,,,,2018_Apr_28_1224,59.9079078341,sequenceLearningTask,001,083,
min1.png,min2.png,min3.png,min4.png,allBlank.png,,,,['num_0'],,,,,,0,2,2,2,,,,,,,,,,,,,,,,,['num_0'],3,0.0522719356653,1,['num_0'],0,[0.8593897115204072],,,,,,,,,2018_Apr_28_1224,59.9079078341,sequenceLearningTask,001,083,
min1.png,min2.png,min3.png,min4.png,allBlank.png,,,,['num_4'],,,,,,0,2,2,2,,,,,,,,,,,,,,,,,['num_4'],3,0.0518329618466,0,"['num_1', 'num_1', 'num_1', 'num_1', 'num_1', 'num_4']",0,"[2.9595778959042036, 3.5266688902537453, 3.991933138133618, 4.726543105793098, 5.09350757722143, 5.594521524691459]",,,,,,,,,2018_Apr_28_1224,59.9079078341,sequenceLearningTask,001,083,
min1.png,min2.png,min3.png,min4.png,allBlank.png,,,,['num_1'],,,,,,0,2,2,2,,,,,,,,,,,,,,,,,['num_1'],3,0.0527433197005,0,"['num_4', 'num_1']",0,"[0.00027569196834065224, 0.6928007883477676]",,,,,,,,,2018_Apr_28_1224,59.9079078341,sequenceLearningTask,001,083,
min1.png,min2.png,min3.png,min4.png,allBlank.png,,,,['num_0'],,,,,,0,2,2,2,,,,,,,,,,,,,,,,,['num_0'],3,0.0507613734219,0,"['num_0', 'num_1', 'num_0']",0,"[0.0003310765156356865, 0.09261486037144095, 0.7091096913521824]",,,,,,,,,2018_Apr_28_1224,59.9079078341,sequenceLearningTask,001,083,
min1.png,min2.png,min3.png,min4.png,allBlank.png,,,,['num_7'],,,,,,0,3,3,3,,,,,,,,,,,,,,,,,['num_7'],4,0.0478588128917,0,"['num_1', 'num_7']",0,"[0.5789244156827635, 0.7955165593642732]",,,,,,,,,2018_Apr_28_1224,59.9079078341,sequenceLearningTask,001,083,
min1.png,min2.png,min3.png,min4.png,allBlank.png,,,,['num_1'],,,,,,0,3,3,3,,,,,,,,,,,,,,,,,['num_1'],4,0.047172865018,1,['num_1'],0,[0.4971719009166691],,,,,,,,,2018_Apr_28_1224,59.9079078341,sequenceLearningTask,001,083,
min1.png,min2.png,min3.png,min4.png,allBlank.png,,,,['num_4'],,,,,,0,3,3,3,,,,,,,,,,,,,,,,,['num_4'],4,0.0407691805917,0,"['num_0', 'num_1', 'num_4']",0,"[0.5865149704430905, 0.8042020871358773, 1.0708704768774169]",,,,,,,,,2018_Apr_28_1224,59.9079078341,sequenceLearningTask,001,083,
min1.png,min2.png,min3.png,min4.png,allBlank.png,,,,['num_0'],,,,,,0,3,3,3,,,,,,,,,,,,,,,,,['num_0'],4,0.0584368511546,0,"['num_1', 'num_0']",0,"[0.5021938434537105, 0.9024399149457167]",,,,,,,,,2018_Apr_28_1224,59.9079078341,sequenceLearningTask,001,083,
min1.png,min2.png,min3.png,min4.png,allBlank.png,,,,['num_0'],,,,,,0,3,3,3,,,,,,,,,,,,,,,,,['num_0'],4,0.0513279368271,1,['num_0'],0,[0.6752623483949947],,,,,,,,,2018_Apr_28_1224,59.9079078341,sequenceLearningTask,001,083,
min1.png,min2.png,min3.png,min4.png,allBlank.png,,,,['num_4'],,,,,,0,3,3,3,,,,,,,,,,,,,,,,,['num_4'],4,0.0486801452142,0,"['num_7', 'num_4']",0,"[0.4479904229860949, 0.9460349382134154]",,,,,,,,,2018_Apr_28_1224,59.9079078341,sequenceLearningTask,001,083,
min1.png,min2.png,min3.png,min4.png,allBlank.png,,,,['num_1'],,,,,,0,3,3,3,,,,,,,,,,,,,,,,,['num_1'],4,0.0572052629269,0,"['num_4', 'num_1', 'num_0', 'num_4', 'num_1']",0,"[0.5875307640646952, 0.7531469704857727, 1.1038091030042096, 1.1366024985404692]",,,,,,,,,2018_Apr_28_1224,59.9079078341,sequenceLearningTask,001,083,
min1.png,min2.png,min3.png,min4.png,allBlank.png,,,,['num_0'],,,,,,0,3,3,3,,,,,,,,,,,,,,,,,['num_0'],4,0.0582981846587,0,"['num_1', 'num_4', 'num_1', 'num_0', 'num_4', 'num_1', 'num_0']",0,"[0.0003105637202907019, 0.4696601399054998, 0.7690521816793989, 1.2018495977235943]",,,,,,,,,2018_Apr_28_1224,59.9079078341,sequenceLearningTask,001,083,
min1.png,min2.png,min3.png,min4.png,allBlank.png,,,,['num_7'],,,,,,0,4,4,4,,,,,,,,,,,,,,,,,['num_7'],5,0.0468028141914,0,"['num_1', 'num_7']",0,"[0.0001993843699210629, 0.4966890297159807]",,,,,,,,,2018_Apr_28_1224,59.9079078341,sequenceLearningTask,001,083,
min1.png,min2.png,min3.png,min4.png,allBlank.png,,,,['num_1'],,,,,,0,4,4,4,,,,,,,,,,,,,,,,,['num_1'],5,0.0586001330049,0,"['num_4', 'num_4', 'num_1']",0,"[0.3518522848996781, 0.8851287567645159, 0.918370562005407]",,,,,,,,,2018_Apr_28_1224,59.9079078341,sequenceLearningTask,001,083,
min1.png,min2.png,min3.png,min4.png,allBlank.png,,,,['num_4'],,,,,,0,4,4,4,,,,,,,,,,,,,,,,,['num_4'],5,0.0493332726154,1,['num_4'],0,[0.6466375631127903],,,,,,,,,2018_Apr_28_1224,59.9079078341,sequenceLearningTask,001,083,
min1.png,min2.png,min3.png,min4.png,allBlank.png,,,,['num_0'],,,,,,0,4,4,4,,,,,,,,,,,,,,,,,['num_0'],5,0.0514292700358,0,"['num_1', 'num_1', 'num_0']",0,"[0.0002711791534011354, 0.42646716742501667, 0.45969461370918907]",,,,,,,,,2018_Apr_28_1224,59.9079078341,sequenceLearningTask,001,083,
min1.png,min2.png,min3.png,min4.png,allBlank.png,,,,['num_0'],,,,,,0,4,4,4,,,,,,,,,,,,,,,,,['num_0'],5,0.0521308076338,0,"['num_1', 'num_4', 'num_0']",0,"[0.3600971978291909, 0.40940913713757254, 0.4925758040093342]",,,,,,,,,2018_Apr_28_1224,59.9079078341,sequenceLearningTask,001,083,
min1.png,min2.png,min3.png,min4.png,allBlank.png,,,,['num_4'],,,,,,0,4,4,4,,,,,,,,,,,,,,,,,['num_4'],5,0.0518190131459,0,"['num_7', 'num_4']",0,"[0.36037412056521134, 1.0428237421656377]",,,,,,,,,2018_Apr_28_1224,59.9079078341,sequenceLearningTask,001,083,
min1.png,min2.png,min3.png,min4.png,allBlank.png,,,,['num_1'],,,,,,0,4,4,4,,,,,,,,,,,,,,,,,['num_1'],5,0.0535379853892,0,"['num_0', 'num_1']",0,"[0.47384269886026686, 1.1250090769118515]",,,,,,,,,2018_Apr_28_1224,59.9079078341,sequenceLearningTask,001,083,
min1.png,min2.png,min3.png,min4.png,allBlank.png,,,,['num_0'],,,,,,0,4,4,4,,,,,,,,,,,,,,,,,['num_0'],5,0.0530087552713,0,"['num_4', 'num_7', 'num_4', 'num_1', 'num_0']",0,"[0.00019897411414149246, 0.5926807064441846, 0.6247147182997423, 0.6419942867762529]",,,,,,,,,2018_Apr_28_1224,59.9079078341,sequenceLearningTask,001,083,
min1.png,min2.png,min3.png,min4.png,allBlank.png,,,,['num_7'],,,,,,0,5,5,5,,,,,,,,,,,,,,,,,['num_7'],6,0.0539868053496,1,['num_7'],0,[0.35508387066602154],,,,,,,,,2018_Apr_28_1224,59.9079078341,sequenceLearningTask,001,083,
min1.png,min2.png,min3.png,min4.png,allBlank.png,,,,['num_1'],,,,,,0,5,5,5,,,,,,,,,,,,,,,,,['num_1'],6,0.0517410645239,0,"['num_4', 'num_4', 'num_7', 'num_1', 'num_7', 'num_4', 'num_7', 'num_4', 'num_4', 'num_1']",0,"[0.00028512785411294317, 0.32514503571894693, 0.3593673525735994, 1.0755010352808085, 1.142477363104831, 1.5764690340894276, 1.6260874345590537, 1.8753687687769798, 1.9254224507621984]",,,,,,,,,2018_Apr_28_1224,59.9079078341,sequenceLearningTask,001,083,
min1.png,min2.png,min3.png,min4.png,allBlank.png,,,,['num_4'],,,,,,0,5,5,5,,,,,,,,,,,,,,,,,['num_4'],6,0.0541541897589,0,"['num_7', 'num_0', 'num_7', 'num_7', 'num_0', 'num_4', 'num_1', 'num_7', 'num_0', 'num_4']",0,"[0.0003212303738564515, 0.05742762162753934, 0.48987098682539454, 0.8400055302495275, 0.8746885644858367, 1.5405183091056642, 1.6065395611819895]",,,,,,,,,2018_Apr_28_1224,59.9079078341,sequenceLearningTask,001,083,
min1.png,min2.png,min3.png,min4.png,allBlank.png,,,,['num_0'],,,,,,0,5,5,5,,,,,,,,,,,,,,,,,['num_0'],6,0.0499515282648,0,"['num_1', 'num_7', 'num_0', 'num_4', 'num_1', 'num_4', 'num_7', 'num_1', 'num_0']",0,"[0.00025723045268932765, 0.7125004564097708, 0.7619354724897676, 0.7953208672975052, 1.6771720896343822, 1.6952578109647902, 1.745436210745197]",,,,,,,,,2018_Apr_28_1224,59.9079078341,sequenceLearningTask,001,083,
min1.png,min2.png,min3.png,min4.png,allBlank.png,,,,['num_0'],,,,,,0,5,5,5,,,,,,,,,,,,,,,,,['num_0'],6,0.0548577786366,0,"['num_7', 'num_4', 'num_1', 'num_0']",0,"[0.5232141252749898, 0.5883459425485853]",,,,,,,,,2018_Apr_28_1224,59.9079078341,sequenceLearningTask,001,083,
min1.png,min2.png,min3.png,min4.png,allBlank.png,,,,['num_4'],,,,,,0,5,5,5,,,,,,,,,,,,,,,,,['num_4'],6,0.0493603495053,0,"['num_7', 'num_4', 'num_1', 'num_0', 'num_4']",0,"[0.11229852845303867, 0.14574751292605015, 0.24598862032166835, 0.7620544467022228]",,,,,,,,,2018_Apr_28_1224,59.9079078341,sequenceLearningTask,001,083,
min1.png,min2.png,min3.png,min4.png,allBlank.png,,,,['num_1'],,,,,,0,5,5,5,,,,,,,,,,,,,,,,,['num_1'],6,0.051917884819,0,"['num_1', 'num_7', 'num_4', 'num_1']",0,"[0.00028717913369291637, 0.042554614291816506, 0.07587600917827331]",,,,,,,,,2018_Apr_28_1224,59.9079078341,sequenceLearningTask,001,083,
min1.png,min2.png,min3.png,min4.png,allBlank.png,,,,['num_0'],,,,,,0,5,5,5,,,,,,,,,,,,,,,,,['num_0'],6,0.0500450666111,0,"['num_7', 'num_4', 'num_7', 'num_1', 'num_0', 'num_4', 'num_7', 'num_1', 'num_0', 'num_7', 'num_4', 'num_1', 'num_0', 'num_4', 'num_7', 'num_1', 'num_0', 'num_1', 'num_7', 'num_4', 'num_0']",0,"[0.0006625632870509435, 0.0006974350390009931, 0.3428422447069579, 0.3937287461799315, 0.827528417400913, 1.0920712712968452, 1.1450726419618604, 1.3931334648613074, 1.4442648891098315, 2.5760251371998493]",,,,,,,,,2018_Apr_28_1224,59.9079078341,sequenceLearningTask,001,083,
min1.png,min2.png,min3.png,min4.png,allBlank.png,,,,['num_7'],,,,,,0,6,6,6,,,,,,,,,,,,,,,,,['num_7'],7,0.0483240430883,0,"['num_0', 'num_4', 'num_0', 'num_7']",0,"[0.00044840970451787143, 0.2954125594923198, 0.37866496984827336, 0.3952951032265446]",,,,,,,,,2018_Apr_28_1224,59.9079078341,sequenceLearningTask,001,083,
min1.png,min2.png,min3.png,min4.png,allBlank.png,,,,['num_1'],,,,,,0,6,6,6,,,,,,,,,,,,,,,,,['num_1'],7,0.0552791114513,0,"['num_4', 'num_1', 'num_7', 'num_4', 'num_1']",0,"[0.0007228709051787519, 0.08867640368032426, 0.1056811007002807]",,,,,,,,,2018_Apr_28_1224,59.9079078341,sequenceLearningTask,001,083,
min1.png,min2.png,min3.png,min4.png,allBlank.png,,,,['num_4'],,,,,,0,6,6,6,,,,,,,,,,,,,,,,,['num_4'],7,0.0609599249724,0,"['num_7', 'num_0', 'num_4', 'num_1', 'num_0', 'num_7', 'num_7', 'num_4', 'num_1', 'num_0', 'num_7', 'num_4', 'num_1', 'num_0', 'num_7', 'num_4', 'num_0', 'num_1', 'num_7', 'num_1', 'num_7', 'num_4']",0,"[0.0006301530706878111, 0.1328679390343268, 0.15099017314037155, 0.5156301346090686, 0.5514754238251953, 0.8501002870560797, 0.8829724517262321, 1.148956124361689, 1.1663825644523058, 2.2141580953951916, 2.4830755080096196, 3.03215339632402, 3.148791611743718]",,,,,,,,,2018_Apr_28_1224,59.9079078341,sequenceLearningTask,001,083,
min1.png,min2.png,min3.png,min4.png,allBlank.png,,,,['num_0'],,,,,,0,6,6,6,,,,,,,,,,,,,,,,,['num_0'],7,0.05487747092,0,"['num_1', 'num_0']",0,"[0.00035569186991324386, 0.20590702862727994]",,,,,,,,,2018_Apr_28_1224,59.9079078341,sequenceLearningTask,001,083,
min1.png,min2.png,min3.png,min4.png,allBlank.png,,,,['num_0'],,,,,,0,6,6,6,,,,,,,,,,,,,,,,,['num_0'],7,0.0501677331268,0,"['num_4', 'num_1', 'num_4', 'num_1', 'num_0']",0,"[0.0002888201573796323, 0.2957744052007456, 0.37841512400189004, 0.8286369288571223]",,,,,,,,,2018_Apr_28_1224,59.9079078341,sequenceLearningTask,001,083,
min1.png,min2.png,min3.png,min4.png,allBlank.png,,,,['num_4'],,,,,,0,6,6,6,,,,,,,,,,,,,,,,,['num_4'],7,0.060489771705,0,"['num_7', 'num_4']",0,"[0.6333387076856525, 1.1835612099760056]",,,,,,,,,2018_Apr_28_1224,59.9079078341,sequenceLearningTask,001,083,
min1.png,min2.png,min3.png,min4.png,allBlank.png,,,,['num_1'],,,,,,0,6,6,6,,,,,,,,,,,,,,,,,['num_1'],7,0.0576680315882,0,"['num_0', 'num_1']",0,"[0.00030646116124444234, 0.6699310729053423]",,,,,,,,,2018_Apr_28_1224,59.9079078341,sequenceLearningTask,001,083,
min1.png,min2.png,min3.png,min4.png,allBlank.png,,,,['num_0'],,,,,,0,6,6,6,,,,,,,,,,,,,,,,,['num_0'],7,0.0574304934189,1,['num_0'],0,[0.4709655741962706],,,,,,,,,2018_Apr_28_1224,59.9079078341,sequenceLearningTask,001,083,
min1.png,min2.png,min3.png,min4.png,allBlank.png,,,,['num_7'],,,,,,0,7,7,7,,,,,,,,,,,,,,,,,['num_7'],8,0.051423526453,1,['num_7'],0,[0.7557192750122113],,,,,,,,,2018_Apr_28_1224,59.9079078341,sequenceLearningTask,001,083,
min1.png,min2.png,min3.png,min4.png,allBlank.png,,,,['num_1'],,,,,,0,7,7,7,,,,,,,,,,,,,,,,,['num_1'],8,0.0256602761104,0,"['num_4', 'num_1']",0,"[0.4356482843303411, 1.0873668668305072]",,,,,,,,,2018_Apr_28_1224,59.9079078341,sequenceLearningTask,001,083,
min1.png,min2.png,min3.png,min4.png,allBlank.png,,,,['num_4'],,,,,,0,7,7,7,,,,,,,,,,,,,,,,,['num_4'],8,0.0507946041503,0,"['num_7', 'num_7', 'num_4']",0,"[0.9281711653277398, 2.394545155431615, 2.9454142210286136]",,,,,,,,,2018_Apr_28_1224,59.9079078341,sequenceLearningTask,001,083,
min1.png,min2.png,min3.png,min4.png,allBlank.png,,,,['num_0'],,,,,,0,7,7,7,,,,,,,,,,,,,,,,,['num_0'],8,0.0539207541489,1,['num_0'],0,[1.5578516211056694],,,,,,,,,2018_Apr_28_1224,59.9079078341,sequenceLearningTask,001,083,
min1.png,min2.png,min3.png,min4.png,allBlank.png,,,,['num_0'],,,,,,0,7,7,7,,,,,,,,,,,,,,,,,['num_0'],8,0.0470407626165,1,['num_0'],0,[1.713824352216193],,,,,,,,,2018_Apr_28_1224,59.9079078341,sequenceLearningTask,001,083,
min1.png,min2.png,min3.png,min4.png,allBlank.png,,,,['num_4'],,,,,,0,7,7,7,,,,,,,,,,,,,,,,,['num_4'],8,0.0492450675958,0,"['num_7', 'num_4']",0,"[0.9288882926502993, 1.7123605591459636]",,,,,,,,,2018_Apr_28_1224,59.9079078341,sequenceLearningTask,001,083,
min1.png,min2.png,min3.png,min4.png,allBlank.png,,,,['num_1'],,,,,,0,7,7,7,,,,,,,,,,,,,,,,,['num_1'],8,0.0204549491835,0,"['num_4', 'num_1']",0,"[0.5931184494952504, 3.2102565617354912]",,,,,,,,,2018_Apr_28_1224,59.9079078341,sequenceLearningTask,001,083,
min1.png,min2.png,min3.png,min4.png,allBlank.png,,,,['num_0'],,,,,,0,7,7,7,,,,,,,,,,,,,,,,,['num_0'],8,0.0529656784012,1,['num_0'],0,[0.5415673334555322],,,,,,,,,2018_Apr_28_1224,59.9079078341,sequenceLearningTask,001,083,
min1.png,min2.png,min3.png,min4.png,allBlank.png,,,,['num_7'],,,,,,0,8,8,8,,,,,,,,,,,,,,,,,['num_7'],9,0.0490108114739,1,['num_7'],0,[0.7107252791073506],,,,,,,,,2018_Apr_28_1224,59.9079078341,sequenceLearningTask,001,083,
min1.png,min2.png,min3.png,min4.png,allBlank.png,,,,['num_1'],,,,,,0,8,8,8,,,,,,,,,,,,,,,,,['num_1'],9,0.0503868097803,1,['num_1'],0,[0.5777945709195365],,,,,,,,,2018_Apr_28_1224,59.9079078341,sequenceLearningTask,001,083,
min1.png,min2.png,min3.png,min4.png,allBlank.png,,,,['num_4'],,,,,,0,8,8,8,,,,,,,,,,,,,,,,,['num_4'],9,0.0565599303878,0,"['num_1', 'num_1', 'num_4']",0,"[0.8210689381714928, 1.3210383741065925, 1.6044123843129228]",,,,,,,,,2018_Apr_28_1224,59.9079078341,sequenceLearningTask,001,083,
min1.png,min2.png,min3.png,min4.png,allBlank.png,,,,['num_0'],,,,,,0,8,8,8,,,,,,,,,,,,,,,,,['num_0'],9,0.051909269445,0,"['num_1', 'num_0']",0,"[0.5254053020652236, 0.6088287891337814]",,,,,,,,,2018_Apr_28_1224,59.9079078341,sequenceLearningTask,001,083,
min1.png,min2.png,min3.png,min4.png,allBlank.png,,,,['num_0'],,,,,,0,8,8,8,,,,,,,,,,,,,,,,,['num_0'],9,0.0549115221602,0,"['num_7', 'num_4', 'num_0']",0,"[0.00027610222434759635, 0.8575895086077026]",,,,,,,,,2018_Apr_28_1224,59.9079078341,sequenceLearningTask,001,083,
min1.png,min2.png,min3.png,min4.png,allBlank.png,,,,['num_4'],,,,,,0,8,8,8,,,,,,,,,,,,,,,,,['num_4'],9,0.054804035113,0,"['num_1', 'num_1', 'num_4']",0,"[0.0002888201573796323, 1.123809078388831, 2.1069664324515998]",,,,,,,,,2018_Apr_28_1224,59.9079078341,sequenceLearningTask,001,083,
min1.png,min2.png,min3.png,min4.png,allBlank.png,,,,['num_1'],,,,,,0,8,8,8,,,,,,,,,,,,,,,,,['num_1'],9,0.05884710706,1,['num_1'],0,[2.4515957518821097],,,,,,,,,2018_Apr_28_1224,59.9079078341,sequenceLearningTask,001,083,
min1.png,min2.png,min3.png,min4.png,allBlank.png,,,,['num_0'],,,,,,0,8,8,8,,,,,,,,,,,,,,,,,['num_0'],9,0.0527104992281,1,['num_0'],0,[1.5096723983518814],,,,,,,,,2018_Apr_28_1224,59.9079078341,sequenceLearningTask,001,083,
min1.png,min2.png,min3.png,min4.png,allBlank.png,,,,['num_7'],,,,,,0,9,9,9,,,,,,,,,,,,,,,,,['num_7'],10,0.0557394185772,1,['num_7'],0,[1.3363987654579432],,,,,,,,,2018_Apr_28_1224,59.9079078341,sequenceLearningTask,001,083,
min1.png,min2.png,min3.png,min4.png,allBlank.png,,,,['num_1'],,,,,,0,9,9,9,,,,,,,,,,,,,,,,,['num_1'],10,0.0575531599346,0,"['num_0', 'num_1']",0,"[1.1039186413308926, 1.6372578823492177]",,,,,,,,,2018_Apr_28_1224,59.9079078341,sequenceLearningTask,001,083,
min1.png,min2.png,min3.png,min4.png,allBlank.png,,,,['num_4'],,,,,,0,9,9,9,,,,,,,,,,,,,,,,,['num_4'],10,0.0493611700171,1,['num_4'],0,[2.244369750519354],,,,,,,,,2018_Apr_28_1224,59.9079078341,sequenceLearningTask,001,083,
min1.png,min2.png,min3.png,min4.png,allBlank.png,,,,['num_0'],,,,,,0,9,9,9,,,,,,,,,,,,,,,,,['num_0'],10,0.058296133379,1,['num_0'],0,[1.5363878526508188],,,,,,,,,2018_Apr_28_1224,59.9079078341,sequenceLearningTask,001,083,
min1.png,min2.png,min3.png,min4.png,allBlank.png,,,,['num_0'],,,,,,0,9,9,9,,,,,,,,,,,,,,,,,['num_0'],10,0.0529697809602,1,['num_0'],0,[1.174777220787064],,,,,,,,,2018_Apr_28_1224,59.9079078341,sequenceLearningTask,001,083,
min1.png,min2.png,min3.png,min4.png,allBlank.png,,,,['num_4'],,,,,,0,9,9,9,,,,,,,,,,,,,,,,,['num_4'],10,0.059479721666,1,['num_4'],0,[1.7855801613371796],,,,,,,,,2018_Apr_28_1224,59.9079078341,sequenceLearningTask,001,083,
min1.png,min2.png,min3.png,min4.png,allBlank.png,,,,['num_1'],,,,,,0,9,9,9,,,,,,,,,,,,,,,,,['num_1'],10,0.0508323476936,1,['num_1'],0,[3.261127063228173],,,,,,,,,2018_Apr_28_1224,59.9079078341,sequenceLearningTask,001,083,
min1.png,min2.png,min3.png,min4.png,allBlank.png,,,,['num_0'],,,,,,0,9,9,9,,,,,,,,,,,,,,,,,['num_0'],10,0.0499154257451,1,['num_0'],0,[1.2619746519286537],,,,,,,,,2018_Apr_28_1224,59.9079078341,sequenceLearningTask,001,083,
min1.png,min2.png,min3.png,min4.png,images/allBlank.png,images/min4.png,'num_0',"['num_7', 'num_4', 'num_1', 'num_0']",['num_0'],num_0,,,,,0,9,9,9,0,0,0,3,,,,,,,,,,,,,['num_0'],,0.0413829234261,1,['num_0'],0,[4.551356859868406],1,,,,,,,,2018_Apr_28_1224,59.9079078341,sequenceLearningTask,001,083,
min1.png,min2.png,min3.png,min4.png,images/allBlank.png,images/min2.png,'num_4',"['num_7', 'num_4', 'num_1', 'num_0']",['num_4'],num_4,,,,,0,9,9,9,0,1,1,1,,,,,,,,,,,,,['num_4'],,0.0518046541891,1,['num_4'],0,[1.307943826120436],1,,,,,,,,2018_Apr_28_1224,59.9079078341,sequenceLearningTask,001,083,
min1.png,min2.png,min3.png,min4.png,images/allBlank.png,images/min1.png,'num_7',"['num_7', 'num_4', 'num_1', 'num_0']",['num_7'],num_7,,,,,0,9,9,9,0,2,2,0,,,,,,,,,,,,,['num_7'],,0.0567888531829,1,['num_7'],0,[0.6667979485563365],1,,,,,,,,2018_Apr_28_1224,59.9079078341,sequenceLearningTask,001,083,
min1.png,min2.png,min3.png,min4.png,images/allBlank.png,images/min3.png,'num_1',"['num_7', 'num_4', 'num_1', 'num_0']",['num_1'],num_1,,,,,0,9,9,9,0,3,3,2,,,,,,,,,,,,,['num_1'],,0.0532278319248,1,['num_1'],0,[1.2903061042385389],1,,,,,,,,2018_Apr_28_1224,59.9079078341,sequenceLearningTask,001,083,
min1.png,min2.png,min3.png,min4.png,images/allBlank.png,images/min2.png,'num_4',"['num_7', 'num_4', 'num_1', 'num_0']",['num_4'],num_4,,,,,0,9,9,9,1,0,4,1,,,,,,,,,,,,,['num_4'],,0.0576229034384,1,['num_4'],0,[0.8342570245041543],1,,,,,,,,2018_Apr_28_1224,59.9079078341,sequenceLearningTask,001,083,
min1.png,min2.png,min3.png,min4.png,images/allBlank.png,images/min3.png,'num_1',"['num_7', 'num_4', 'num_1', 'num_0']",['num_1'],num_1,,,,,0,9,9,9,1,1,5,2,,,,,,,,,,,,,['num_1'],,0.0526050634604,1,['num_1'],0,[0.7240963395737481],1,,,,,,,,2018_Apr_28_1224,59.9079078341,sequenceLearningTask,001,083,
min1.png,min2.png,min3.png,min4.png,images/allBlank.png,images/min1.png,'num_7',"['num_7', 'num_4', 'num_1', 'num_0']",['num_7'],num_7,,,,,0,9,9,9,1,2,6,0,,,,,,,,,,,,,['num_7'],,0.0486054786394,0,"['num_0', 'num_7']",0,"[0.6108587353533039, 0.8949416677641011]",0,,,,,,,,2018_Apr_28_1224,59.9079078341,sequenceLearningTask,001,083,
min1.png,min2.png,min3.png,min4.png,images/allBlank.png,images/min4.png,'num_0',"['num_7', 'num_4', 'num_1', 'num_0']",['num_0'],num_0,,,,,0,9,9,9,1,3,7,3,,,,,,,,,,,,,['num_0'],,0.0511835267484,1,['num_0'],0,[0.7581233746172984],1,,,,,,,,2018_Apr_28_1224,59.9079078341,sequenceLearningTask,001,083,
min1.png,min2.png,min3.png,min4.png,images/allBlank.png,images/min3.png,'num_1',"['num_7', 'num_4', 'num_1', 'num_0']",['num_1'],num_1,,,,,0,9,9,9,2,0,8,2,,,,,,,,,,,,,['num_1'],,0.0489135808243,0,"['num_7', 'num_4', 'num_1']",0,"[0.6261202550314238, 1.2596304496855737, 2.126982407816513]",0,,,,,,,,2018_Apr_28_1224,59.9079078341,sequenceLearningTask,001,083,
min1.png,min2.png,min3.png,min4.png,images/allBlank.png,images/min2.png,'num_4',"['num_7', 'num_4', 'num_1', 'num_0']",['num_4'],num_4,,,,,0,9,9,9,2,1,9,1,,,,,,,,,,,,,['num_4'],,0.0554686496796,0,"['num_7', 'num_4']",0,"[0.6363864988063597, 1.2030947243962373]",0,,,,,,,,2018_Apr_28_1224,59.9079078341,sequenceLearningTask,001,083,
min1.png,min2.png,min3.png,min4.png,images/allBlank.png,images/min4.png,'num_0',"['num_7', 'num_4', 'num_1', 'num_0']",['num_0'],num_0,,,,,0,9,9,9,2,2,10,3,,,,,,,,,,,,,['num_0'],,0.0564151100532,0,"['num_1', 'num_1', 'num_0']",0,"[0.8358040995231022, 2.2198467037783303, 3.335425638450488]",0,,,,,,,,2018_Apr_28_1224,59.9079078341,sequenceLearningTask,001,083,
min1.png,min2.png,min3.png,min4.png,images/allBlank.png,images/min1.png,'num_7',"['num_7', 'num_4', 'num_1', 'num_0']",['num_7'],num_7,,,,,0,9,9,9,2,3,11,0,,,,,,,,,,,,,['num_7'],,0.0454789183849,1,['num_7'],0,[1.2651885966910186],1,,,,,,,,2018_Apr_28_1224,59.9079078341,sequenceLearningTask,001,083,
min1.png,min2.png,min3.png,min4.png,images/allBlank.png,images/min3.png,'num_1',"['num_7', 'num_4', 'num_1', 'num_0']",['num_1'],num_1,,,,,0,9,9,9,3,0,12,2,,,,,,,,,,,,,['num_1'],,0.0402428222652,0,"['num_4', 'num_1']",0,"[0.7376105793510987, 1.8553983318174687]",0,,,,,,,,2018_Apr_28_1224,59.9079078341,sequenceLearningTask,001,083,
min1.png,min2.png,min3.png,min4.png,images/allBlank.png,images/min4.png,'num_0',"['num_7', 'num_4', 'num_1', 'num_0']",['num_0'],num_0,,,,,0,9,9,9,3,1,13,3,,,,,,,,,,,,,['num_0'],,0.0485578889544,1,['num_0'],0,[0.47707264360292356],1,,,,,,,,2018_Apr_28_1224,59.9079078341,sequenceLearningTask,001,083,
min1.png,min2.png,min3.png,min4.png,images/allBlank.png,images/min1.png,'num_7',"['num_7', 'num_4', 'num_1', 'num_0']",['num_7'],num_7,,,,,0,9,9,9,3,2,14,0,,,,,,,,,,,,,['num_7'],,0.0529574732832,1,['num_7'],0,[0.7545274816071696],1,,,,,,,,2018_Apr_28_1224,59.9079078341,sequenceLearningTask,001,083,
min1.png,min2.png,min3.png,min4.png,images/allBlank.png,images/min2.png,'num_4',"['num_7', 'num_4', 'num_1', 'num_0']",['num_4'],num_4,,,,,0,9,9,9,3,3,15,1,,,,,,,,,,,,,['num_4'],,0.0531671140508,0,"['num_7', 'num_4']",0,"[0.7564704535748206, 1.023006330658859]",0,,,,,,,,2018_Apr_28_1224,59.9079078341,sequenceLearningTask,001,083,
min1.png,min2.png,min3.png,min4.png,images/allBlank.png,images/min2.png,'num_4',"['num_7', 'num_4', 'num_1', 'num_0']",['num_4'],num_4,,,,,0,9,9,9,4,0,16,1,,,,,,,,,,,,,['num_4'],,0.054777778735,1,['num_4'],0,[0.652720017165052],1,,,,,,,,2018_Apr_28_1224,59.9079078341,sequenceLearningTask,001,083,
min1.png,min2.png,min3.png,min4.png,images/allBlank.png,images/min4.png,'num_0',"['num_7', 'num_4', 'num_1', 'num_0']",['num_0'],num_0,,,,,0,9,9,9,4,1,17,3,,,,,,,,,,,,,['num_0'],,0.0510961422406,1,['num_0'],0,[1.1580219593575976],1,,,,,,,,2018_Apr_28_1224,59.9079078341,sequenceLearningTask,001,083,
min1.png,min2.png,min3.png,min4.png,images/allBlank.png,images/min3.png,'num_1',"['num_7', 'num_4', 'num_1', 'num_0']",['num_1'],num_1,,,,,0,9,9,9,4,2,18,2,,,,,,,,,,,,,['num_1'],,0.0508503989533,1,['num_1'],0,[0.8584223280955712],1,,,,,,,,2018_Apr_28_1224,59.9079078341,sequenceLearningTask,001,083,
min1.png,min2.png,min3.png,min4.png,images/allBlank.png,images/min1.png,'num_7',"['num_7', 'num_4', 'num_1', 'num_0']",['num_7'],num_7,,,,,0,9,9,9,4,3,19,0,,,,,,,,,,,,,['num_7'],,0.0574362370015,1,['num_7'],0,[0.9362146426076379],1,,,,,,,,2018_Apr_28_1224,59.9079078341,sequenceLearningTask,001,083,
min1.png,min2.png,min3.png,min4.png,images/allBlank.png,images/min4.png,'num_0',"['num_7', 'num_4', 'num_1', 'num_0']",['num_0'],num_0,,,,,0,9,9,9,5,0,20,3,,,,,,,,,,,,,['num_0'],,0.0599572595398,1,['num_0'],0,[0.8504670558354519],1,,,,,,,,2018_Apr_28_1224,59.9079078341,sequenceLearningTask,001,083,
min1.png,min2.png,min3.png,min4.png,images/allBlank.png,images/min1.png,'num_7',"['num_7', 'num_4', 'num_1', 'num_0']",['num_7'],num_7,,,,,0,9,9,9,5,1,21,0,,,,,,,,,,,,,['num_7'],,0.0749779590014,1,['num_7'],0,[0.7007047786197518],1,,,,,,,,2018_Apr_28_1224,59.9079078341,sequenceLearningTask,001,083,
min1.png,min2.png,min3.png,min4.png,images/allBlank.png,images/min2.png,'num_4',"['num_7', 'num_4', 'num_1', 'num_0']",['num_4'],num_4,,,,,0,9,9,9,5,2,22,1,,,,,,,,,,,,,['num_4'],,0.0578276211353,0,"['num_1', 'num_4']",0,"[0.8834093742653977, 1.9177572294270249]",0,,,,,,,,2018_Apr_28_1224,59.9079078341,sequenceLearningTask,001,083,
min1.png,min2.png,min3.png,min4.png,images/allBlank.png,images/min3.png,'num_1',"['num_7', 'num_4', 'num_1', 'num_0']",['num_1'],num_1,,,,,0,9,9,9,5,3,23,2,,,,,,,,,,,,,['num_1'],,0.0483375815332,1,['num_1'],0,[2.7274702841391445],1,,,,,,,,2018_Apr_28_1224,59.9079078341,sequenceLearningTask,001,083,
min1.png,min2.png,min3.png,min4.png,images/allBlank.png,images/min4.png,'num_0',"['num_7', 'num_4', 'num_1', 'num_0']",['num_0'],num_0,,,,,0,9,9,9,6,0,24,3,,,,,,,,,,,,,['num_0'],,0.0619186930231,1,['num_0'],0,[1.030375347230347],1,,,,,,,,2018_Apr_28_1224,59.9079078341,sequenceLearningTask,001,083,
min1.png,min2.png,min3.png,min4.png,images/allBlank.png,images/min3.png,'num_1',"['num_7', 'num_4', 'num_1', 'num_0']",['num_1'],num_1,,,,,0,9,9,9,6,1,25,2,,,,,,,,,,,,,['num_1'],,0.0586185945207,1,['num_1'],0,[1.4021599152903264],1,,,,,,,,2018_Apr_28_1224,59.9079078341,sequenceLearningTask,001,083,
min1.png,min2.png,min3.png,min4.png,images/allBlank.png,images/min1.png,'num_7',"['num_7', 'num_4', 'num_1', 'num_0']",['num_7'],num_7,,,,,0,9,9,9,6,2,26,0,,,,,,,,,,,,,['num_7'],,0.0548795221996,1,['num_7'],0,[0.8711172868299855],1,,,,,,,,2018_Apr_28_1224,59.9079078341,sequenceLearningTask,001,083,
min1.png,min2.png,min3.png,min4.png,images/allBlank.png,images/min2.png,'num_4',"['num_7', 'num_4', 'num_1', 'num_0']",['num_4'],num_4,,,,,0,9,9,9,6,3,27,1,,,,,,,,,,,,,['num_4'],,0.0557636236756,0,"['num_1', 'num_7', 'num_4']",0,"[0.753476816233615, 1.220800548758234, 2.1710188664383168]",0,,,,,,,,2018_Apr_28_1224,59.9079078341,sequenceLearningTask,001,083,
min1.png,min2.png,min3.png,min4.png,images/allBlank.png,images/min3.png,'num_1',"['num_7', 'num_4', 'num_1', 'num_0']",['num_1'],num_1,,,,,0,9,9,9,7,0,28,2,,,,,,,,,,,,,['num_1'],,0.0527121402517,1,['num_1'],0,[2.0723018597310556],1,,,,,,,,2018_Apr_28_1224,59.9079078341,sequenceLearningTask,001,083,
min1.png,min2.png,min3.png,min4.png,images/allBlank.png,images/min2.png,'num_4',"['num_7', 'num_4', 'num_1', 'num_0']",['num_4'],num_4,,,,,0,9,9,9,7,1,29,1,,,,,,,,,,,,,['num_4'],,0.0551999320616,1,['num_4'],0,[2.271198845703907],1,,,,,,,,2018_Apr_28_1224,59.9079078341,sequenceLearningTask,001,083,
min1.png,min2.png,min3.png,min4.png,images/allBlank.png,images/min4.png,'num_0',"['num_7', 'num_4', 'num_1', 'num_0']",['num_0'],num_0,,,,,0,9,9,9,7,2,30,3,,,,,,,,,,,,,['num_0'],,0.0508655784218,1,['num_0'],0,[0.5743344726139412],1,,,,,,,,2018_Apr_28_1224,59.9079078341,sequenceLearningTask,001,083,
min1.png,min2.png,min3.png,min4.png,images/allBlank.png,images/min1.png,'num_7',"['num_7', 'num_4', 'num_1', 'num_0']",['num_7'],num_7,,,,,0,9,9,9,7,3,31,0,,,,,,,,,,,,,['num_7'],,0.0513537829491,1,['num_7'],0,[0.5742758060195001],1,,,,,,,,2018_Apr_28_1224,59.9079078341,sequenceLearningTask,001,083,
min1.png,min2.png,min3.png,min4.png,images/allBlank.png,images/min1.png,'num_7',"['num_7', 'num_4', 'num_1', 'num_0']",['num_7'],num_7,,,,,0,9,9,9,8,0,32,0,,,,,,,,,,,,,['num_7'],,0.0504397327921,0,"['num_7', 'num_4', 'num_7']",0,"[0.6089009941731547, 1.9593317423609733]",0,,,,,,,,2018_Apr_28_1224,59.9079078341,sequenceLearningTask,001,083,
min1.png,min2.png,min3.png,min4.png,images/allBlank.png,images/min4.png,'num_0',"['num_7', 'num_4', 'num_1', 'num_0']",['num_0'],num_0,,,,,0,9,9,9,8,1,33,3,,,,,,,,,,,,,['num_0'],,0.057898185151,1,['num_0'],0,[0.7509319988529342],1,,,,,,,,2018_Apr_28_1224,59.9079078341,sequenceLearningTask,001,083,
min1.png,min2.png,min3.png,min4.png,images/allBlank.png,images/min3.png,'num_1',"['num_7', 'num_4', 'num_1', 'num_0']",['num_1'],num_1,,,,,0,9,9,9,8,2,34,2,,,,,,,,,,,,,['num_1'],,0.0563777767659,1,['num_1'],0,[2.4860346838546548],1,,,,,,,,2018_Apr_28_1224,59.9079078341,sequenceLearningTask,001,083,
min1.png,min2.png,min3.png,min4.png,images/allBlank.png,images/min2.png,'num_4',"['num_7', 'num_4', 'num_1', 'num_0']",['num_4'],num_4,,,,,0,9,9,9,8,3,35,1,,,,,,,,,,,,,['num_4'],,0.0493369649186,1,['num_4'],0,[2.7942898942072816],1,,,,,,,,2018_Apr_28_1224,59.9079078341,sequenceLearningTask,001,083,
min1.png,min2.png,min3.png,min4.png,images/allBlank.png,images/min4.png,'num_0',"['num_7', 'num_4', 'num_1', 'num_0']",['num_0'],num_0,,,,,0,9,9,9,9,0,36,3,,,,,,,,,,,,,['num_0'],,0.0569152120019,1,['num_0'],0,[2.3350732286278344],1,,,,,,,,2018_Apr_28_1224,59.9079078341,sequenceLearningTask,001,083,
min1.png,min2.png,min3.png,min4.png,images/allBlank.png,images/min2.png,'num_4',"['num_7', 'num_4', 'num_1', 'num_0']",['num_4'],num_4,,,,,0,9,9,9,9,1,37,1,,,,,,,,,,,,,['num_4'],,0.0534702931648,0,"['num_7', 'num_4']",0,"[6.254974455416118, 6.272237203400437]",0,,,,,,,,2018_Apr_28_1224,59.9079078341,sequenceLearningTask,001,083,
min1.png,min2.png,min3.png,min4.png,images/allBlank.png,images/min3.png,'num_1',"['num_7', 'num_4', 'num_1', 'num_0']",['num_1'],num_1,,,,,0,9,9,9,9,2,38,2,,,,,,,,,,,,,['num_1'],,0.0570190067459,0,"['num_1', 'num_1']",0,"[0.00019117925182854378, 1.8855911151698592]",0,,,,,,,,2018_Apr_28_1224,59.9079078341,sequenceLearningTask,001,083,
min1.png,min2.png,min3.png,min4.png,images/allBlank.png,images/min1.png,'num_7',"['num_7', 'num_4', 'num_1', 'num_0']",['num_7'],num_7,,,,,0,9,9,9,9,3,39,0,,,,,,,,,,,,,['num_7'],,0.048334299486,1,['num_7'],0,[7.760486448632037],1,,,,,,,,2018_Apr_28_1224,59.9079078341,sequenceLearningTask,001,083,
min1.png,min2.png,min3.png,min4.png,images/allBlank.png,images/min1.png,'num_7',"['num_7', 'num_4', 'num_1', 'num_0']",['num_7'],num_7,,,,,0,9,9,9,10,0,40,0,,,,,,,,,,,,,['num_7'],,0.0562046487738,1,['num_7'],0,[2.2540403027195453],1,,,,,,,,2018_Apr_28_1224,59.9079078341,sequenceLearningTask,001,083,
min1.png,min2.png,min3.png,min4.png,images/allBlank.png,images/min3.png,'num_1',"['num_7', 'num_4', 'num_1', 'num_0']",['num_1'],num_1,,,,,0,9,9,9,10,1,41,2,,,,,,,,,,,,,['num_1'],,0.0514743981853,1,['num_1'],0,[0.8915193130019361],1,,,,,,,,2018_Apr_28_1224,59.9079078341,sequenceLearningTask,001,083,
min1.png,min2.png,min3.png,min4.png,images/allBlank.png,images/min4.png,'num_0',"['num_7', 'num_4', 'num_1', 'num_0']",['num_0'],num_0,,,,,0,9,9,9,10,2,42,3,,,,,,,,,,,,,['num_0'],,0.0532233191099,1,['num_0'],0,[0.9214733274174023],1,,,,,,,,2018_Apr_28_1224,59.9079078341,sequenceLearningTask,001,083,
min1.png,min2.png,min3.png,min4.png,images/allBlank.png,images/min2.png,'num_4',"['num_7', 'num_4', 'num_1', 'num_0']",['num_4'],num_4,,,,,0,9,9,9,10,3,43,1,,,,,,,,,,,,,['num_4'],,0.0496159389343,0,"['num_7', 'num_4']",0,"[0.6603544693073218, 0.9780398218997561]",0,,,,,,,,2018_Apr_28_1224,59.9079078341,sequenceLearningTask,001,083,
min1.png,min2.png,min3.png,min4.png,images/allBlank.png,images/min1.png,'num_7',"['num_7', 'num_4', 'num_1', 'num_0']",['num_7'],num_7,,,,,0,9,9,9,11,0,44,0,,,,,,,,,,,,,['num_7'],,0.0539921386763,1,['num_7'],0,[0.6697575346573785],1,,,,,,,,2018_Apr_28_1224,59.9079078341,sequenceLearningTask,001,083,
min1.png,min2.png,min3.png,min4.png,images/allBlank.png,images/min4.png,'num_0',"['num_7', 'num_4', 'num_1', 'num_0']",['num_0'],num_0,,,,,0,9,9,9,11,1,45,3,,,,,,,,,,,,,['num_0'],,0.0526969607832,1,['num_0'],0,[0.5401531813499787],1,,,,,,,,2018_Apr_28_1224,59.9079078341,sequenceLearningTask,001,083,
min1.png,min2.png,min3.png,min4.png,images/allBlank.png,images/min2.png,'num_4',"['num_7', 'num_4', 'num_1', 'num_0']",['num_4'],num_4,,,,,0,9,9,9,11,2,46,1,,,,,,,,,,,,,['num_4'],,0.0476918387383,1,['num_4'],0,[0.9959503639585137],1,,,,,,,,2018_Apr_28_1224,59.9079078341,sequenceLearningTask,001,083,
min1.png,min2.png,min3.png,min4.png,images/allBlank.png,images/min3.png,'num_1',"['num_7', 'num_4', 'num_1', 'num_0']",['num_1'],num_1,,,,,0,9,9,9,11,3,47,2,,,,,,,,,,,,,['num_1'],,0.0540261899165,0,"['num_0', 'num_1']",0,"[0.7383264759058648, 1.4225192748481277]",0,,,,,,,,2018_Apr_28_1224,59.9079078341,sequenceLearningTask,001,083,
min1.png,min2.png,min3.png,min4.png,images/allBlank.png,images/min3.png,'num_1',"['num_7', 'num_4', 'num_1', 'num_0']",['num_1'],num_1,,,,,0,9,9,9,12,0,48,2,,,,,,,,,,,,,['num_1'],,0.0509886551934,1,['num_1'],0,[0.6076263290752877],1,,,,,,,,2018_Apr_28_1224,59.9079078341,sequenceLearningTask,001,083,
min1.png,min2.png,min3.png,min4.png,images/allBlank.png,images/min2.png,'num_4',"['num_7', 'num_4', 'num_1', 'num_0']",['num_4'],num_4,,,,,0,9,9,9,12,1,49,1,,,,,,,,,,,,,['num_4'],,0.0530206526926,1,['num_4'],0,[0.5394381053069992],1,,,,,,,,2018_Apr_28_1224,59.9079078341,sequenceLearningTask,001,083,
min1.png,min2.png,min3.png,min4.png,images/allBlank.png,images/min1.png,'num_7',"['num_7', 'num_4', 'num_1', 'num_0']",['num_7'],num_7,,,,,0,9,9,9,12,2,50,0,,,,,,,,,,,,,['num_7'],,0.0561320334785,1,['num_7'],0,[0.520659872008423],1,,,,,,,,2018_Apr_28_1224,59.9079078341,sequenceLearningTask,001,083,
min1.png,min2.png,min3.png,min4.png,images/allBlank.png,images/min4.png,'num_0',"['num_7', 'num_4', 'num_1', 'num_0']",['num_0'],num_0,,,,,0,9,9,9,12,3,51,3,,,,,,,,,,,,,['num_0'],,0.0472040444668,1,['num_0'],0,[0.6128632457067624],1,,,,,,,,2018_Apr_28_1224,59.9079078341,sequenceLearningTask,001,083,
min1.png,min2.png,min3.png,min4.png,images/allBlank.png,images/min2.png,'num_4',"['num_7', 'num_4', 'num_1', 'num_0']",['num_4'],num_4,,,,,0,9,9,9,13,0,52,1,,,,,,,,,,,,,['num_4'],,0.0578665954462,1,['num_4'],0,[0.6176808808029364],1,,,,,,,,2018_Apr_28_1224,59.9079078341,sequenceLearningTask,001,083,
min1.png,min2.png,min3.png,min4.png,images/allBlank.png,images/min4.png,'num_0',"['num_7', 'num_4', 'num_1', 'num_0']",['num_0'],num_0,,,,,0,9,9,9,13,1,53,3,,,,,,,,,,,,,['num_0'],,0.0464508146247,1,['num_0'],0,[0.5295460149177416],1,,,,,,,,2018_Apr_28_1224,59.9079078341,sequenceLearningTask,001,083,
min1.png,min2.png,min3.png,min4.png,images/allBlank.png,images/min1.png,'num_7',"['num_7', 'num_4', 'num_1', 'num_0']",['num_7'],num_7,,,,,0,9,9,9,13,2,54,0,,,,,,,,,,,,,['num_7'],,0.0503273226741,0,"['num_4', 'num_7']",0,"[0.5754388815111042, 1.3096792085999596]",0,,,,,,,,2018_Apr_28_1224,59.9079078341,sequenceLearningTask,001,083,
min1.png,min2.png,min3.png,min4.png,images/allBlank.png,images/min3.png,'num_1',"['num_7', 'num_4', 'num_1', 'num_0']",['num_1'],num_1,,,,,0,9,9,9,13,3,55,2,,,,,,,,,,,,,['num_1'],,0.0514423982247,0,"['num_0', 'num_1']",0,"[0.39069695503962976, 1.2407197037294964]",0,,,,,,,,2018_Apr_28_1224,59.9079078341,sequenceLearningTask,001,083,
min1.png,min2.png,min3.png,min4.png,images/allBlank.png,images/min1.png,'num_7',"['num_7', 'num_4', 'num_1', 'num_0']",['num_7'],num_7,,,,,0,9,9,9,14,0,56,0,,,,,,,,,,,,,['num_7'],,0.0583712102098,0,"['num_0', 'num_0', 'num_4', 'num_7']",0,"[0.00019692283456151927, 1.7180405521552302, 2.7673483889045656, 3.2844517524696357]",0,,,,,,,,2018_Apr_28_1224,59.9079078341,sequenceLearningTask,001,083,
min1.png,min2.png,min3.png,min4.png,images/allBlank.png,images/min3.png,'num_1',"['num_7', 'num_4', 'num_1', 'num_0']",['num_1'],num_1,,,,,0,9,9,9,14,1,57,2,,,,,,,,,,,,,['num_1'],,0.0496106056074,1,['num_1'],0,[1.6270761512909075],1,,,,,,,,2018_Apr_28_1224,59.9079078341,sequenceLearningTask,001,083,
min1.png,min2.png,min3.png,min4.png,images/allBlank.png,images/min2.png,'num_4',"['num_7', 'num_4', 'num_1', 'num_0']",['num_4'],num_4,,,,,0,9,9,9,14,2,58,1,,,,,,,,,,,,,['num_4'],,0.0528885502911,0,"['num_1', 'num_0', 'num_0', 'num_7', 'num_0', 'num_1', 'num_4', 'num_1', 'num_4']",0,"[0.8889301879833056, 1.355992997752196, 1.889084854459611, 2.189795048457313, 2.7722977161463405, 3.155661757134226, 3.456187335974505, 4.338008199374485]",0,,,,,,,,2018_Apr_28_1224,59.9079078341,sequenceLearningTask,001,083,
min1.png,min2.png,min3.png,min4.png,images/allBlank.png,images/min4.png,'num_0',"['num_7', 'num_4', 'num_1', 'num_0']",['num_0'],num_0,,,,,0,9,9,9,14,3,59,3,,,,,,,,,,,,,['num_0'],,0.0507121427133,1,['num_0'],0,[1.6432517211260347],1,,,,,,,,2018_Apr_28_1224,59.9079078341,sequenceLearningTask,001,083,
min1.png,min2.png,min3.png,min4.png,images/allBlank.png,images/min1.png,'num_7',"['num_7', 'num_4', 'num_1', 'num_0']",['num_7'],num_7,,,,,0,9,9,9,15,0,60,0,,,,,,,,,,,,,['num_7'],,0.0541451641291,1,['num_7'],0,[0.7372257593118547],1,,,,,,,,2018_Apr_28_1224,59.9079078341,sequenceLearningTask,001,083,
min1.png,min2.png,min3.png,min4.png,images/allBlank.png,images/min2.png,'num_4',"['num_7', 'num_4', 'num_1', 'num_0']",['num_4'],num_4,,,,,0,9,9,9,15,1,61,1,,,,,,,,,,,,,['num_4'],,0.0533406522986,1,['num_4'],0,[0.7061144129874037],1,,,,,,,,2018_Apr_28_1224,59.9079078341,sequenceLearningTask,001,083,
min1.png,min2.png,min3.png,min4.png,images/allBlank.png,images/min3.png,'num_1',"['num_7', 'num_4', 'num_1', 'num_0']",['num_1'],num_1,,,,,0,9,9,9,15,2,62,2,,,,,,,,,,,,,['num_1'],,0.0557156237346,1,['num_1'],0,[0.4029336579278606],1,,,,,,,,2018_Apr_28_1224,59.9079078341,sequenceLearningTask,001,083,
min1.png,min2.png,min3.png,min4.png,images/allBlank.png,images/min4.png,'num_0',"['num_7', 'num_4', 'num_1', 'num_0']",['num_0'],num_0,,,,,0,9,9,9,15,3,63,3,,,,,,,,,,,,,['num_0'],,0.0547010608807,1,['num_0'],0,[0.5549913169337515],1,,,,,,,,2018_Apr_28_1224,59.9079078341,sequenceLearningTask,001,083,
min1.png,min2.png,min3.png,min4.png,images/allBlank.png,images/min3.png,'num_1',"['num_7', 'num_4', 'num_1', 'num_0']",['num_1'],num_1,,,,,0,9,9,9,16,0,64,2,,,,,,,,,,,,,['num_1'],,0.0538928567472,0,"['num_0', 'num_1']",0,"[0.5380834403075596, 1.2059972849264113]",0,,,,,,,,2018_Apr_28_1224,59.9079078341,sequenceLearningTask,001,083,
min1.png,min2.png,min3.png,min4.png,images/allBlank.png,images/min2.png,'num_4',"['num_7', 'num_4', 'num_1', 'num_0']",['num_4'],num_4,,,,,0,9,9,9,16,1,65,1,,,,,,,,,,,,,['num_4'],,0.05309203722,1,['num_4'],0,[0.5887578394775801],1,,,,,,,,2018_Apr_28_1224,59.9079078341,sequenceLearningTask,001,083,
min1.png,min2.png,min3.png,min4.png,images/allBlank.png,images/min4.png,'num_0',"['num_7', 'num_4', 'num_1', 'num_0']",['num_0'],num_0,,,,,0,9,9,9,16,2,66,3,,,,,,,,,,,,,['num_0'],,0.0475379927738,0,"['num_4', 'num_4', 'num_7', 'num_0']",0,"[0.8289409284828935, 1.3626502203278505, 1.9948767242542544, 2.49517518542541]",0,,,,,,,,2018_Apr_28_1224,59.9079078341,sequenceLearningTask,001,083,
min1.png,min2.png,min3.png,min4.png,images/allBlank.png,images/min1.png,'num_7',"['num_7', 'num_4', 'num_1', 'num_0']",['num_7'],num_7,,,,,0,9,9,9,16,3,67,0,,,,,,,,,,,,,['num_7'],,0.0541295744047,1,['num_7'],0,[0.571799501374926],1,,,,,,,,2018_Apr_28_1224,59.9079078341,sequenceLearningTask,001,083,
min1.png,min2.png,min3.png,min4.png,images/allBlank.png,images/min3.png,'num_1',"['num_7', 'num_4', 'num_1', 'num_0']",['num_1'],num_1,,,,,0,9,9,9,17,0,68,2,,,,,,,,,,,,,['num_1'],,0.0558649568842,0,"['num_4', 'num_1']",0,"[0.7538210209382896, 1.5712444251350917]",0,,,,,,,,2018_Apr_28_1224,59.9079078341,sequenceLearningTask,001,083,
min1.png,min2.png,min3.png,min4.png,images/allBlank.png,images/min4.png,'num_0',"['num_7', 'num_4', 'num_1', 'num_0']",['num_0'],num_0,,,,,0,9,9,9,17,1,69,3,,,,,,,,,,,,,['num_0'],,0.054136959011,0,"['num_4', 'num_0']",0,"[0.00021005102360049932, 0.48809293773183526]",0,,,,,,,,2018_Apr_28_1224,59.9079078341,sequenceLearningTask,001,083,
min1.png,min2.png,min3.png,min4.png,images/allBlank.png,images/min1.png,'num_7',"['num_7', 'num_4', 'num_1', 'num_0']",['num_7'],num_7,,,,,0,9,9,9,17,2,70,0,,,,,,,,,,,,,['num_7'],,0.0539498823181,1,['num_7'],0,[0.8373889180854803],1,,,,,,,,2018_Apr_28_1224,59.9079078341,sequenceLearningTask,001,083,
min1.png,min2.png,min3.png,min4.png,images/allBlank.png,images/min2.png,'num_4',"['num_7', 'num_4', 'num_1', 'num_0']",['num_4'],num_4,,,,,0,9,9,9,17,3,71,1,,,,,,,,,,,,,['num_4'],,0.0492803496037,1,['num_4'],0,[0.6768504490045189],1,,,,,,,,2018_Apr_28_1224,59.9079078341,sequenceLearningTask,001,083,
min1.png,min2.png,min3.png,min4.png,images/allBlank.png,images/min1.png,'num_7',"['num_7', 'num_4', 'num_1', 'num_0']",['num_7'],num_7,,,,,0,9,9,9,18,0,72,0,,,,,,,,,,,,,['num_7'],,0.0545759328296,1,['num_7'],0,[0.7548228658590688],1,,,,,,,,2018_Apr_28_1224,59.9079078341,sequenceLearningTask,001,083,
min1.png,min2.png,min3.png,min4.png,images/allBlank.png,images/min2.png,'num_4',"['num_7', 'num_4', 'num_1', 'num_0']",['num_4'],num_4,,,,,0,9,9,9,18,1,73,1,,,,,,,,,,,,,['num_4'],,0.0573115192063,1,['num_4'],0,[0.502574150678015],1,,,,,,,,2018_Apr_28_1224,59.9079078341,sequenceLearningTask,001,083,
min1.png,min2.png,min3.png,min4.png,images/allBlank.png,images/min3.png,'num_1',"['num_7', 'num_4', 'num_1', 'num_0']",['num_1'],num_1,,,,,0,9,9,9,18,2,74,2,,,,,,,,,,,,,['num_1'],,0.0503092714142,1,['num_1'],0,[0.7089160505648806],1,,,,,,,,2018_Apr_28_1224,59.9079078341,sequenceLearningTask,001,083,
min1.png,min2.png,min3.png,min4.png,images/allBlank.png,images/min4.png,'num_0',"['num_7', 'num_4', 'num_1', 'num_0']",['num_0'],num_0,,,,,0,9,9,9,18,3,75,3,,,,,,,,,,,,,['num_0'],,0.0622817694994,1,['num_0'],0,[0.4767534645085334],1,,,,,,,,2018_Apr_28_1224,59.9079078341,sequenceLearningTask,001,083,
min1.png,min2.png,min3.png,min4.png,images/allBlank.png,images/min1.png,'num_7',"['num_7', 'num_4', 'num_1', 'num_0']",['num_7'],num_7,,,,,0,9,9,9,19,0,76,0,,,,,,,,,,,,,['num_7'],,0.0580028004068,0,"['num_0', 'num_7']",0,"[0.45102221412651033, 1.0685496592209347]",0,,,,,,,,2018_Apr_28_1224,59.9079078341,sequenceLearningTask,001,083,
min1.png,min2.png,min3.png,min4.png,images/allBlank.png,images/min4.png,'num_0',"['num_7', 'num_4', 'num_1', 'num_0']",['num_0'],num_0,,,,,0,9,9,9,19,1,77,3,,,,,,,,,,,,,['num_0'],,0.0555388034394,1,['num_0'],0,[0.6537140672236319],1,,,,,,,,2018_Apr_28_1224,59.9079078341,sequenceLearningTask,001,083,
min1.png,min2.png,min3.png,min4.png,images/allBlank.png,images/min3.png,'num_1',"['num_7', 'num_4', 'num_1', 'num_0']",['num_1'],num_1,,,,,0,9,9,9,19,2,78,2,,,,,,,,,,,,,['num_1'],,0.0373784155342,0,"['num_4', 'num_4', 'num_4', 'num_1']",0,"[0.523875457794361, 1.1901351506029414, 1.4579682568596581, 1.5561539821694623]",0,,,,,,,,2018_Apr_28_1224,59.9079078341,sequenceLearningTask,001,083,
min1.png,min2.png,min3.png,min4.png,images/allBlank.png,images/min2.png,'num_4',"['num_7', 'num_4', 'num_1', 'num_0']",['num_4'],num_4,,,,,0,9,9,9,19,3,79,1,,,,,,,,,,,,,['num_4'],,0.0505812710795,0,"['num_7', 'num_4']",0,"[0.6412180826033591, 2.0926485013557112]",0,,,,,,,,2018_Apr_28_1224,59.9079078341,sequenceLearningTask,001,083,
min1.png,min2.png,min3.png,min4.png,allBlank.png,,,,['num_7'],,,,,,0,0,0,0,,,,,,,,,,,,,,,,,['num_7'],1,0.0562694692069,1,['num_7'],0,[0.6073235602171962],,,,,,,,,2018_Apr_28_1224,59.9079078341,sequenceLearningTask,001,083,
min1.png,min2.png,min3.png,min4.png,allBlank.png,,,,['num_1'],,,,,,0,0,0,0,,,,,,,,,,,,,,,,,['num_1'],1,0.0499068103711,0,"['num_4', 'num_1']",0,"[0.8444490119602506, 1.3446929090958974]",,,,,,,,,2018_Apr_28_1224,59.9079078341,sequenceLearningTask,001,083,
min1.png,min2.png,min3.png,min4.png,allBlank.png,,,,['num_4'],,,,,,0,0,0,0,,,,,,,,,,,,,,,,,['num_4'],1,0.0589398248947,1,['num_4'],0,[0.48485683915055233],,,,,,,,,2018_Apr_28_1224,59.9079078341,sequenceLearningTask,001,083,
min1.png,min2.png,min3.png,min4.png,allBlank.png,,,,['num_0'],,,,,,0,0,0,0,,,,,,,,,,,,,,,,,['num_0'],1,0.0518826028111,1,['num_0'],0,[0.5089179377420123],,,,,,,,,2018_Apr_28_1224,59.9079078341,sequenceLearningTask,001,083,
min1.png,min2.png,min3.png,min4.png,allBlank.png,,,,['num_0'],,,,,,0,0,0,0,,,,,,,,,,,,,,,,,['num_0'],1,0.0561664949745,0,"['num_1', 'num_0']",0,"[0.43876622921072794, 1.0724019621718526]",,,,,,,,,2018_Apr_28_1224,59.9079078341,sequenceLearningTask,001,083,
min1.png,min2.png,min3.png,min4.png,allBlank.png,,,,['num_4'],,,,,,0,0,0,0,,,,,,,,,,,,,,,,,['num_4'],1,0.0510432192289,1,['num_4'],0,[0.9432579159902161],,,,,,,,,2018_Apr_28_1224,59.9079078341,sequenceLearningTask,001,083,
min1.png,min2.png,min3.png,min4.png,allBlank.png,,,,['num_1'],,,,,,0,0,0,0,,,,,,,,,,,,,,,,,['num_1'],1,0.0502895791308,1,['num_1'],0,[0.49418113536682995],,,,,,,,,2018_Apr_28_1224,59.9079078341,sequenceLearningTask,001,083,
min1.png,min2.png,min3.png,min4.png,allBlank.png,,,,['num_0'],,,,,,0,0,0,0,,,,,,,,,,,,,,,,,['num_0'],1,0.0557045468252,1,['num_0'],0,[0.4386575113959452],,,,,,,,,2018_Apr_28_1224,59.9079078341,sequenceLearningTask,001,083,
min1.png,min2.png,min3.png,min4.png,allBlank.png,,,,['num_7'],,,,,,0,1,1,1,,,,,,,,,,,,,,,,,['num_7'],2,0.0499991179497,1,['num_7'],0,[0.5084129127226333],,,,,,,,,2018_Apr_28_1224,59.9079078341,sequenceLearningTask,001,083,
min1.png,min2.png,min3.png,min4.png,allBlank.png,,,,['num_1'],,,,,,0,1,1,1,,,,,,,,,,,,,,,,,['num_1'],2,0.0513697829294,0,"['num_4', 'num_1']",0,"[0.3922005429327555, 0.5257724811006028]",,,,,,,,,2018_Apr_28_1224,59.9079078341,sequenceLearningTask,001,083,
min1.png,min2.png,min3.png,min4.png,allBlank.png,,,,['num_4'],,,,,,0,1,1,1,,,,,,,,,,,,,,,,,['num_4'],2,0.0605738741655,1,['num_4'],0,[0.5331000618255075],,,,,,,,,2018_Apr_28_1224,59.9079078341,sequenceLearningTask,001,083,
min1.png,min2.png,min3.png,min4.png,allBlank.png,,,,['num_0'],,,,,,0,1,1,1,,,,,,,,,,,,,,,,,['num_0'],2,0.0437373820669,0,"['num_1', 'num_0']",0,"[0.46757521939457547, 1.5505937838845512]",,,,,,,,,2018_Apr_28_1224,59.9079078341,sequenceLearningTask,001,083,
min1.png,min2.png,min3.png,min4.png,allBlank.png,,,,['num_0'],,,,,,0,1,1,1,,,,,,,,,,,,,,,,,['num_0'],2,0.0501989125758,1,['num_0'],0,[0.5945350631362771],,,,,,,,,2018_Apr_28_1224,59.9079078341,sequenceLearningTask,001,083,
min1.png,min2.png,min3.png,min4.png,allBlank.png,,,,['num_4'],,,,,,0,1,1,1,,,,,,,,,,,,,,,,,['num_4'],2,0.048282607242,1,['num_4'],0,[0.5622873079540796],,,,,,,,,2018_Apr_28_1224,59.9079078341,sequenceLearningTask,001,083,
min1.png,min2.png,min3.png,min4.png,allBlank.png,,,,['num_1'],,,,,,0,1,1,1,,,,,,,,,,,,,,,,,['num_1'],2,0.0524942943659,0,"['num_1', 'num_1']",0,"[0.0002765124802408536, 0.6075401753350889]",,,,,,,,,2018_Apr_28_1224,59.9079078341,sequenceLearningTask,001,083,
min1.png,min2.png,min3.png,min4.png,allBlank.png,,,,['num_0'],,,,,,0,1,1,1,,,,,,,,,,,,,,,,,['num_0'],2,0.052168961433,1,['num_0'],0,[0.39314782381802615],,,,,,,,,2018_Apr_28_1224,59.9079078341,sequenceLearningTask,001,083,
min1.png,min2.png,min3.png,min4.png,allBlank.png,,,,['num_7'],,,,,,0,2,2,2,,,,,,,,,,,,,,,,,['num_7'],3,0.0528512170036,0,"['num_0', 'num_1', 'num_0', 'num_7']",0,"[0.45634036142723744, 0.8402040941077757, 1.5227517668696464, 2.3903843400398728]",,,,,,,,,2018_Apr_28_1224,59.9079078341,sequenceLearningTask,001,083,
min1.png,min2.png,min3.png,min4.png,allBlank.png,,,,['num_1'],,,,,,0,2,2,2,,,,,,,,,,,,,,,,,['num_1'],3,0.046184558542,0,"['num_0', 'num_1']",0,"[2.5646130486813945, 2.598583878665977]",,,,,,,,,2018_Apr_28_1224,59.9079078341,sequenceLearningTask,001,083,
min1.png,min2.png,min3.png,min4.png,allBlank.png,,,,['num_4'],,,,,,0,2,2,2,,,,,,,,,,,,,,,,,['num_4'],3,0.0600352081618,0,"['num_7', 'num_4']",0,"[0.9681764494238223, 1.5511800395731825]",,,,,,,,,2018_Apr_28_1224,59.9079078341,sequenceLearningTask,001,083,
min1.png,min2.png,min3.png,min4.png,allBlank.png,,,,['num_0'],,,,,,0,2,2,2,,,,,,,,,,,,,,,,,['num_0'],3,0.0249230462485,1,['num_0'],0,[1.4227978386078348],,,,,,,,,2018_Apr_28_1224,59.9079078341,sequenceLearningTask,001,083,
min1.png,min2.png,min3.png,min4.png,allBlank.png,,,,['num_0'],,,,,,0,2,2,2,,,,,,,,,,,,,,,,,['num_0'],3,0.0511310139926,1,['num_0'],0,[0.6605981613150789],,,,,,,,,2018_Apr_28_1224,59.9079078341,sequenceLearningTask,001,083,
min1.png,min2.png,min3.png,min4.png,allBlank.png,,,,['num_4'],,,,,,0,2,2,2,,,,,,,,,,,,,,,,,['num_4'],3,0.0500032205089,1,['num_4'],0,[1.4944424683784518],,,,,,,,,2018_Apr_28_1224,59.9079078341,sequenceLearningTask,001,083,
min1.png,min2.png,min3.png,min4.png,allBlank.png,,,,['num_1'],,,,,,0,2,2,2,,,,,,,,,,,,,,,,,['num_1'],3,0.0595749010361,1,['num_1'],0,[1.9358987455605075],,,,,,,,,2018_Apr_28_1224,59.9079078341,sequenceLearningTask,001,083,
min1.png,min2.png,min3.png,min4.png,allBlank.png,,,,['num_0'],,,,,,0,2,2,2,,,,,,,,,,,,,,,,,['num_0'],3,0.0548430094241,1,['num_0'],0,[0.6054573061038582],,,,,,,,,2018_Apr_28_1224,59.9079078341,sequenceLearningTask,001,083,
min1.png,min2.png,min3.png,min4.png,allBlank.png,,,,['num_7'],,,,,,0,3,3,3,,,,,,,,,,,,,,,,,['num_7'],4,0.0554440343253,1,['num_7'],0,[0.93842674244911],,,,,,,,,2018_Apr_28_1224,59.9079078341,sequenceLearningTask,001,083,
min1.png,min2.png,min3.png,min4.png,allBlank.png,,,,['num_1'],,,,,,0,3,3,3,,,,,,,,,,,,,,,,,['num_1'],4,0.0586358252688,0,"['num_7', 'num_4', 'num_1']",0,"[0.26987741143295807, 0.7525623558207144, 1.6194400581250648]",,,,,,,,,2018_Apr_28_1224,59.9079078341,sequenceLearningTask,001,083,
min1.png,min2.png,min3.png,min4.png,allBlank.png,,,,['num_4'],,,,,,0,3,3,3,,,,,,,,,,,,,,,,,['num_4'],4,0.0509377834611,1,['num_4'],0,[1.726930797623595],,,,,,,,,2018_Apr_28_1224,59.9079078341,sequenceLearningTask,001,083,
min1.png,min2.png,min3.png,min4.png,allBlank.png,,,,['num_0'],,,,,,0,3,3,3,,,,,,,,,,,,,,,,,['num_0'],4,0.0484019917104,0,"['num_7', 'num_0']",0,"[0.00030851244082441553, 0.6957291949998989]",,,,,,,,,2018_Apr_28_1224,59.9079078341,sequenceLearningTask,001,083,
min1.png,min2.png,min3.png,min4.png,allBlank.png,,,,['num_0'],,,,,,0,3,3,3,,,,,,,,,,,,,,,,,['num_0'],4,0.0508376810202,1,['num_0'],0,[0.49391734081962113],,,,,,,,,2018_Apr_28_1224,59.9079078341,sequenceLearningTask,001,083,
min1.png,min2.png,min3.png,min4.png,allBlank.png,,,,['num_4'],,,,,,0,3,3,3,,,,,,,,,,,,,,,,,['num_4'],4,0.0571900834583,1,['num_4'],0,[3.087050969783377],,,,,,,,,2018_Apr_28_1224,59.9079078341,sequenceLearningTask,001,083,
min1.png,min2.png,min3.png,min4.png,allBlank.png,,,,['num_1'],,,,,,0,3,3,3,,,,,,,,,,,,,,,,,['num_1'],4,0.0556159315496,0,"['num_4', 'num_1']",0,"[4.938877613689101, 6.906288115337702]",,,,,,,,,2018_Apr_28_1224,59.9079078341,sequenceLearningTask,001,083,
min1.png,min2.png,min3.png,min4.png,allBlank.png,,,,['num_0'],,,,,,0,3,3,3,,,,,,,,,,,,,,,,,['num_0'],4,0.0553225985774,1,['num_0'],0,[0.77294386919732],,,,,,,,,2018_Apr_28_1224,59.9079078341,sequenceLearningTask,001,083,
min1.png,min2.png,min3.png,min4.png,allBlank.png,,,,['num_7'],,,,,,0,4,4,4,,,,,,,,,,,,,,,,,['num_7'],5,0.0486268119465,1,['num_7'],0,[0.527314633048718],,,,,,,,,2018_Apr_28_1224,59.9079078341,sequenceLearningTask,001,083,
min1.png,min2.png,min3.png,min4.png,allBlank.png,,,,['num_1'],,,,,,0,4,4,4,,,,,,,,,,,,,,,,,['num_1'],5,0.049946194938,1,['num_1'],0,[0.6273206638104512],,,,,,,,,2018_Apr_28_1224,59.9079078341,sequenceLearningTask,001,083,
min1.png,min2.png,min3.png,min4.png,allBlank.png,,,,['num_4'],,,,,,0,4,4,4,,,,,,,,,,,,,,,,,['num_4'],5,0.0536438314127,1,['num_4'],0,[0.8416190667252295],,,,,,,,,2018_Apr_28_1224,59.9079078341,sequenceLearningTask,001,083,
min1.png,min2.png,min3.png,min4.png,allBlank.png,,,,['num_0'],,,,,,0,4,4,4,,,,,,,,,,,,,,,,,['num_0'],5,0.0588692608789,1,['num_0'],0,[0.43536110519664817],,,,,,,,,2018_Apr_28_1224,59.9079078341,sequenceLearningTask,001,083,
min1.png,min2.png,min3.png,min4.png,allBlank.png,,,,['num_0'],,,,,,0,4,4,4,,,,,,,,,,,,,,,,,['num_0'],5,0.0541636256447,1,['num_0'],0,[0.5069458376051443],,,,,,,,,2018_Apr_28_1224,59.9079078341,sequenceLearningTask,001,083,
min1.png,min2.png,min3.png,min4.png,allBlank.png,,,,['num_4'],,,,,,0,4,4,4,,,,,,,,,,,,,,,,,['num_4'],5,0.0497094772805,1,['num_4'],0,[0.42773649919604395],,,,,,,,,2018_Apr_28_1224,59.9079078341,sequenceLearningTask,001,083,
min1.png,min2.png,min3.png,min4.png,allBlank.png,,,,['num_1'],,,,,,0,4,4,4,,,,,,,,,,,,,,,,,['num_1'],5,0.0603113103861,1,['num_1'],0,[0.45015370237501884],,,,,,,,,2018_Apr_28_1224,59.9079078341,sequenceLearningTask,001,083,
min1.png,min2.png,min3.png,min4.png,allBlank.png,,,,['num_0'],,,,,,0,4,4,4,,,,,,,,,,,,,,,,,['num_0'],5,0.0545931635777,1,['num_0'],0,[0.3546563840127419],,,,,,,,,2018_Apr_28_1224,59.9079078341,sequenceLearningTask,001,083,
min1.png,min2.png,min3.png,min4.png,allBlank.png,,,,['num_7'],,,,,,0,5,5,5,,,,,,,,,,,,,,,,,['num_7'],6,0.0445258939169,0,"['num_1', 'num_4', 'num_7']",0,"[0.44879739635189253, 0.5319242684008714, 1.300987116733836]",,,,,,,,,2018_Apr_28_1224,59.9079078341,sequenceLearningTask,001,083,
min1.png,min2.png,min3.png,min4.png,allBlank.png,,,,['num_1'],,,,,,0,5,5,5,,,,,,,,,,,,,,,,,['num_1'],6,0.0580364413911,1,['num_1'],0,[0.9027217607526836],,,,,,,,,2018_Apr_28_1224,59.9079078341,sequenceLearningTask,001,083,
min1.png,min2.png,min3.png,min4.png,allBlank.png,,,,['num_4'],,,,,,0,5,5,5,,,,,,,,,,,,,,,,,['num_4'],6,0.0522124485591,1,['num_4'],0,[0.7083539999746336],,,,,,,,,2018_Apr_28_1224,59.9079078341,sequenceLearningTask,001,083,
min1.png,min2.png,min3.png,min4.png,allBlank.png,,,,['num_0'],,,,,,0,5,5,5,,,,,,,,,,,,,,,,,['num_0'],6,0.0594825934572,1,['num_0'],0,[0.48519406950481425],,,,,,,,,2018_Apr_28_1224,59.9079078341,sequenceLearningTask,001,083,
min1.png,min2.png,min3.png,min4.png,allBlank.png,,,,['num_0'],,,,,,0,5,5,5,,,,,,,,,,,,,,,,,['num_0'],6,0.0521279358426,1,['num_0'],0,[0.47554403009974067],,,,,,,,,2018_Apr_28_1224,59.9079078341,sequenceLearningTask,001,083,
min1.png,min2.png,min3.png,min4.png,allBlank.png,,,,['num_4'],,,,,,0,5,5,5,,,,,,,,,,,,,,,,,['num_4'],6,0.060189874638,1,['num_4'],0,[0.5334237537348372],,,,,,,,,2018_Apr_28_1224,59.9079078341,sequenceLearningTask,001,083,
min1.png,min2.png,min3.png,min4.png,allBlank.png,,,,['num_1'],,,,,,0,5,5,5,,,,,,,,,,,,,,,,,['num_1'],6,0.051597064701,1,['num_1'],0,[0.6942863249809079],,,,,,,,,2018_Apr_28_1224,59.9079078341,sequenceLearningTask,001,083,
min1.png,min2.png,min3.png,min4.png,allBlank.png,,,,['num_0'],,,,,,0,5,5,5,,,,,,,,,,,,,,,,,['num_0'],6,0.0522083459999,0,"['num_4', 'num_0']",0,"[0.0002781535038138827, 0.508468297269701]",,,,,,,,,2018_Apr_28_1224,59.9079078341,sequenceLearningTask,001,083,
min1.png,min2.png,min3.png,min4.png,allBlank.png,,,,['num_7'],,,,,,0,6,6,6,,,,,,,,,,,,,,,,,['num_7'],7,0.0446268168695,1,['num_7'],0,[0.44784888469882844],,,,,,,,,2018_Apr_28_1224,59.9079078341,sequenceLearningTask,001,083,
min1.png,min2.png,min3.png,min4.png,allBlank.png,,,,['num_1'],,,,,,0,6,6,6,,,,,,,,,,,,,,,,,['num_1'],7,0.060797053378,0,"['num_4', 'num_4', 'num_4', 'num_4', 'num_1']",0,"[0.4664617848675334, 1.3335023587662818, 1.7999136821574666, 3.1175411886672464, 3.134095014447098]",,,,,,,,,2018_Apr_28_1224,59.9079078341,sequenceLearningTask,001,083,
min1.png,min2.png,min3.png,min4.png,allBlank.png,,,,['num_4'],,,,,,0,6,6,6,,,,,,,,,,,,,,,,,['num_4'],7,0.0512581933233,1,['num_4'],0,[0.559520952384446],,,,,,,,,2018_Apr_28_1224,59.9079078341,sequenceLearningTask,001,083,
min1.png,min2.png,min3.png,min4.png,allBlank.png,,,,['num_0'],,,,,,0,6,6,6,,,,,,,,,,,,,,,,,['num_0'],7,0.0540799334401,1,['num_0'],0,[0.7394948847243086],,,,,,,,,2018_Apr_28_1224,59.9079078341,sequenceLearningTask,001,083,
min1.png,min2.png,min3.png,min4.png,allBlank.png,,,,['num_0'],,,,,,0,6,6,6,,,,,,,,,,,,,,,,,['num_0'],7,0.0523843457834,1,['num_0'],0,[0.5425954347542756],,,,,,,,,2018_Apr_28_1224,59.9079078341,sequenceLearningTask,001,083,
min1.png,min2.png,min3.png,min4.png,allBlank.png,,,,['num_4'],,,,,,0,6,6,6,,,,,,,,,,,,,,,,,['num_4'],7,0.053140037161,1,['num_4'],0,[0.45833830768617645],,,,,,,,,2018_Apr_28_1224,59.9079078341,sequenceLearningTask,001,083,
min1.png,min2.png,min3.png,min4.png,allBlank.png,,,,['num_1'],,,,,,0,6,6,6,,,,,,,,,,,,,,,,,['num_1'],7,0.0494579904106,1,['num_1'],0,[0.4289102413412138],,,,,,,,,2018_Apr_28_1224,59.9079078341,sequenceLearningTask,001,083,
min1.png,min2.png,min3.png,min4.png,allBlank.png,,,,['num_0'],,,,,,0,6,6,6,,,,,,,,,,,,,,,,,['num_0'],7,0.0513078342879,1,['num_0'],0,[0.45965563939819276],,,,,,,,,2018_Apr_28_1224,59.9079078341,sequenceLearningTask,001,083,
min1.png,min2.png,min3.png,min4.png,allBlank.png,,,,['num_7'],,,,,,0,7,7,7,,,,,,,,,,,,,,,,,['num_7'],8,0.0520110129095,1,['num_7'],0,[0.5255131993683335],,,,,,,,,2018_Apr_28_1224,59.9079078341,sequenceLearningTask,001,083,
min1.png,min2.png,min3.png,min4.png,allBlank.png,,,,['num_1'],,,,,,0,7,7,7,,,,,,,,,,,,,,,,,['num_1'],8,0.0614226936336,1,['num_1'],0,[0.6478051514193339],,,,,,,,,2018_Apr_28_1224,59.9079078341,sequenceLearningTask,001,083,
min1.png,min2.png,min3.png,min4.png,allBlank.png,,,,['num_4'],,,,,,0,7,7,7,,,,,,,,,,,,,,,,,['num_4'],8,0.055315213971,1,['num_4'],0,[0.8564945355964255],,,,,,,,,2018_Apr_28_1224,59.9079078341,sequenceLearningTask,001,083,
min1.png,min2.png,min3.png,min4.png,allBlank.png,,,,['num_0'],,,,,,0,7,7,7,,,,,,,,,,,,,,,,,['num_0'],8,0.0556983929865,0,"['num_1', 'num_0']",0,"[0.48859878326300077, 1.6887692035660393]",,,,,,,,,2018_Apr_28_1224,59.9079078341,sequenceLearningTask,001,083,
min1.png,min2.png,min3.png,min4.png,allBlank.png,,,,['num_0'],,,,,,0,7,7,7,,,,,,,,,,,,,,,,,['num_0'],8,0.0494510160603,1,['num_0'],0,[0.677900293866287],,,,,,,,,2018_Apr_28_1224,59.9079078341,sequenceLearningTask,001,083,
min1.png,min2.png,min3.png,min4.png,allBlank.png,,,,['num_4'],,,,,,0,7,7,7,,,,,,,,,,,,,,,,,['num_4'],8,0.0509952192879,0,"['num_7', 'num_4']",0,"[0.6436574642164032, 1.6279077400109827]",,,,,,,,,2018_Apr_28_1224,59.9079078341,sequenceLearningTask,001,083,
min1.png,min2.png,min3.png,min4.png,allBlank.png,,,,['num_1'],,,,,,0,7,7,7,,,,,,,,,,,,,,,,,['num_1'],8,0.0577143905055,1,['num_1'],0,[0.787053800549188],,,,,,,,,2018_Apr_28_1224,59.9079078341,sequenceLearningTask,001,083,
min1.png,min2.png,min3.png,min4.png,allBlank.png,,,,['num_0'],,,,,,0,7,7,7,,,,,,,,,,,,,,,,,['num_0'],8,0.0550752142664,1,['num_0'],0,[0.5055645059719609],,,,,,,,,2018_Apr_28_1224,59.9079078341,sequenceLearningTask,001,083,
min1.png,min2.png,min3.png,min4.png,allBlank.png,,,,['num_7'],,,,,,0,8,8,8,,,,,,,,,,,,,,,,,['num_7'],9,0.0473185058645,1,['num_7'],0,[0.7287338723274388],,,,,,,,,2018_Apr_28_1224,59.9079078341,sequenceLearningTask,001,083,
min1.png,min2.png,min3.png,min4.png,allBlank.png,,,,['num_1'],,,,,,0,8,8,8,,,,,,,,,,,,,,,,,['num_1'],9,0.0523859868069,0,"['num_4', 'num_4', 'num_4', 'num_1', 'num_1']",0,"[0.9080805233880938, 1.7755055070701928, 2.3085854663563623, 2.924786143852998]",,,,,,,,,2018_Apr_28_1224,59.9079078341,sequenceLearningTask,001,083,
min1.png,min2.png,min3.png,min4.png,allBlank.png,,,,['num_4'],,,,,,0,8,8,8,,,,,,,,,,,,,,,,,['num_4'],9,0.0522940894842,0,"['num_4', 'num_7', 'num_4']",0,"[0.0002908714369596055, 0.6920241739188668, 1.1753138355111332]",,,,,,,,,2018_Apr_28_1224,59.9079078341,sequenceLearningTask,001,083,
min1.png,min2.png,min3.png,min4.png,allBlank.png,,,,['num_0'],,,,,,0,8,8,8,,,,,,,,,,,,,,,,,['num_0'],9,0.0529919347791,0,"['num_4', 'num_0']",0,"[0.42476952848880956, 1.1916690974328503]",,,,,,,,,2018_Apr_28_1224,59.9079078341,sequenceLearningTask,001,083,
min1.png,min2.png,min3.png,min4.png,allBlank.png,,,,['num_0'],,,,,,0,8,8,8,,,,,,,,,,,,,,,,,['num_0'],9,0.0575256727889,1,['num_0'],0,[0.6529390938185315],,,,,,,,,2018_Apr_28_1224,59.9079078341,sequenceLearningTask,001,083,
min1.png,min2.png,min3.png,min4.png,allBlank.png,,,,['num_4'],,,,,,0,8,8,8,,,,,,,,,,,,,,,,,['num_4'],9,0.0521570640118,0,"['num_4', 'num_0', 'num_7', 'num_4']",0,"[0.00027733299202736816, 0.7264930545726429, 1.1599874954000597]",,,,,,,,,2018_Apr_28_1224,59.9079078341,sequenceLearningTask,001,083,
min1.png,min2.png,min3.png,min4.png,allBlank.png,,,,['num_1'],,,,,,0,8,8,8,,,,,,,,,,,,,,,,,['num_1'],9,0.0567068020018,1,['num_1'],0,[0.620994517750205],,,,,,,,,2018_Apr_28_1224,59.9079078341,sequenceLearningTask,001,083,
min1.png,min2.png,min3.png,min4.png,allBlank.png,,,,['num_0'],,,,,,0,8,8,8,,,,,,,,,,,,,,,,,['num_0'],9,0.049873169387,1,['num_0'],0,[0.42820788323138004],,,,,,,,,2018_Apr_28_1224,59.9079078341,sequenceLearningTask,001,083,
min1.png,min2.png,min3.png,min4.png,allBlank.png,,,,['num_7'],,,,,,0,9,9,9,,,,,,,,,,,,,,,,,['num_7'],10,0.0466682502545,0,"['num_4', 'num_1', 'num_7']",0,"[0.5967221373678058, 0.646804127010455, 1.930514547059147]",,,,,,,,,2018_Apr_28_1224,59.9079078341,sequenceLearningTask,001,083,
min1.png,min2.png,min3.png,min4.png,allBlank.png,,,,['num_1'],,,,,,0,9,9,9,,,,,,,,,,,,,,,,,['num_1'],10,0.0497751182254,0,"['num_4', 'num_4', 'num_4', 'num_4', 'num_1']",0,"[0.5439205613286049, 1.6118671443687163, 2.110851555875115, 2.893932438237016, 3.944937503666779]",,,,,,,,,2018_Apr_28_1224,59.9079078341,sequenceLearningTask,001,083,
min1.png,min2.png,min3.png,min4.png,allBlank.png,,,,['num_4'],,,,,,0,9,9,9,,,,,,,,,,,,,,,,,['num_4'],10,0.0589402351504,1,['num_4'],0,[2.4005627890508094],,,,,,,,,2018_Apr_28_1224,59.9079078341,sequenceLearningTask,001,083,
min1.png,min2.png,min3.png,min4.png,allBlank.png,,,,['num_0'],,,,,,0,9,9,9,,,,,,,,,,,,,,,,,['num_0'],10,0.0589373633591,1,['num_0'],0,[0.5353183155057195],,,,,,,,,2018_Apr_28_1224,59.9079078341,sequenceLearningTask,001,083,
min1.png,min2.png,min3.png,min4.png,allBlank.png,,,,['num_0'],,,,,,0,9,9,9,,,,,,,,,,,,,,,,,['num_0'],10,0.0477968642499,0,"['num_1', 'num_0']",0,"[0.6627191843454057, 1.5136412139800086]",,,,,,,,,2018_Apr_28_1224,59.9079078341,sequenceLearningTask,001,083,
min1.png,min2.png,min3.png,min4.png,allBlank.png,,,,['num_4'],,,,,,0,9,9,9,,,,,,,,,,,,,,,,,['num_4'],10,0.0518924489529,1,['num_4'],0,[0.7432237006478317],,,,,,,,,2018_Apr_28_1224,59.9079078341,sequenceLearningTask,001,083,
min1.png,min2.png,min3.png,min4.png,allBlank.png,,,,['num_1'],,,,,,0,9,9,9,,,,,,,,,,,,,,,,,['num_1'],10,0.0576364418832,1,['num_1'],0,[0.45423328709762245],,,,,,,,,2018_Apr_28_1224,59.9079078341,sequenceLearningTask,001,083,
min1.png,min2.png,min3.png,min4.png,allBlank.png,,,,['num_0'],,,,,,0,9,9,9,,,,,,,,,,,,,,,,,['num_0'],10,0.0578378775328,0,"['num_1', 'num_0']",0,"[0.803019729616608, 1.3700389291827832]",,,,,,,,,2018_Apr_28_1224,59.9079078341,sequenceLearningTask,001,083,
min1.png,min2.png,min3.png,min4.png,allBlank.png,,,,,,,,,,0,9,9,9,,,,,0,-1,-1,0,,,,,,,,,,,,,,,,,,,,,,,,2018_Apr_28_1224,59.9079078341,sequenceLearningTask,001,083,
min1.png,min2.png,min3.png,min4.png,allBlank.png,,,,,,,,,,0,9,9,9,,,,,0,-1,-1,0,,,,,,,,,,,,,,,,,['3'],,,,,,,2018_Apr_28_1224,59.9079078341,sequenceLearningTask,001,083,
min1.png,min2.png,min3.png,min4.png,allBlank.png,,,,,,,,,,0,9,9,9,,,,,0,-1,-1,0,,,,,,,,,,,,,,,,,['2'],,,,,,,2018_Apr_28_1224,59.9079078341,sequenceLearningTask,001,083,
min1.png,min2.png,min3.png,min4.png,allBlank.png,,,,,,,,,,0,9,9,9,,,,,0,-1,-1,0,,,,,,,,,,,,,,,,,['1'],,,,,,,2018_Apr_28_1224,59.9079078341,sequenceLearningTask,001,083,
min1.png,min2.png,min3.png,min4.png,allBlank.png,,,,,,,,,,0,9,9,9,,,,,0,-1,-1,0,,,,,,,,,,,,,,,,,['2'],,,,,,,2018_Apr_28_1224,59.9079078341,sequenceLearningTask,001,083,
min1.png,min2.png,min3.png,min4.png,allBlank.png,,,,,,0,0,0,0,0,9,9,9,,,,,0,-1,-1,0,,,,,,,,,,,,,,,,,,return,5.54146600025, no,"[3.078545544354256, 4.329219287114711, 4.561537360159264]",,,2018_Apr_28_1224,59.9079078341,sequenceLearningTask,001,083,
min1.png,min2.png,min3.png,min4.png,allBlank.png,,,,['3'],,,,,,0,9,9,9,,,,,0,-1,-1,0,0,0,0,0,,,,,['3'],1,,0,,,,,,,,,,['4'],15.2876259024,2018_Apr_28_1224,59.9079078341,sequenceLearningTask,001,083,
min1.png,min2.png,min3.png,min4.png,allBlank.png,,,,['2'],,,,,,0,9,9,9,,,,,0,-1,-1,0,0,0,0,0,,,,,['2'],1,,1,,,,,,,,,,['2'],5.56574166268,2018_Apr_28_1224,59.9079078341,sequenceLearningTask,001,083,
min1.png,min2.png,min3.png,min4.png,allBlank.png,,,,['4'],,,,,,0,9,9,9,,,,,0,-1,-1,0,0,0,0,0,,,,,['4'],1,,1,,,,,,,,,,['4'],5.14883099631,2018_Apr_28_1224,59.9079078341,sequenceLearningTask,001,083,
min1.png,min2.png,min3.png,min4.png,allBlank.png,,,,['4'],,,,,,0,9,9,9,,,,,0,-1,-1,0,0,0,0,0,,,,,['4'],1,,0,,,,,,,,,,['1'],3.59928705729,2018_Apr_28_1224,59.9079078341,sequenceLearningTask,001,083,
min1.png,min2.png,min3.png,min4.png,allBlank.png,,,,['2'],,,,,,0,9,9,9,,,,,0,-1,-1,0,0,0,0,0,,,,,['2'],1,,0,,,,,,,,,,['3'],6.66575302677,2018_Apr_28_1224,59.9079078341,sequenceLearningTask,001,083,
min1.png,min2.png,min3.png,min4.png,allBlank.png,,,,['3'],,,,,,0,9,9,9,,,,,0,-1,-1,0,0,0,0,0,,,,,['3'],1,,1,,,,,,,,,,['3'],3.68192736583,2018_Apr_28_1224,59.9079078341,sequenceLearningTask,001,083,
min1.png,min2.png,min3.png,min4.png,allBlank.png,,,,['4'],,,,,,0,9,9,9,,,,,0,-1,-1,0,0,0,0,0,,,,,['4'],1,,0,,,,,,,,,,['1'],2.9825522266,2018_Apr_28_1224,59.9079078341,sequenceLearningTask,001,083,
min1.png,min2.png,min3.png,min4.png,allBlank.png,,,,['2'],,,,,,0,9,9,9,,,,,0,-1,-1,0,0,0,0,0,,,,,['2'],1,,1,,,,,,,,,,['2'],1.91581261644,2018_Apr_28_1224,59.9079078341,sequenceLearningTask,001,083,
min1.png,min2.png,min3.png,min4.png,allBlank.png,,,,['1'],,,,,,0,9,9,9,,,,,0,-1,-1,0,0,0,0,0,,,,,['1'],1,,0,,,,,,,,,,['3'],1.44897134486,2018_Apr_28_1224,59.9079078341,sequenceLearningTask,001,083,
min1.png,min2.png,min3.png,min4.png,allBlank.png,,,,['1'],,,,,,0,9,9,9,,,,,0,-1,-1,0,0,0,0,0,0,0,0,0,['1'],1,,0,,,,,,,,,,['3'],16.0109361917,2018_Apr_28_1224,59.9079078341,sequenceLearningTask,001,083,
min1.png,min2.png,min3.png,min4.png,allBlank.png,,,,['3'],,,,,,0,9,9,9,,,,,0,-1,-1,0,0,0,0,0,0,0,0,0,['3'],1,,0,,,,,,,,,,['2'],8.47905992321,2018_Apr_28_1224,59.9079078341,sequenceLearningTask,001,083,
