pawPatrol1,pawPatrol2,pawPatrol3,pawPatrol4,blank,allowableKey,correctKey,correctKeyPressNum,posLoc,correctKeyPress,randomPaw,im_size,trials.thisRepN,trials.thisTrialN,trials.thisN,trials.thisIndex,trials_3.thisRepN,trials_3.thisTrialN,trials_3.thisN,trials_3.thisIndex,trials_2.thisRepN,trials_2.thisTrialN,trials_2.thisN,trials_2.thisIndex,trials_questions.thisRepN,trials_questions.thisTrialN,trials_questions.thisN,trials_questions.thisIndex,correctLocation,correctImage,repetitionNumber,stimulusPresent.t,responseTimeCorrect,pressLoc,responseTimeIncorrect,trialIncorrect,date,frameRate,expName,session,participant,
min1.png,min2.png,min3.png,min4.png,allBlank.png,,,,,,,,,,,,0,0,0,0,,,,,,,,,"(-0.75, -0.04)",images/min1.png,1,0.0907971281558,0.785062153824,[ 0.7921875  -0.17777778],,,2018_Jun_20_1251,59.7239101273,sequenceLearningTask,001,086,
min1.png,min2.png,min3.png,min4.png,allBlank.png,,,,,,,,,,,,0,0,0,0,,,,,,,,,"(0.25, -0.04)",images/min3.png,1,0.070086974185,0.439732512925,[-0.7046875  -0.08333333],,,2018_Jun_20_1251,59.7239101273,sequenceLearningTask,001,086,
min1.png,min2.png,min3.png,min4.png,allBlank.png,,,,,,,,,,,,0,0,0,0,,,,,,,,,"(-0.25, -0.04)",images/min2.png,1,0.0825493335724,0.560167384334,[ 0.3546875  -0.17777778],,,2018_Jun_20_1251,59.7239101273,sequenceLearningTask,001,086,
min1.png,min2.png,min3.png,min4.png,allBlank.png,,,,,,,,,,,,0,0,0,0,,,,,,,,,"(0.75, -0.04)",images/min4.png,1,0.0723327179439,0.472443897277,[-0.2109375  -0.07777778],,,2018_Jun_20_1251,59.7239101273,sequenceLearningTask,001,086,
min1.png,min2.png,min3.png,min4.png,allBlank.png,,,,,,,,,,,,0,0,0,0,,,,,,,,,"(0.75, -0.04)",images/min4.png,1,0.0609571281821,0.479910153896,[ 0.725       0.05833333],,,2018_Jun_20_1251,59.7239101273,sequenceLearningTask,001,086,
min1.png,min2.png,min3.png,min4.png,allBlank.png,,,,,,,,,,,,0,0,0,0,,,,,,,,,"(-0.25, -0.04)",images/min2.png,1,0.048795487266,0.562724922784,[ 0.7328125  -0.01111111],,,2018_Jun_20_1251,59.7239101273,sequenceLearningTask,001,086,
min1.png,min2.png,min3.png,min4.png,allBlank.png,,,,,,,,,,,,0,0,0,0,,,,,,,,,"(0.25, -0.04)",images/min3.png,1,0.0571249229833,0.420075487345,[-0.2640625  -0.07222222],,,2018_Jun_20_1251,59.7239101273,sequenceLearningTask,001,086,
min1.png,min2.png,min3.png,min4.png,allBlank.png,,,,,,,,,,,,0,0,0,0,,,,,,,,,"(0.75, -0.04)",images/min4.png,1,0.0624053333886,0.434178461321,[ 0.2828125  -0.10277778],,,2018_Jun_20_1251,59.7239101273,sequenceLearningTask,001,086,
min1.png,min2.png,min3.png,min4.png,allBlank.png,,,,,,,,,,,,0,1,1,1,,,,,,,,,"(-0.75, -0.04)",images/min1.png,2,0.0565210254863,0.649885128252,[ 0.621875   -0.16111111],,,2018_Jun_20_1251,59.7239101273,sequenceLearningTask,001,086,
min1.png,min2.png,min3.png,min4.png,allBlank.png,,,,,,,,,,,,0,1,1,1,,,,,,,,,"(0.25, -0.04)",images/min3.png,2,0.0615602051839,0.512626461685,[-0.771875   -0.17777778],,,2018_Jun_20_1251,59.7239101273,sequenceLearningTask,001,086,
min1.png,min2.png,min3.png,min4.png,allBlank.png,,,,,,,,,,,,0,1,1,1,,,,,,,,,"(-0.25, -0.04)",images/min2.png,2,0.0607187692076,0.51355117932,[ 0.2609375  -0.09722222],,,2018_Jun_20_1251,59.7239101273,sequenceLearningTask,001,086,
min1.png,min2.png,min3.png,min4.png,allBlank.png,,,,,,,,,,,,0,1,1,1,,,,,,,,,"(0.75, -0.04)",images/min4.png,2,0.0587602048181,0.68457723083,[-0.2609375  -0.13888889],,,2018_Jun_20_1251,59.7239101273,sequenceLearningTask,001,086,
min1.png,min2.png,min3.png,min4.png,allBlank.png,,,,,,,,,,,,0,1,1,1,,,,,,,,,"(0.75, -0.04)",images/min4.png,2,0.057836717926,0.534326974303,[ 0.65625     0.05277778],,,2018_Jun_20_1251,59.7239101273,sequenceLearningTask,001,086,
min1.png,min2.png,min3.png,min4.png,allBlank.png,,,,,,,,,,,,0,1,1,1,,,,,,,,,"(-0.25, -0.04)",images/min2.png,2,0.0576742561534,0.583172512706,[ 0.725      -0.05277778],,,2018_Jun_20_1251,59.7239101273,sequenceLearningTask,001,086,
min1.png,min2.png,min3.png,min4.png,allBlank.png,,,,,,,,,,,,0,1,1,1,,,,,,,,,"(0.25, -0.04)",images/min3.png,2,0.0564069743268,0.432306871749,[-0.2359375  -0.04444444],,,2018_Jun_20_1251,59.7239101273,sequenceLearningTask,001,086,
min1.png,min2.png,min3.png,min4.png,allBlank.png,,,,,,,,,,,,0,1,1,1,,,,,,,,,"(0.75, -0.04)",images/min4.png,2,0.0544877946377,0.539371897466,[ 0.29375    -0.06944444],,,2018_Jun_20_1251,59.7239101273,sequenceLearningTask,001,086,
min1.png,min2.png,min3.png,min4.png,allBlank.png,,,,,,,,,,,,0,2,2,2,,,,,,,,,"(-0.75, -0.04)",images/min1.png,3,0.05206358945,0.672528820578,[ 0.709375   -0.02222222],,,2018_Jun_20_1251,59.7239101273,sequenceLearningTask,001,086,
min1.png,min2.png,min3.png,min4.png,allBlank.png,,,,,,,,,,,,0,2,2,2,,,,,,,,,"(0.25, -0.04)",images/min3.png,3,0.0569903589785,0.467279179487,[-0.6859375  -0.18055556],,,2018_Jun_20_1251,59.7239101273,sequenceLearningTask,001,086,
min1.png,min2.png,min3.png,min4.png,allBlank.png,,,,,,,,,,,,0,2,2,2,,,,,,,,,"(-0.25, -0.04)",images/min2.png,3,0.0564652308822,0.55152205145,[ 0.2953125  -0.11388889],,,2018_Jun_20_1251,59.7239101273,sequenceLearningTask,001,086,
min1.png,min2.png,min3.png,min4.png,allBlank.png,,,,,,,,,,,,0,2,2,2,,,,,,,,,"(0.75, -0.04)",images/min4.png,3,0.0606662561186,0.446312204935,[-0.2375     -0.04166667],,,2018_Jun_20_1251,59.7239101273,sequenceLearningTask,001,086,
min1.png,min2.png,min3.png,min4.png,allBlank.png,,,,,,,,,,,,0,2,2,2,,,,,,,,,"(0.75, -0.04)",images/min4.png,3,0.0505021540448,0.491209025495,[ 0.7609375  -0.03055556],,,2018_Jun_20_1251,59.7239101273,sequenceLearningTask,001,086,
min1.png,min2.png,min3.png,min4.png,allBlank.png,,,,,,,,,,,,0,2,2,2,,,,,,,,,"(-0.25, -0.04)",images/min2.png,3,0.0622691279277,0.612392205279,[ 0.7015625  -0.16944444],,,2018_Jun_20_1251,59.7239101273,sequenceLearningTask,001,086,
min1.png,min2.png,min3.png,min4.png,allBlank.png,,,,,,,,,,,,0,2,2,2,,,,,,,,,"(0.25, -0.04)",images/min3.png,3,0.0539228715934,0.472828307655,[-0.175      -0.11388889],,,2018_Jun_20_1251,59.7239101273,sequenceLearningTask,001,086,
min1.png,min2.png,min3.png,min4.png,allBlank.png,,,,,,,,,,,,0,2,2,2,,,,,,,,,"(0.75, -0.04)",images/min4.png,3,0.0566601026803,0.487712410279,[ 0.26875    -0.13055556],,,2018_Jun_20_1251,59.7239101273,sequenceLearningTask,001,086,
min1.png,min2.png,min3.png,min4.png,allBlank.png,,,,,,,,,,,,0,3,3,3,,,,,,,,,"(-0.75, -0.04)",images/min1.png,4,0.0569345639087,0.61657723086,[ 0.69375    -0.06944444],,,2018_Jun_20_1251,59.7239101273,sequenceLearningTask,001,086,
min1.png,min2.png,min3.png,min4.png,allBlank.png,,,,,,,,,,,,0,3,3,3,,,,,,,,,"(0.25, -0.04)",images/min3.png,4,0.0547696407884,0.418892307673,[-0.7609375  -0.16944444],,,2018_Jun_20_1251,59.7239101273,sequenceLearningTask,001,086,
min1.png,min2.png,min3.png,min4.png,allBlank.png,,,,,,,,,,,,0,3,3,3,,,,,,,,,"(-0.25, -0.04)",images/min2.png,4,0.0559175382368,0.622050872073,[ 0.209375   -0.10833333],,,2018_Jun_20_1251,59.7239101273,sequenceLearningTask,001,086,
min1.png,min2.png,min3.png,min4.png,allBlank.png,,,,,,,,,,,,0,3,3,3,,,,,,,,,"(0.75, -0.04)",images/min4.png,4,0.0544065642171,0.654130461626,[-0.2265625 -0.025    ],,,2018_Jun_20_1251,59.7239101273,sequenceLearningTask,001,086,
min1.png,min2.png,min3.png,min4.png,allBlank.png,,,,,,,,,,,,0,3,3,3,,,,,,,,,"(0.75, -0.04)",images/min4.png,4,0.0643003075384,0.94726441009,[ 0.6328125   0.01944444],,,2018_Jun_20_1251,59.7239101273,sequenceLearningTask,001,086,
min1.png,min2.png,min3.png,min4.png,allBlank.png,,,,,,,,,,,,0,3,3,3,,,,,,,,,"(-0.25, -0.04)",images/min2.png,4,0.0571433845907,0.603698871564,[ 0.846875    0.04722222],,,2018_Jun_20_1251,59.7239101273,sequenceLearningTask,001,086,
min1.png,min2.png,min3.png,min4.png,allBlank.png,,,,,,,,,,,,0,3,3,3,,,,,,,,,"(0.25, -0.04)",images/min3.png,4,0.0556229744107,0.407565538306,[-0.1984375   0.01666667],,,2018_Jun_20_1251,59.7239101273,sequenceLearningTask,001,086,
min1.png,min2.png,min3.png,min4.png,allBlank.png,,,,,,,,,,,,0,3,3,3,,,,,,,,,"(0.75, -0.04)",images/min4.png,4,0.0518904617056,0.791984820738,[ 0.2515625  -0.06388889],,,2018_Jun_20_1251,59.7239101273,sequenceLearningTask,001,086,
min1.png,min2.png,min3.png,min4.png,allBlank.png,,,,,,,,,,,,0,4,4,4,,,,,,,,,"(-0.75, -0.04)",images/min1.png,5,0.0532328202389,0.536456615198,[ 0.68125    -0.12777778],,,2018_Jun_20_1251,59.7239101273,sequenceLearningTask,001,086,
min1.png,min2.png,min3.png,min4.png,allBlank.png,,,,,,,,,,,,0,4,4,4,,,,,,,,,"(0.25, -0.04)",images/min3.png,5,0.0623277951963,0.631195897702,[-0.6640625 -0.15     ],,,2018_Jun_20_1251,59.7239101273,sequenceLearningTask,001,086,
min1.png,min2.png,min3.png,min4.png,allBlank.png,,,,,,,,,,,,0,4,4,4,,,,,,,,,"(-0.25, -0.04)",images/min2.png,5,0.0554379485548,0.620936204679,[ 0.3140625  -0.03333333],,,2018_Jun_20_1251,59.7239101273,sequenceLearningTask,001,086,
min1.png,min2.png,min3.png,min4.png,allBlank.png,,,,,,,,,,,,0,4,4,4,,,,,,,,,"(0.75, -0.04)",images/min4.png,5,0.0513111790642,0.627950359136,[-0.25625    -0.11388889],,,2018_Jun_20_1251,59.7239101273,sequenceLearningTask,001,086,
min1.png,min2.png,min3.png,min4.png,allBlank.png,,,,,,,,,,,,0,4,4,4,,,,,,,,,"(0.75, -0.04)",images/min4.png,5,0.0577833848074,0.568773743697,[ 0.70625    -0.11388889],,,2018_Jun_20_1251,59.7239101273,sequenceLearningTask,001,086,
min1.png,min2.png,min3.png,min4.png,allBlank.png,,,,,,,,,,,,0,4,4,4,,,,,,,,,"(-0.25, -0.04)",images/min2.png,5,0.0502272821032,0.624709743541,[ 0.7578125  -0.08055556],,,2018_Jun_20_1251,59.7239101273,sequenceLearningTask,001,086,
min1.png,min2.png,min3.png,min4.png,allBlank.png,,,,,,,,,,,,0,4,4,4,,,,,,,,,"(0.25, -0.04)",images/min3.png,5,0.0541825643741,0.423552000429,[-0.1390625  -0.19722222],,,2018_Jun_20_1251,59.7239101273,sequenceLearningTask,001,086,
min1.png,min2.png,min3.png,min4.png,allBlank.png,,,,,,,,,,,,0,4,4,4,,,,,,,,,"(0.75, -0.04)",images/min4.png,5,0.0517444103025,0.491141743958,[ 0.290625   -0.09722222],,,2018_Jun_20_1251,59.7239101273,sequenceLearningTask,001,086,
min1.png,min2.png,min3.png,min4.png,allBlank.png,,,,,,,,,,,,0,5,5,5,,,,,,,,,"(-0.75, -0.04)",images/min1.png,6,0.048805333674,0.609068718273,[ 0.7015625  -0.09722222],,,2018_Jun_20_1251,59.7239101273,sequenceLearningTask,001,086,
min1.png,min2.png,min3.png,min4.png,allBlank.png,,,,,,,,,,,,0,5,5,5,,,,,,,,,"(0.25, -0.04)",images/min3.png,6,0.0573403076269,0.567499897443,[-0.6265625  -0.10833333],,,2018_Jun_20_1251,59.7239101273,sequenceLearningTask,001,086,
min1.png,min2.png,min3.png,min4.png,allBlank.png,,,,,,,,,,,,0,5,5,5,,,,,,,,,"(-0.25, -0.04)",images/min2.png,6,0.0537177436054,0.486468102317,[ 0.2734375   0.01111111],,,2018_Jun_20_1251,59.7239101273,sequenceLearningTask,001,086,
min1.png,min2.png,min3.png,min4.png,allBlank.png,,,,,,,,,,,,0,5,5,5,,,,,,,,,"(0.75, -0.04)",images/min4.png,6,0.0491360002197,0.559617230669,[-0.1890625  -0.16666667],,,2018_Jun_20_1251,59.7239101273,sequenceLearningTask,001,086,
min1.png,min2.png,min3.png,min4.png,allBlank.png,,,,,,,,,,,,0,5,5,5,,,,,,,,,"(0.75, -0.04)",images/min4.png,6,0.050378666725,0.541369436309,[ 0.684375    0.00833333],,,2018_Jun_20_1251,59.7239101273,sequenceLearningTask,001,086,
min1.png,min2.png,min3.png,min4.png,allBlank.png,,,,,,,,,,,,0,5,5,5,,,,,,,,,"(-0.25, -0.04)",images/min2.png,6,0.0641382564791,1.46066297404,[ 0.7703125   0.05555556],0.497574974317,1,2018_Jun_20_1251,59.7239101273,sequenceLearningTask,001,086,
min1.png,min2.png,min3.png,min4.png,allBlank.png,,,,,,,,,,,,0,5,5,5,,,,,,,,,"(0.25, -0.04)",images/min3.png,6,0.0567528204992,0.513643487357,[-0.1671875  -0.06666667],,,2018_Jun_20_1251,59.7239101273,sequenceLearningTask,001,086,
min1.png,min2.png,min3.png,min4.png,allBlank.png,,,,,,,,,,,,0,5,5,5,,,,,,,,,"(0.75, -0.04)",images/min4.png,6,0.0592348719947,0.486925538629,[ 0.2890625  -0.08055556],,,2018_Jun_20_1251,59.7239101273,sequenceLearningTask,001,086,
min1.png,min2.png,min3.png,min4.png,allBlank.png,,,,,,,,,,,,0,6,6,6,,,,,,,,,"(-0.75, -0.04)",images/min1.png,7,0.0576065643691,0.600696205162,[ 0.7203125 -0.125    ],,,2018_Jun_20_1251,59.7239101273,sequenceLearningTask,001,086,
min1.png,min2.png,min3.png,min4.png,allBlank.png,,,,,,,,,,,,0,6,6,6,,,,,,,,,"(0.25, -0.04)",images/min3.png,7,0.0549858459271,0.624148922972,[-0.66875    -0.01111111],,,2018_Jun_20_1251,59.7239101273,sequenceLearningTask,001,086,
min1.png,min2.png,min3.png,min4.png,allBlank.png,,,,,,,,,,,,0,6,6,6,,,,,,,,,"(-0.25, -0.04)",images/min2.png,7,0.0544008202851,0.655558563769,[ 0.3359375  -0.06388889],,,2018_Jun_20_1251,59.7239101273,sequenceLearningTask,001,086,
min1.png,min2.png,min3.png,min4.png,allBlank.png,,,,,,,,,,,,0,6,6,6,,,,,,,,,"(0.75, -0.04)",images/min4.png,7,0.057499486953,0.729465025477,[-0.1609375 -0.075    ],,,2018_Jun_20_1251,59.7239101273,sequenceLearningTask,001,086,
min1.png,min2.png,min3.png,min4.png,allBlank.png,,,,,,,,,,,,0,6,6,6,,,,,,,,,"(0.75, -0.04)",images/min4.png,7,0.0548340510577,0.724001230672,[ 0.6984375   0.00833333],,,2018_Jun_20_1251,59.7239101273,sequenceLearningTask,001,086,
min1.png,min2.png,min3.png,min4.png,allBlank.png,,,,,,,,,,,,0,6,6,6,,,,,,,,,"(-0.25, -0.04)",images/min2.png,7,0.0647142562084,0.726786461659,[ 0.6703125  0.075    ],,,2018_Jun_20_1251,59.7239101273,sequenceLearningTask,001,086,
min1.png,min2.png,min3.png,min4.png,allBlank.png,,,,,,,,,,,,0,6,6,6,,,,,,,,,"(0.25, -0.04)",images/min3.png,7,0.0630194870755,0.756740512792,[-0.346875   -0.13611111],,,2018_Jun_20_1251,59.7239101273,sequenceLearningTask,001,086,
min1.png,min2.png,min3.png,min4.png,allBlank.png,,,,,,,,,,,,0,6,6,6,,,,,,,,,"(0.75, -0.04)",images/min4.png,7,0.0213423590176,0.587763282005,[ 0.2328125  -0.14166667],,,2018_Jun_20_1251,59.7239101273,sequenceLearningTask,001,086,
min1.png,min2.png,min3.png,min4.png,allBlank.png,,,,,,,,,,,,0,7,7,7,,,,,,,,,"(-0.75, -0.04)",images/min1.png,8,0.0533288205042,0.687374769244,[ 0.7671875  -0.14166667],,,2018_Jun_20_1251,59.7239101273,sequenceLearningTask,001,086,
min1.png,min2.png,min3.png,min4.png,allBlank.png,,,,,,,,,,,,0,7,7,7,,,,,,,,,"(0.25, -0.04)",images/min3.png,8,0.0623236922547,0.697384205181,[-0.796875 -0.175   ],,,2018_Jun_20_1251,59.7239101273,sequenceLearningTask,001,086,
min1.png,min2.png,min3.png,min4.png,allBlank.png,,,,,,,,,,,,0,7,7,7,,,,,,,,,"(-0.25, -0.04)",images/min2.png,8,0.0514691285789,0.843441231176,[ 0.221875   -0.06944444],,,2018_Jun_20_1251,59.7239101273,sequenceLearningTask,001,086,
min1.png,min2.png,min3.png,min4.png,allBlank.png,,,,,,,,,,,,0,7,7,7,,,,,,,,,"(0.75, -0.04)",images/min4.png,8,0.0536418464035,0.636728615034,[-0.2328125  -0.16944444],,,2018_Jun_20_1251,59.7239101273,sequenceLearningTask,001,086,
min1.png,min2.png,min3.png,min4.png,allBlank.png,,,,,,,,,,,,0,7,7,7,,,,,,,,,"(0.75, -0.04)",images/min4.png,8,0.0492361024953,0.524368820246,[ 0.790625   -0.00555556],,,2018_Jun_20_1251,59.7239101273,sequenceLearningTask,001,086,
min1.png,min2.png,min3.png,min4.png,allBlank.png,,,,,,,,,,,,0,7,7,7,,,,,,,,,"(-0.25, -0.04)",images/min2.png,8,0.060159179382,0.534867692273,[ 0.6890625  -0.05833333],,,2018_Jun_20_1251,59.7239101273,sequenceLearningTask,001,086,
min1.png,min2.png,min3.png,min4.png,allBlank.png,,,,,,,,,,,,0,7,7,7,,,,,,,,,"(0.25, -0.04)",images/min3.png,8,0.0561915896833,0.452027487569,[-0.2875     -0.23888889],,,2018_Jun_20_1251,59.7239101273,sequenceLearningTask,001,086,
min1.png,min2.png,min3.png,min4.png,allBlank.png,,,,,,,,,,,,0,7,7,7,,,,,,,,,"(0.75, -0.04)",images/min4.png,8,0.0568508715369,0.499550358858,[ 0.2234375  -0.13055556],,,2018_Jun_20_1251,59.7239101273,sequenceLearningTask,001,086,
min1.png,min2.png,min3.png,min4.png,allBlank.png,,,,,,,,,,,,0,8,8,8,,,,,,,,,"(-0.75, -0.04)",images/min1.png,9,0.0647101537324,0.710767179728,[ 0.6515625  -0.03611111],,,2018_Jun_20_1251,59.7239101273,sequenceLearningTask,001,086,
min1.png,min2.png,min3.png,min4.png,allBlank.png,,,,,,,,,,,,0,8,8,8,,,,,,,,,"(0.25, -0.04)",images/min3.png,9,0.055645538494,0.674482461531,[-0.6578125  -0.18611111],,,2018_Jun_20_1251,59.7239101273,sequenceLearningTask,001,086,
min1.png,min2.png,min3.png,min4.png,allBlank.png,,,,,,,,,,,,0,8,8,8,,,,,,,,,"(-0.25, -0.04)",images/min2.png,9,0.0567109743133,1.12068882072,[ 0.271875   -0.10277778],,,2018_Jun_20_1251,59.7239101273,sequenceLearningTask,001,086,
min1.png,min2.png,min3.png,min4.png,allBlank.png,,,,,,,,,,,,0,8,8,8,,,,,,,,,"(0.75, -0.04)",images/min4.png,9,0.0553558971733,0.821004307829,[-0.1828125  -0.26111111],,,2018_Jun_20_1251,59.7239101273,sequenceLearningTask,001,086,
min1.png,min2.png,min3.png,min4.png,allBlank.png,,,,,,,,,,,,0,8,8,8,,,,,,,,,"(0.75, -0.04)",images/min4.png,9,0.047813333571,0.84506379487,[ 0.6671875 -0.225    ],,,2018_Jun_20_1251,59.7239101273,sequenceLearningTask,001,086,
min1.png,min2.png,min3.png,min4.png,allBlank.png,,,,,,,,,,,,0,8,8,8,,,,,,,,,"(-0.25, -0.04)",images/min2.png,9,0.0583232818171,1.05141579499,[ 0.7421875  -0.19722222],,,2018_Jun_20_1251,59.7239101273,sequenceLearningTask,001,086,
min1.png,min2.png,min3.png,min4.png,allBlank.png,,,,,,,,,,,,0,8,8,8,,,,,,,,,"(0.25, -0.04)",images/min3.png,9,0.0569805130363,0.568736410234,[-0.2546875  -0.10277778],,,2018_Jun_20_1251,59.7239101273,sequenceLearningTask,001,086,
min1.png,min2.png,min3.png,min4.png,allBlank.png,,,,,,,,,,,,0,8,8,8,,,,,,,,,"(0.75, -0.04)",images/min4.png,9,0.0609526154585,0.462959589437,[ 0.2984375  -0.11944444],,,2018_Jun_20_1251,59.7239101273,sequenceLearningTask,001,086,
min1.png,min2.png,min3.png,min4.png,allBlank.png,,,,,,,,,,,,0,9,9,9,,,,,,,,,"(-0.75, -0.04)",images/min1.png,10,0.0590974362567,0.681035487447,[ 0.7609375  -0.25833333],,,2018_Jun_20_1251,59.7239101273,sequenceLearningTask,001,086,
min1.png,min2.png,min3.png,min4.png,allBlank.png,,,,,,,,,,,,0,9,9,9,,,,,,,,,"(0.25, -0.04)",images/min3.png,10,0.0572918974794,0.668136205059,[-0.696875   -0.06388889],,,2018_Jun_20_1251,59.7239101273,sequenceLearningTask,001,086,
min1.png,min2.png,min3.png,min4.png,allBlank.png,,,,,,,,,,,,0,9,9,9,,,,,,,,,"(-0.25, -0.04)",images/min2.png,10,0.0623117950745,0.748419282027,[ 0.2625     -0.03333333],,,2018_Jun_20_1251,59.7239101273,sequenceLearningTask,001,086,
min1.png,min2.png,min3.png,min4.png,allBlank.png,,,,,,,,,,,,0,9,9,9,,,,,,,,,"(0.75, -0.04)",images/min4.png,10,0.0581973334774,0.501069128048,[-0.1953125  -0.09166667],,,2018_Jun_20_1251,59.7239101273,sequenceLearningTask,001,086,
min1.png,min2.png,min3.png,min4.png,allBlank.png,,,,,,,,,,,,0,9,9,9,,,,,,,,,"(0.75, -0.04)",images/min4.png,10,0.0523593844846,0.571382564027,[ 0.7359375  -0.13055556],,,2018_Jun_20_1251,59.7239101273,sequenceLearningTask,001,086,
min1.png,min2.png,min3.png,min4.png,allBlank.png,,,,,,,,,,,,0,9,9,9,,,,,,,,,"(-0.25, -0.04)",images/min2.png,10,0.0564082050696,0.583894974086,[ 0.7453125  -0.08611111],,,2018_Jun_20_1251,59.7239101273,sequenceLearningTask,001,086,
min1.png,min2.png,min3.png,min4.png,allBlank.png,,,,,,,,,,,,0,9,9,9,,,,,,,,,"(0.25, -0.04)",images/min3.png,10,0.0588832818903,0.533553640824,[-0.1640625  -0.13055556],,,2018_Jun_20_1251,59.7239101273,sequenceLearningTask,001,086,
min1.png,min2.png,min3.png,min4.png,allBlank.png,,,,,,,,,,,,0,9,9,9,,,,,,,,,"(0.75, -0.04)",images/min4.png,10,0.056341744028,0.986925128382,[ 0.26875    -0.13888889],,,2018_Jun_20_1251,59.7239101273,sequenceLearningTask,001,086,
min1.png,min2.png,min3.png,min4.png,images/allBlank.png,"['num_7', 'num_4', 'num_1', 'num_0']",['num_0'],num_0,[4],'num_0',images/min4.png,"[(0.45, 0.79)]",,,,,0,-1,-1,0,0,0,0,3,,,,,"(-0.25, 0.04)",images/min2.png,1,0.0343253333122,0.680126769003,[ 0.6484375 -0.125    ],,,2018_Jun_20_1251,59.7239101273,sequenceLearningTask,001,086,
min1.png,min2.png,min3.png,min4.png,images/allBlank.png,"['num_7', 'num_4', 'num_1', 'num_0']",['num_0'],num_0,[4],'num_0',images/min4.png,"[(0.45, 0.79)]",,,,,0,-1,-1,0,0,0,0,3,,,,,"(-0.75, 0.04)",images/min1.png,1,0.0618334361352,0.590055384673,[-0.2578125  -0.33055556],,,2018_Jun_20_1251,59.7239101273,sequenceLearningTask,001,086,
min1.png,min2.png,min3.png,min4.png,images/allBlank.png,"['num_7', 'num_4', 'num_1', 'num_0']",['num_0'],num_0,[4],'num_0',images/min4.png,"[(0.45, 0.79)]",,,,,0,-1,-1,0,0,0,0,3,,,,,"(-0.75, 0.04)",images/min1.png,1,0.0654929229058,0.541819076985,[-0.7140625  -0.25555556],,,2018_Jun_20_1251,59.7239101273,sequenceLearningTask,001,086,
min1.png,min2.png,min3.png,min4.png,images/allBlank.png,"['num_7', 'num_4', 'num_1', 'num_0']",['num_0'],num_0,[4],'num_0',images/min4.png,"[(0.45, 0.79)]",,,,,0,-1,-1,0,0,0,0,3,,,,,"(0.75, 0.04)",images/min4.png,1,0.0516250254586,0.622197333258,[-0.7125     -0.13055556],,,2018_Jun_20_1251,59.7239101273,sequenceLearningTask,001,086,
min1.png,min2.png,min3.png,min4.png,images/allBlank.png,"['num_7', 'num_4', 'num_1', 'num_0']",['num_4'],num_4,[2],'num_4',images/min2.png,"[(0.45, 0.79)]",,,,,0,-1,-1,0,0,1,1,1,,,,,"(-0.25, 0.04)",images/min2.png,2,0.0629345644265,0.474760615267,[ 0.65625    -0.20277778],,,2018_Jun_20_1251,59.7239101273,sequenceLearningTask,001,086,
min1.png,min2.png,min3.png,min4.png,images/allBlank.png,"['num_7', 'num_4', 'num_1', 'num_0']",['num_4'],num_4,[2],'num_4',images/min2.png,"[(0.45, 0.79)]",,,,,0,-1,-1,0,0,1,1,1,,,,,"(0.75, 0.04)",images/min4.png,2,0.0573251280002,0.499049025588,[-0.134375   -0.01944444],,,2018_Jun_20_1251,59.7239101273,sequenceLearningTask,001,086,
min1.png,min2.png,min3.png,min4.png,images/allBlank.png,"['num_7', 'num_4', 'num_1', 'num_0']",['num_4'],num_4,[2],'num_4',images/min2.png,"[(0.45, 0.79)]",,,,,0,-1,-1,0,0,1,1,1,,,,,"(0.25, 0.04)",images/min3.png,2,0.0549202053808,0.502323281951,[ 0.7796875  -0.00833333],,,2018_Jun_20_1251,59.7239101273,sequenceLearningTask,001,086,
min1.png,min2.png,min3.png,min4.png,images/allBlank.png,"['num_7', 'num_4', 'num_1', 'num_0']",['num_4'],num_4,[2],'num_4',images/min2.png,"[(0.45, 0.79)]",,,,,0,-1,-1,0,0,1,1,1,,,,,"(-0.25, 0.04)",images/min2.png,2,0.0516488202848,0.471903999802,[ 0.2328125  -0.11944444],,,2018_Jun_20_1251,59.7239101273,sequenceLearningTask,001,086,
min1.png,min2.png,min3.png,min4.png,images/allBlank.png,"['num_7', 'num_4', 'num_1', 'num_0']",['num_1'],num_1,[3],'num_1',images/min3.png,"[(0.45, 0.79)]",,,,,0,-1,-1,0,0,2,2,2,,,,,"(-0.75, 0.04)",images/min1.png,3,0.055299282074,0.664365949109,[-0.2390625  -0.04166667],,,2018_Jun_20_1251,59.7239101273,sequenceLearningTask,001,086,
min1.png,min2.png,min3.png,min4.png,images/allBlank.png,"['num_7', 'num_4', 'num_1', 'num_0']",['num_1'],num_1,[3],'num_1',images/min3.png,"[(0.45, 0.79)]",,,,,0,-1,-1,0,0,2,2,2,,,,,"(0.75, 0.04)",images/min4.png,3,0.057142153848,0.494492307771,[-0.7375     -0.14166667],,,2018_Jun_20_1251,59.7239101273,sequenceLearningTask,001,086,
min1.png,min2.png,min3.png,min4.png,images/allBlank.png,"['num_7', 'num_4', 'num_1', 'num_0']",['num_1'],num_1,[3],'num_1',images/min3.png,"[(0.45, 0.79)]",,,,,0,-1,-1,0,0,2,2,2,,,,,"(-0.75, 0.04)",images/min1.png,3,0.063636102248,0.491497845855,[ 0.6265625  -0.18611111],,,2018_Jun_20_1251,59.7239101273,sequenceLearningTask,001,086,
min1.png,min2.png,min3.png,min4.png,images/allBlank.png,"['num_7', 'num_4', 'num_1', 'num_0']",['num_1'],num_1,[3],'num_1',images/min3.png,"[(0.45, 0.79)]",,,,,0,-1,-1,0,0,2,2,2,,,,,"(-0.75, 0.04)",images/min1.png,3,0.0581554872915,0.787051897496,[-0.6484375 -0.1      ],,,2018_Jun_20_1251,59.7239101273,sequenceLearningTask,001,086,
min1.png,min2.png,min3.png,min4.png,images/allBlank.png,"['num_7', 'num_4', 'num_1', 'num_0']",['num_7'],num_7,[1],'num_7',images/min1.png,"[(0.45, 0.79)]",,,,,0,-1,-1,0,0,3,3,0,,,,,"(0.75, 0.04)",images/min4.png,4,0.0573677946813,0.715854358859,[-0.853125   -0.14166667],,,2018_Jun_20_1251,59.7239101273,sequenceLearningTask,001,086,
min1.png,min2.png,min3.png,min4.png,images/allBlank.png,"['num_7', 'num_4', 'num_1', 'num_0']",['num_7'],num_7,[1],'num_7',images/min1.png,"[(0.45, 0.79)]",,,,,0,-1,-1,0,0,3,3,0,,,,,"(0.75, 0.04)",images/min4.png,4,0.0585288205184,0.648208820727,[ 0.7640625  -0.04722222],,,2018_Jun_20_1251,59.7239101273,sequenceLearningTask,001,086,
min1.png,min2.png,min3.png,min4.png,images/allBlank.png,"['num_7', 'num_4', 'num_1', 'num_0']",['num_7'],num_7,[1],'num_7',images/min1.png,"[(0.45, 0.79)]",,,,,0,-1,-1,0,0,3,3,0,,,,,"(-0.75, 0.04)",images/min1.png,4,0.0561973331496,0.601655384526,[ 0.6765625  -0.06944444],,,2018_Jun_20_1251,59.7239101273,sequenceLearningTask,001,086,
min1.png,min2.png,min3.png,min4.png,images/allBlank.png,"['num_7', 'num_4', 'num_1', 'num_0']",['num_7'],num_7,[1],'num_7',images/min1.png,"[(0.45, 0.79)]",,,,,0,-1,-1,0,0,3,3,0,,,,,"(-0.75, 0.04)",images/min1.png,4,0.0522260516882,0.710001230706,[-0.6890625  -0.14166667],,,2018_Jun_20_1251,59.7239101273,sequenceLearningTask,001,086,
min1.png,min2.png,min3.png,min4.png,images/allBlank.png,"['num_7', 'num_4', 'num_1', 'num_0']",['num_4'],num_4,[2],'num_4',images/min2.png,"[(0.45, 0.79)]",,,,,0,-1,-1,0,1,0,4,1,,,,,"(-0.75, 0.04)",images/min1.png,5,0.0566051281057,0.564363076817,[-0.7109375  -0.08888889],,,2018_Jun_20_1251,59.7239101273,sequenceLearningTask,001,086,
min1.png,min2.png,min3.png,min4.png,images/allBlank.png,"['num_7', 'num_4', 'num_1', 'num_0']",['num_4'],num_4,[2],'num_4',images/min2.png,"[(0.45, 0.79)]",,,,,0,-1,-1,0,1,0,4,1,,,,,"(-0.25, 0.04)",images/min2.png,5,0.0629140511155,0.543244307395,[-0.6609375 -0.175    ],,,2018_Jun_20_1251,59.7239101273,sequenceLearningTask,001,086,
min1.png,min2.png,min3.png,min4.png,images/allBlank.png,"['num_7', 'num_4', 'num_1', 'num_0']",['num_4'],num_4,[2],'num_4',images/min2.png,"[(0.45, 0.79)]",,,,,0,-1,-1,0,1,0,4,1,,,,,"(0.25, 0.04)",images/min3.png,5,0.0502843074501,0.534895589575,[-0.1453125  -0.28333333],,,2018_Jun_20_1251,59.7239101273,sequenceLearningTask,001,086,
min1.png,min2.png,min3.png,min4.png,images/allBlank.png,"['num_7', 'num_4', 'num_1', 'num_0']",['num_4'],num_4,[2],'num_4',images/min2.png,"[(0.45, 0.79)]",,,,,0,-1,-1,0,1,0,4,1,,,,,"(0.75, 0.04)",images/min4.png,5,0.0626391796395,0.524770872202,[ 0.3234375  -0.12222222],,,2018_Jun_20_1251,59.7239101273,sequenceLearningTask,001,086,
min1.png,min2.png,min3.png,min4.png,images/allBlank.png,"['num_7', 'num_4', 'num_1', 'num_0']",['num_7'],num_7,[1],'num_7',images/min1.png,"[(0.45, 0.79)]",,,,,0,-1,-1,0,1,1,5,0,,,,,"(-0.25, 0.04)",images/min2.png,6,0.0620668716729,1.26342892274,[ 0.721875   -0.16944444],0.507145436015,1,2018_Jun_20_1251,59.7239101273,sequenceLearningTask,001,086,
min1.png,min2.png,min3.png,min4.png,images/allBlank.png,"['num_7', 'num_4', 'num_1', 'num_0']",['num_7'],num_7,[1],'num_7',images/min1.png,"[(0.45, 0.79)]",,,,,0,-1,-1,0,1,1,5,0,,,,,"(-0.25, 0.04)",images/min2.png,6,0.0563199999742,0.836626461707,[-0.1828125  -0.14166667],,,2018_Jun_20_1251,59.7239101273,sequenceLearningTask,001,086,
min1.png,min2.png,min3.png,min4.png,images/allBlank.png,"['num_7', 'num_4', 'num_1', 'num_0']",['num_7'],num_7,[1],'num_7',images/min1.png,"[(0.45, 0.79)]",,,,,0,-1,-1,0,1,1,5,0,,,,,"(-0.25, 0.04)",images/min2.png,6,0.0514941541478,0.706102974713,[-0.1796875  -0.26388889],,,2018_Jun_20_1251,59.7239101273,sequenceLearningTask,001,086,
min1.png,min2.png,min3.png,min4.png,images/allBlank.png,"['num_7', 'num_4', 'num_1', 'num_0']",['num_7'],num_7,[1],'num_7',images/min1.png,"[(0.45, 0.79)]",,,,,0,-1,-1,0,1,1,5,0,,,,,"(0.25, 0.04)",images/min3.png,6,0.055126153864,0.618790974375,[-0.2625     -0.21666667],,,2018_Jun_20_1251,59.7239101273,sequenceLearningTask,001,086,
min1.png,min2.png,min3.png,min4.png,images/allBlank.png,"['num_7', 'num_4', 'num_1', 'num_0']",['num_1'],num_1,[3],'num_1',images/min3.png,"[(0.45, 0.79)]",,,,,0,-1,-1,0,1,2,6,2,,,,,"(-0.75, 0.04)",images/min1.png,7,0.0568545642309,1.62172471778,[ 0.29375    -0.20833333],0.680996512994,1,2018_Jun_20_1251,59.7239101273,sequenceLearningTask,001,086,
min1.png,min2.png,min3.png,min4.png,images/allBlank.png,"['num_7', 'num_4', 'num_1', 'num_0']",['num_1'],num_1,[3],'num_1',images/min3.png,"[(0.45, 0.79)]",,,,,0,-1,-1,0,1,2,6,2,,,,,"(-0.25, 0.04)",images/min2.png,7,0.0514338458888,0.623267282266,[-0.68125    -0.05833333],,,2018_Jun_20_1251,59.7239101273,sequenceLearningTask,001,086,
min1.png,min2.png,min3.png,min4.png,images/allBlank.png,"['num_7', 'num_4', 'num_1', 'num_0']",['num_1'],num_1,[3],'num_1',images/min3.png,"[(0.45, 0.79)]",,,,,0,-1,-1,0,1,2,6,2,,,,,"(-0.25, 0.04)",images/min2.png,7,0.0571971284226,0.711828102358,[-0.178125   -0.20555556],,,2018_Jun_20_1251,59.7239101273,sequenceLearningTask,001,086,
min1.png,min2.png,min3.png,min4.png,images/allBlank.png,"['num_7', 'num_4', 'num_1', 'num_0']",['num_1'],num_1,[3],'num_1',images/min3.png,"[(0.45, 0.79)]",,,,,0,-1,-1,0,1,2,6,2,,,,,"(0.75, 0.04)",images/min4.png,7,0.024589127861,0.700299077202,[-0.1921875  -0.25833333],,,2018_Jun_20_1251,59.7239101273,sequenceLearningTask,001,086,
min1.png,min2.png,min3.png,min4.png,images/allBlank.png,"['num_7', 'num_4', 'num_1', 'num_0']",['num_0'],num_0,[4],'num_0',images/min4.png,"[(0.45, 0.79)]",,,,,0,-1,-1,0,1,3,7,3,,,,,"(0.75, 0.04)",images/min4.png,8,0.055003897287,0.601453948766,[ 0.740625   -0.36111111],,,2018_Jun_20_1251,59.7239101273,sequenceLearningTask,001,086,
min1.png,min2.png,min3.png,min4.png,images/allBlank.png,"['num_7', 'num_4', 'num_1', 'num_0']",['num_0'],num_0,[4],'num_0',images/min4.png,"[(0.45, 0.79)]",,,,,0,-1,-1,0,1,3,7,3,,,,,"(0.75, 0.04)",images/min4.png,8,0.0642059487291,0.474978051614,[ 0.80625    -0.34722222],,,2018_Jun_20_1251,59.7239101273,sequenceLearningTask,001,086,
min1.png,min2.png,min3.png,min4.png,images/allBlank.png,"['num_7', 'num_4', 'num_1', 'num_0']",['num_0'],num_0,[4],'num_0',images/min4.png,"[(0.45, 0.79)]",,,,,0,-1,-1,0,1,3,7,3,,,,,"(-0.25, 0.04)",images/min2.png,8,0.0623630769551,0.744502974208,[ 0.746875 -0.2     ],,,2018_Jun_20_1251,59.7239101273,sequenceLearningTask,001,086,
min1.png,min2.png,min3.png,min4.png,images/allBlank.png,"['num_7', 'num_4', 'num_1', 'num_0']",['num_0'],num_0,[4],'num_0',images/min4.png,"[(0.45, 0.79)]",,,,,0,-1,-1,0,1,3,7,3,,,,,"(0.25, 0.04)",images/min3.png,8,0.0561140510254,0.61929928232,[-0.1296875  -0.26944444],,,2018_Jun_20_1251,59.7239101273,sequenceLearningTask,001,086,
min1.png,min2.png,min3.png,min4.png,images/allBlank.png,"['num_7', 'num_4', 'num_1', 'num_0']",['num_4'],num_4,[2],'num_4',images/min2.png,"[(0.45, 0.79)]",,,,,0,-1,-1,0,2,0,8,1,,,,,"(0.75, 0.04)",images/min4.png,9,0.0621140510775,0.474560820963,[ 0.2859375  -0.16111111],,,2018_Jun_20_1251,59.7239101273,sequenceLearningTask,001,086,
min1.png,min2.png,min3.png,min4.png,images/allBlank.png,"['num_7', 'num_4', 'num_1', 'num_0']",['num_4'],num_4,[2],'num_4',images/min2.png,"[(0.45, 0.79)]",,,,,0,-1,-1,0,2,0,8,1,,,,,"(-0.75, 0.04)",images/min1.png,9,0.0532705639489,0.689525743946,[ 0.8015625  -0.21388889],,,2018_Jun_20_1251,59.7239101273,sequenceLearningTask,001,086,
min1.png,min2.png,min3.png,min4.png,images/allBlank.png,"['num_7', 'num_4', 'num_1', 'num_0']",['num_4'],num_4,[2],'num_4',images/min2.png,"[(0.45, 0.79)]",,,,,0,-1,-1,0,2,0,8,1,,,,,"(-0.75, 0.04)",images/min1.png,9,0.0645341537893,0.678898871876,[-0.6921875  -0.27222222],,,2018_Jun_20_1251,59.7239101273,sequenceLearningTask,001,086,
min1.png,min2.png,min3.png,min4.png,images/allBlank.png,"['num_7', 'num_4', 'num_1', 'num_0']",['num_4'],num_4,[2],'num_4',images/min2.png,"[(0.45, 0.79)]",,,,,0,-1,-1,0,2,0,8,1,,,,,"(-0.75, 0.04)",images/min1.png,9,0.0570863592438,0.684810256585,[-0.6234375 -0.225    ],,,2018_Jun_20_1251,59.7239101273,sequenceLearningTask,001,086,
min1.png,min2.png,min3.png,min4.png,images/allBlank.png,"['num_7', 'num_4', 'num_1', 'num_0']",['num_0'],num_0,[4],'num_0',images/min4.png,"[(0.45, 0.79)]",,,,,0,-1,-1,0,2,1,9,3,,,,,"(-0.75, 0.04)",images/min1.png,10,0.0551478974521,0.850175179541,[-0.5890625  -0.15833333],,,2018_Jun_20_1251,59.7239101273,sequenceLearningTask,001,086,
min1.png,min2.png,min3.png,min4.png,images/allBlank.png,"['num_7', 'num_4', 'num_1', 'num_0']",['num_0'],num_0,[4],'num_0',images/min4.png,"[(0.45, 0.79)]",,,,,0,-1,-1,0,2,1,9,3,,,,,"(-0.25, 0.04)",images/min2.png,10,0.0605526152067,0.564897230361,[-0.6203125  -0.21111111],,,2018_Jun_20_1251,59.7239101273,sequenceLearningTask,001,086,
min1.png,min2.png,min3.png,min4.png,images/allBlank.png,"['num_7', 'num_4', 'num_1', 'num_0']",['num_0'],num_0,[4],'num_0',images/min4.png,"[(0.45, 0.79)]",,,,,0,-1,-1,0,2,1,9,3,,,,,"(-0.25, 0.04)",images/min2.png,10,0.0633464613929,0.546540307812,[-0.109375   -0.12777778],,,2018_Jun_20_1251,59.7239101273,sequenceLearningTask,001,086,
min1.png,min2.png,min3.png,min4.png,images/allBlank.png,"['num_7', 'num_4', 'num_1', 'num_0']",['num_0'],num_0,[4],'num_0',images/min4.png,"[(0.45, 0.79)]",,,,,0,-1,-1,0,2,1,9,3,,,,,"(-0.25, 0.04)",images/min2.png,10,0.0557563076727,0.434784000274,[-0.1015625  -0.24166667],,,2018_Jun_20_1251,59.7239101273,sequenceLearningTask,001,086,
min1.png,min2.png,min3.png,min4.png,images/allBlank.png,"['num_7', 'num_4', 'num_1', 'num_0']",['num_7'],num_7,[1],'num_7',images/min1.png,"[(0.45, 0.79)]",,,,,0,-1,-1,0,2,2,10,0,,,,,"(-0.25, 0.04)",images/min2.png,11,0.0547864614055,0.449344820343,[-0.0859375  -0.24166667],,,2018_Jun_20_1251,59.7239101273,sequenceLearningTask,001,086,
min1.png,min2.png,min3.png,min4.png,images/allBlank.png,"['num_7', 'num_4', 'num_1', 'num_0']",['num_7'],num_7,[1],'num_7',images/min1.png,"[(0.45, 0.79)]",,,,,0,-1,-1,0,2,2,10,0,,,,,"(-0.25, 0.04)",images/min2.png,11,0.0572484103031,0.433077333495,[-0.0703125  -0.26944444],,,2018_Jun_20_1251,59.7239101273,sequenceLearningTask,001,086,
min1.png,min2.png,min3.png,min4.png,images/allBlank.png,"['num_7', 'num_4', 'num_1', 'num_0']",['num_7'],num_7,[1],'num_7',images/min1.png,"[(0.45, 0.79)]",,,,,0,-1,-1,0,2,2,10,0,,,,,"(0.25, 0.04)",images/min3.png,11,0.0588537435979,0.751215589698,[-0.0734375  -0.28333333],,,2018_Jun_20_1251,59.7239101273,sequenceLearningTask,001,086,
min1.png,min2.png,min3.png,min4.png,images/allBlank.png,"['num_7', 'num_4', 'num_1', 'num_0']",['num_7'],num_7,[1],'num_7',images/min1.png,"[(0.45, 0.79)]",,,,,0,-1,-1,0,2,2,10,0,,,,,"(-0.25, 0.04)",images/min2.png,11,0.0673099486157,0.701799794566,[ 0.184375   -0.18611111],,,2018_Jun_20_1251,59.7239101273,sequenceLearningTask,001,086,
min1.png,min2.png,min3.png,min4.png,images/allBlank.png,"['num_7', 'num_4', 'num_1', 'num_0']",['num_1'],num_1,[3],'num_1',images/min3.png,"[(0.45, 0.79)]",,,,,0,-1,-1,0,2,3,11,2,,,,,"(-0.75, 0.04)",images/min1.png,12,0.0597181534395,0.77845046157,[-0.19375    -0.29444444],,,2018_Jun_20_1251,59.7239101273,sequenceLearningTask,001,086,
min1.png,min2.png,min3.png,min4.png,images/allBlank.png,"['num_7', 'num_4', 'num_1', 'num_0']",['num_1'],num_1,[3],'num_1',images/min3.png,"[(0.45, 0.79)]",,,,,0,-1,-1,0,2,3,11,2,,,,,"(0.25, 0.04)",images/min3.png,12,0.0564180510119,0.503524512984,[-0.6921875  -0.25833333],,,2018_Jun_20_1251,59.7239101273,sequenceLearningTask,001,086,
min1.png,min2.png,min3.png,min4.png,images/allBlank.png,"['num_7', 'num_4', 'num_1', 'num_0']",['num_1'],num_1,[3],'num_1',images/min3.png,"[(0.45, 0.79)]",,,,,0,-1,-1,0,2,3,11,2,,,,,"(0.75, 0.04)",images/min4.png,12,0.0585739486851,0.665364513174,[ 0.3171875  -0.25277778],,,2018_Jun_20_1251,59.7239101273,sequenceLearningTask,001,086,
min1.png,min2.png,min3.png,min4.png,images/allBlank.png,"['num_7', 'num_4', 'num_1', 'num_0']",['num_1'],num_1,[3],'num_1',images/min3.png,"[(0.45, 0.79)]",,,,,0,-1,-1,0,2,3,11,2,,,,,"(0.25, 0.04)",images/min3.png,12,0.0534949745052,1.14015671797,[ 0.7671875  -0.28611111],,,2018_Jun_20_1251,59.7239101273,sequenceLearningTask,001,086,
min1.png,min2.png,min3.png,min4.png,images/allBlank.png,"['num_7', 'num_4', 'num_1', 'num_0']",['num_4'],num_4,[2],'num_4',images/min2.png,"[(0.45, 0.79)]",,,,,0,-1,-1,0,3,0,12,1,,,,,"(0.75, 0.04)",images/min4.png,13,0.0574867692776,0.564218256623,[ 0.340625   -0.21944444],,,2018_Jun_20_1251,59.7239101273,sequenceLearningTask,001,086,
min1.png,min2.png,min3.png,min4.png,images/allBlank.png,"['num_7', 'num_4', 'num_1', 'num_0']",['num_4'],num_4,[2],'num_4',images/min2.png,"[(0.45, 0.79)]",,,,,0,-1,-1,0,3,0,12,1,,,,,"(-0.25, 0.04)",images/min2.png,13,0.0621341541409,0.710784410127,[ 0.7671875  -0.20277778],,,2018_Jun_20_1251,59.7239101273,sequenceLearningTask,001,086,
min1.png,min2.png,min3.png,min4.png,images/allBlank.png,"['num_7', 'num_4', 'num_1', 'num_0']",['num_4'],num_4,[2],'num_4',images/min2.png,"[(0.45, 0.79)]",,,,,0,-1,-1,0,3,0,12,1,,,,,"(-0.25, 0.04)",images/min2.png,13,0.0561374360695,0.703123692423,[-0.1859375  -0.15833333],,,2018_Jun_20_1251,59.7239101273,sequenceLearningTask,001,086,
min1.png,min2.png,min3.png,min4.png,images/allBlank.png,"['num_7', 'num_4', 'num_1', 'num_0']",['num_4'],num_4,[2],'num_4',images/min2.png,"[(0.45, 0.79)]",,,,,0,-1,-1,0,3,0,12,1,,,,,"(0.75, 0.04)",images/min4.png,13,0.059656615369,0.565324307885,[-0.1609375 -0.125    ],,,2018_Jun_20_1251,59.7239101273,sequenceLearningTask,001,086,
min1.png,min2.png,min3.png,min4.png,images/allBlank.png,"['num_7', 'num_4', 'num_1', 'num_0']",['num_7'],num_7,[1],'num_7',images/min1.png,"[(0.45, 0.79)]",,,,,0,-1,-1,0,3,1,13,0,,,,,"(0.25, 0.04)",images/min3.png,14,0.0560262561776,0.526568615343,[ 0.6390625  -0.18611111],,,2018_Jun_20_1251,59.7239101273,sequenceLearningTask,001,086,
min1.png,min2.png,min3.png,min4.png,images/allBlank.png,"['num_7', 'num_4', 'num_1', 'num_0']",['num_7'],num_7,[1],'num_7',images/min1.png,"[(0.45, 0.79)]",,,,,0,-1,-1,0,3,1,13,0,,,,,"(0.25, 0.04)",images/min3.png,14,0.0666925129481,0.54069210263,[ 0.259375   -0.26388889],,,2018_Jun_20_1251,59.7239101273,sequenceLearningTask,001,086,
min1.png,min2.png,min3.png,min4.png,images/allBlank.png,"['num_7', 'num_4', 'num_1', 'num_0']",['num_7'],num_7,[1],'num_7',images/min1.png,"[(0.45, 0.79)]",,,,,0,-1,-1,0,3,1,13,0,,,,,"(0.75, 0.04)",images/min4.png,14,0.0551495384425,0.619716512971,[ 0.3515625  -0.26666667],,,2018_Jun_20_1251,59.7239101273,sequenceLearningTask,001,086,
min1.png,min2.png,min3.png,min4.png,images/allBlank.png,"['num_7', 'num_4', 'num_1', 'num_0']",['num_7'],num_7,[1],'num_7',images/min1.png,"[(0.45, 0.79)]",,,,,0,-1,-1,0,3,1,13,0,,,,,"(-0.25, 0.04)",images/min2.png,14,0.052821743302,0.703058461659,[ 0.8140625  -0.14722222],,,2018_Jun_20_1251,59.7239101273,sequenceLearningTask,001,086,
min1.png,min2.png,min3.png,min4.png,images/allBlank.png,"['num_7', 'num_4', 'num_1', 'num_0']",['num_1'],num_1,[3],'num_1',images/min3.png,"[(0.45, 0.79)]",,,,,0,-1,-1,0,3,2,14,2,,,,,"(0.75, 0.04)",images/min4.png,15,0.0595224616118,0.512013948523,[-0.1421875  -0.26944444],,,2018_Jun_20_1251,59.7239101273,sequenceLearningTask,001,086,
min1.png,min2.png,min3.png,min4.png,images/allBlank.png,"['num_7', 'num_4', 'num_1', 'num_0']",['num_1'],num_1,[3],'num_1',images/min3.png,"[(0.45, 0.79)]",,,,,0,-1,-1,0,3,2,14,2,,,,,"(0.75, 0.04)",images/min4.png,15,0.0630379486829,0.477308718022,[ 0.7828125  -0.19722222],,,2018_Jun_20_1251,59.7239101273,sequenceLearningTask,001,086,
min1.png,min2.png,min3.png,min4.png,images/allBlank.png,"['num_7', 'num_4', 'num_1', 'num_0']",['num_1'],num_1,[3],'num_1',images/min3.png,"[(0.45, 0.79)]",,,,,0,-1,-1,0,3,2,14,2,,,,,"(0.25, 0.04)",images/min3.png,15,0.0568315899,0.601311589591,[ 0.7546875  -0.24722222],,,2018_Jun_20_1251,59.7239101273,sequenceLearningTask,001,086,
min1.png,min2.png,min3.png,min4.png,images/allBlank.png,"['num_7', 'num_4', 'num_1', 'num_0']",['num_1'],num_1,[3],'num_1',images/min3.png,"[(0.45, 0.79)]",,,,,0,-1,-1,0,3,2,14,2,,,,,"(0.75, 0.04)",images/min4.png,15,0.0580184618011,0.583374769427,[ 0.2765625  -0.28888889],,,2018_Jun_20_1251,59.7239101273,sequenceLearningTask,001,086,
min1.png,min2.png,min3.png,min4.png,images/allBlank.png,"['num_7', 'num_4', 'num_1', 'num_0']",['num_0'],num_0,[4],'num_0',images/min4.png,"[(0.45, 0.79)]",,,,,0,-1,-1,0,3,3,15,3,,,,,"(-0.25, 0.04)",images/min2.png,16,0.0531273847446,0.703021128196,[ 0.7671875  -0.13333333],,,2018_Jun_20_1251,59.7239101273,sequenceLearningTask,001,086,
min1.png,min2.png,min3.png,min4.png,images/allBlank.png,"['num_7', 'num_4', 'num_1', 'num_0']",['num_0'],num_0,[4],'num_0',images/min4.png,"[(0.45, 0.79)]",,,,,0,-1,-1,0,3,3,15,3,,,,,"(-0.25, 0.04)",images/min2.png,16,0.0576250259764,0.651430974714,[-0.15       -0.31388889],,,2018_Jun_20_1251,59.7239101273,sequenceLearningTask,001,086,
min1.png,min2.png,min3.png,min4.png,images/allBlank.png,"['num_7', 'num_4', 'num_1', 'num_0']",['num_0'],num_0,[4],'num_0',images/min4.png,"[(0.45, 0.79)]",,,,,0,-1,-1,0,3,3,15,3,,,,,"(0.75, 0.04)",images/min4.png,16,0.0584722054191,0.599120410625,[-0.103125   -0.30277778],,,2018_Jun_20_1251,59.7239101273,sequenceLearningTask,001,086,
min1.png,min2.png,min3.png,min4.png,images/allBlank.png,"['num_7', 'num_4', 'num_1', 'num_0']",['num_0'],num_0,[4],'num_0',images/min4.png,"[(0.45, 0.79)]",,,,,0,-1,-1,0,3,3,15,3,,,,,"(0.75, 0.04)",images/min4.png,16,0.0583487180993,0.501558974385,[ 0.6921875  -0.23888889],,,2018_Jun_20_1251,59.7239101273,sequenceLearningTask,001,086,
min1.png,min2.png,min3.png,min4.png,images/allBlank.png,"['num_7', 'num_4', 'num_1', 'num_0']",['num_1'],num_1,[3],'num_1',images/min3.png,"[(0.45, 0.79)]",,,,,0,-1,-1,0,4,0,16,2,,,,,"(0.75, 0.04)",images/min4.png,17,0.0526613332331,0.406252307352,[ 0.6921875 -0.275    ],,,2018_Jun_20_1251,59.7239101273,sequenceLearningTask,001,086,
min1.png,min2.png,min3.png,min4.png,images/allBlank.png,"['num_7', 'num_4', 'num_1', 'num_0']",['num_1'],num_1,[3],'num_1',images/min3.png,"[(0.45, 0.79)]",,,,,0,-1,-1,0,4,0,16,2,,,,,"(-0.75, 0.04)",images/min1.png,17,0.0615027695894,1.95410379488,[ 0.7015625  -0.31388889],0.848122256342,1,2018_Jun_20_1251,59.7239101273,sequenceLearningTask,001,086,
min1.png,min2.png,min3.png,min4.png,images/allBlank.png,"['num_7', 'num_4', 'num_1', 'num_0']",['num_1'],num_1,[3],'num_1',images/min3.png,"[(0.45, 0.79)]",,,,,0,-1,-1,0,4,0,16,2,,,,,"(-0.75, 0.04)",images/min1.png,17,0.0519561027177,0.707538051065,[-0.6671875  -0.14444444],,,2018_Jun_20_1251,59.7239101273,sequenceLearningTask,001,086,
min1.png,min2.png,min3.png,min4.png,images/allBlank.png,"['num_7', 'num_4', 'num_1', 'num_0']",['num_1'],num_1,[3],'num_1',images/min3.png,"[(0.45, 0.79)]",,,,,0,-1,-1,0,4,0,16,2,,,,,"(0.75, 0.04)",images/min4.png,17,0.0571433845907,0.432306461502,[-0.7328125  -0.11388889],,,2018_Jun_20_1251,59.7239101273,sequenceLearningTask,001,086,
min1.png,min2.png,min3.png,min4.png,images/allBlank.png,"['num_7', 'num_4', 'num_1', 'num_0']",['num_7'],num_7,[1],'num_7',images/min1.png,"[(0.45, 0.79)]",,,,,0,-1,-1,0,4,1,17,0,,,,,"(0.75, 0.04)",images/min4.png,18,0.0560455382802,0.500253128354,[ 0.7359375  -0.19444444],,,2018_Jun_20_1251,59.7239101273,sequenceLearningTask,001,086,
min1.png,min2.png,min3.png,min4.png,images/allBlank.png,"['num_7', 'num_4', 'num_1', 'num_0']",['num_7'],num_7,[1],'num_7',images/min1.png,"[(0.45, 0.79)]",,,,,0,-1,-1,0,4,1,17,0,,,,,"(-0.25, 0.04)",images/min2.png,18,0.0526387691498,0.78715405101,[ 0.7296875  -0.28611111],,,2018_Jun_20_1251,59.7239101273,sequenceLearningTask,001,086,
min1.png,min2.png,min3.png,min4.png,images/allBlank.png,"['num_7', 'num_4', 'num_1', 'num_0']",['num_7'],num_7,[1],'num_7',images/min1.png,"[(0.45, 0.79)]",,,,,0,-1,-1,0,4,1,17,0,,,,,"(-0.75, 0.04)",images/min1.png,18,0.057497435715,0.805521230679,[-0.19375    -0.23333333],,,2018_Jun_20_1251,59.7239101273,sequenceLearningTask,001,086,
min1.png,min2.png,min3.png,min4.png,images/allBlank.png,"['num_7', 'num_4', 'num_1', 'num_0']",['num_7'],num_7,[1],'num_7',images/min1.png,"[(0.45, 0.79)]",,,,,0,-1,-1,0,4,1,17,0,,,,,"(-0.25, 0.04)",images/min2.png,18,0.0517415381037,3.19577271817,[-0.6921875 -0.275    ],1.2585489233,1,2018_Jun_20_1251,59.7239101273,sequenceLearningTask,001,086,
min1.png,min2.png,min3.png,min4.png,images/allBlank.png,"['num_7', 'num_4', 'num_1', 'num_0']",['num_0'],num_0,[4],'num_0',images/min4.png,"[(0.45, 0.79)]",,,,,0,-1,-1,0,4,2,18,3,,,,,"(0.25, 0.04)",images/min3.png,19,0.0698223588988,0.619073641021,[-0.2515625  -0.13611111],,,2018_Jun_20_1251,59.7239101273,sequenceLearningTask,001,086,
min1.png,min2.png,min3.png,min4.png,images/allBlank.png,"['num_7', 'num_4', 'num_1', 'num_0']",['num_0'],num_0,[4],'num_0',images/min4.png,"[(0.45, 0.79)]",,,,,0,-1,-1,0,4,2,18,3,,,,,"(0.75, 0.04)",images/min4.png,19,0.056390974205,0.669536000118,[ 0.3046875 -0.325    ],,,2018_Jun_20_1251,59.7239101273,sequenceLearningTask,001,086,
min1.png,min2.png,min3.png,min4.png,images/allBlank.png,"['num_7', 'num_4', 'num_1', 'num_0']",['num_0'],num_0,[4],'num_0',images/min4.png,"[(0.45, 0.79)]",,,,,0,-1,-1,0,4,2,18,3,,,,,"(-0.75, 0.04)",images/min1.png,19,0.0579314869829,0.768868923187,[ 0.7375     -0.06388889],,,2018_Jun_20_1251,59.7239101273,sequenceLearningTask,001,086,
min1.png,min2.png,min3.png,min4.png,images/allBlank.png,"['num_7', 'num_4', 'num_1', 'num_0']",['num_0'],num_0,[4],'num_0',images/min4.png,"[(0.45, 0.79)]",,,,,0,-1,-1,0,4,2,18,3,,,,,"(0.25, 0.04)",images/min3.png,19,0.0549497436732,0.705343589652,[-0.6875 -0.25  ],,,2018_Jun_20_1251,59.7239101273,sequenceLearningTask,001,086,
min1.png,min2.png,min3.png,min4.png,images/allBlank.png,"['num_7', 'num_4', 'num_1', 'num_0']",['num_4'],num_4,[2],'num_4',images/min2.png,"[(0.45, 0.79)]",,,,,0,-1,-1,0,4,3,19,1,,,,,"(-0.25, 0.04)",images/min2.png,20,0.0573353846557,0.732150153723,[ 0.3796875  -0.24166667],,,2018_Jun_20_1251,59.7239101273,sequenceLearningTask,001,086,
min1.png,min2.png,min3.png,min4.png,images/allBlank.png,"['num_7', 'num_4', 'num_1', 'num_0']",['num_4'],num_4,[2],'num_4',images/min2.png,"[(0.45, 0.79)]",,,,,0,-1,-1,0,4,3,19,1,,,,,"(-0.75, 0.04)",images/min1.png,20,0.0568832820281,0.663868718315,[-0.1203125  -0.21388889],,,2018_Jun_20_1251,59.7239101273,sequenceLearningTask,001,086,
min1.png,min2.png,min3.png,min4.png,images/allBlank.png,"['num_7', 'num_4', 'num_1', 'num_0']",['num_4'],num_4,[2],'num_4',images/min2.png,"[(0.45, 0.79)]",,,,,0,-1,-1,0,4,3,19,1,,,,,"(0.25, 0.04)",images/min3.png,20,0.0585444103926,0.631926153786,[-0.66875    -0.20833333],,,2018_Jun_20_1251,59.7239101273,sequenceLearningTask,001,086,
min1.png,min2.png,min3.png,min4.png,images/allBlank.png,"['num_7', 'num_4', 'num_1', 'num_0']",['num_4'],num_4,[2],'num_4',images/min2.png,"[(0.45, 0.79)]",,,,,0,-1,-1,0,4,3,19,1,,,,,"(-0.25, 0.04)",images/min2.png,20,0.063583179377,0.628293743823,[ 0.4265625  -0.27777778],,,2018_Jun_20_1251,59.7239101273,sequenceLearningTask,001,086,
min1.png,min2.png,min3.png,min4.png,images/allBlank.png,"['num_7', 'num_4', 'num_1', 'num_0']",['num_7'],num_7,[1],'num_7',images/min1.png,"[(0.45, 0.79)]",,,,,0,-1,-1,0,0,0,0,0,,,,,"(-0.25, 0.04)",images/min2.png,1,0.0310125132091,0.62461907696,[-0.121875   -0.23055556],,,2018_Jun_20_1251,59.7239101273,sequenceLearningTask,001,086,
min1.png,min2.png,min3.png,min4.png,images/allBlank.png,"['num_7', 'num_4', 'num_1', 'num_0']",['num_7'],num_7,[1],'num_7',images/min1.png,"[(0.45, 0.79)]",,,,,0,-1,-1,0,0,0,0,0,,,,,"(0.75, 0.04)",images/min4.png,1,0.0582617437467,0.396726153791,[-0.1765625  -0.21388889],,,2018_Jun_20_1251,59.7239101273,sequenceLearningTask,001,086,
min1.png,min2.png,min3.png,min4.png,images/allBlank.png,"['num_7', 'num_4', 'num_1', 'num_0']",['num_7'],num_7,[1],'num_7',images/min1.png,"[(0.45, 0.79)]",,,,,0,-1,-1,0,0,0,0,0,,,,,"(0.75, 0.04)",images/min4.png,1,0.0430736406706,0.417379282415,[ 0.746875   -0.22222222],,,2018_Jun_20_1251,59.7239101273,sequenceLearningTask,001,086,
min1.png,min2.png,min3.png,min4.png,images/allBlank.png,"['num_7', 'num_4', 'num_1', 'num_0']",['num_7'],num_7,[1],'num_7',images/min1.png,"[(0.45, 0.79)]",,,,,0,-1,-1,0,0,0,0,0,,,,,"(-0.25, 0.04)",images/min2.png,1,0.0598859484307,0.548679795116,[ 0.665625   -0.11944444],,,2018_Jun_20_1251,59.7239101273,sequenceLearningTask,001,086,
min1.png,min2.png,min3.png,min4.png,images/allBlank.png,"['num_7', 'num_4', 'num_1', 'num_0']",['num_0'],num_0,[4],'num_0',images/min4.png,"[(0.45, 0.79)]",,,,,0,-1,-1,0,0,1,1,3,,,,,"(-0.75, 0.04)",images/min1.png,2,0.0645362050273,0.65842707688,[-0.1828125  -0.26111111],,,2018_Jun_20_1251,59.7239101273,sequenceLearningTask,001,086,
min1.png,min2.png,min3.png,min4.png,images/allBlank.png,"['num_7', 'num_4', 'num_1', 'num_0']",['num_0'],num_0,[4],'num_0',images/min4.png,"[(0.45, 0.79)]",,,,,0,-1,-1,0,0,1,1,3,,,,,"(0.25, 0.04)",images/min3.png,2,0.0516787692904,0.556220717728,[-0.6953125  -0.23055556],,,2018_Jun_20_1251,59.7239101273,sequenceLearningTask,001,086,
min1.png,min2.png,min3.png,min4.png,images/allBlank.png,"['num_7', 'num_4', 'num_1', 'num_0']",['num_0'],num_0,[4],'num_0',images/min4.png,"[(0.45, 0.79)]",,,,,0,-1,-1,0,0,1,1,3,,,,,"(-0.25, 0.04)",images/min2.png,2,0.0586121026427,0.548602666706,[ 0.3359375  -0.31388889],,,2018_Jun_20_1251,59.7239101273,sequenceLearningTask,001,086,
min1.png,min2.png,min3.png,min4.png,images/allBlank.png,"['num_7', 'num_4', 'num_1', 'num_0']",['num_0'],num_0,[4],'num_0',images/min4.png,"[(0.45, 0.79)]",,,,,0,-1,-1,0,0,1,1,3,,,,,"(-0.75, 0.04)",images/min1.png,2,0.0577940512449,0.753464615438,[-0.2140625  -0.29722222],,,2018_Jun_20_1251,59.7239101273,sequenceLearningTask,001,086,
min1.png,min2.png,min3.png,min4.png,images/allBlank.png,"['num_7', 'num_4', 'num_1', 'num_0']",['num_1'],num_1,[3],'num_1',images/min3.png,"[(0.45, 0.79)]",,,,,0,-1,-1,0,0,2,2,2,,,,,"(0.25, 0.04)",images/min3.png,3,0.0584603073075,0.445346871857,[-0.6390625  -0.18055556],,,2018_Jun_20_1251,59.7239101273,sequenceLearningTask,001,086,
min1.png,min2.png,min3.png,min4.png,images/allBlank.png,"['num_7', 'num_4', 'num_1', 'num_0']",['num_1'],num_1,[3],'num_1',images/min3.png,"[(0.45, 0.79)]",,,,,0,-1,-1,0,0,2,2,2,,,,,"(0.25, 0.04)",images/min3.png,3,0.0587659487501,0.412521846127,[ 0.31875    -0.21111111],,,2018_Jun_20_1251,59.7239101273,sequenceLearningTask,001,086,
min1.png,min2.png,min3.png,min4.png,images/allBlank.png,"['num_7', 'num_4', 'num_1', 'num_0']",['num_1'],num_1,[3],'num_1',images/min3.png,"[(0.45, 0.79)]",,,,,0,-1,-1,0,0,2,2,2,,,,,"(-0.75, 0.04)",images/min1.png,3,0.0563815385103,0.753178666346,[ 0.3859375  -0.30277778],,,2018_Jun_20_1251,59.7239101273,sequenceLearningTask,001,086,
min1.png,min2.png,min3.png,min4.png,images/allBlank.png,"['num_7', 'num_4', 'num_1', 'num_0']",['num_1'],num_1,[3],'num_1',images/min3.png,"[(0.45, 0.79)]",,,,,0,-1,-1,0,0,2,2,2,,,,,"(0.75, 0.04)",images/min4.png,3,0.0441710771993,1.40386502538,[-0.6203125  -0.23888889],,,2018_Jun_20_1251,59.7239101273,sequenceLearningTask,001,086,
min1.png,min2.png,min3.png,min4.png,images/allBlank.png,"['num_7', 'num_4', 'num_1', 'num_0']",['num_4'],num_4,[2],'num_4',images/min2.png,"[(0.45, 0.79)]",,,,,0,-1,-1,0,0,3,3,1,,,,,"(-0.25, 0.04)",images/min2.png,4,0.0566121023148,0.546821333468,[ 0.8203125  -0.26388889],,,2018_Jun_20_1251,59.7239101273,sequenceLearningTask,001,086,
min1.png,min2.png,min3.png,min4.png,images/allBlank.png,"['num_7', 'num_4', 'num_1', 'num_0']",['num_4'],num_4,[2],'num_4',images/min2.png,"[(0.45, 0.79)]",,,,,0,-1,-1,0,0,3,3,1,,,,,"(-0.25, 0.04)",images/min2.png,4,0.0561920003965,0.519477743655,[-0.1234375  -0.18611111],,,2018_Jun_20_1251,59.7239101273,sequenceLearningTask,001,086,
min1.png,min2.png,min3.png,min4.png,images/allBlank.png,"['num_7', 'num_4', 'num_1', 'num_0']",['num_4'],num_4,[2],'num_4',images/min2.png,"[(0.45, 0.79)]",,,,,0,-1,-1,0,0,3,3,1,,,,,"(0.25, 0.04)",images/min3.png,4,0.0581091279164,0.514222769532,[-0.09375    -0.21944444],,,2018_Jun_20_1251,59.7239101273,sequenceLearningTask,001,086,
min1.png,min2.png,min3.png,min4.png,images/allBlank.png,"['num_7', 'num_4', 'num_1', 'num_0']",['num_4'],num_4,[2],'num_4',images/min2.png,"[(0.45, 0.79)]",,,,,0,-1,-1,0,0,3,3,1,,,,,"(-0.25, 0.04)",images/min2.png,4,0.0619839997962,0.527151589748,[ 0.25       -0.22222222],,,2018_Jun_20_1251,59.7239101273,sequenceLearningTask,001,086,
min1.png,min2.png,min3.png,min4.png,images/allBlank.png,"['num_7', 'num_4', 'num_1', 'num_0']",['num_0'],num_0,[4],'num_0',images/min4.png,"[(0.45, 0.79)]",,,,,0,-1,-1,0,1,0,4,3,,,,,"(-0.75, 0.04)",images/min1.png,5,0.0663983589038,0.604130051099,[-0.1265625  -0.19722222],,,2018_Jun_20_1251,59.7239101273,sequenceLearningTask,001,086,
min1.png,min2.png,min3.png,min4.png,images/allBlank.png,"['num_7', 'num_4', 'num_1', 'num_0']",['num_0'],num_0,[4],'num_0',images/min4.png,"[(0.45, 0.79)]",,,,,0,-1,-1,0,1,0,4,3,,,,,"(-0.75, 0.04)",images/min1.png,5,0.0568795897998,0.569168410264,[-0.6984375  -0.21666667],,,2018_Jun_20_1251,59.7239101273,sequenceLearningTask,001,086,
min1.png,min2.png,min3.png,min4.png,images/allBlank.png,"['num_7', 'num_4', 'num_1', 'num_0']",['num_0'],num_0,[4],'num_0',images/min4.png,"[(0.45, 0.79)]",,,,,0,-1,-1,0,1,0,4,3,,,,,"(-0.25, 0.04)",images/min2.png,5,0.0733263590373,0.520630564075,[-0.609375   -0.21388889],,,2018_Jun_20_1251,59.7239101273,sequenceLearningTask,001,086,
min1.png,min2.png,min3.png,min4.png,images/allBlank.png,"['num_7', 'num_4', 'num_1', 'num_0']",['num_0'],num_0,[4],'num_0',images/min4.png,"[(0.45, 0.79)]",,,,,0,-1,-1,0,1,0,4,3,,,,,"(-0.25, 0.04)",images/min2.png,5,0.0691786664538,0.555702563841,[-0.1265625   0.00833333],,,2018_Jun_20_1251,59.7239101273,sequenceLearningTask,001,086,
min1.png,min2.png,min3.png,min4.png,images/allBlank.png,"['num_7', 'num_4', 'num_1', 'num_0']",['num_7'],num_7,[1],'num_7',images/min1.png,"[(0.45, 0.79)]",,,,,0,-1,-1,0,1,1,5,0,,,,,"(0.25, 0.04)",images/min3.png,6,0.056129230652,0.496979282238,[-0.1453125  -0.34166667],,,2018_Jun_20_1251,59.7239101273,sequenceLearningTask,001,086,
min1.png,min2.png,min3.png,min4.png,images/allBlank.png,"['num_7', 'num_4', 'num_1', 'num_0']",['num_7'],num_7,[1],'num_7',images/min1.png,"[(0.45, 0.79)]",,,,,0,-1,-1,0,1,1,5,0,,,,,"(0.25, 0.04)",images/min3.png,6,0.0723257437348,0.401643897407,[ 0.2359375  -0.16944444],,,2018_Jun_20_1251,59.7239101273,sequenceLearningTask,001,086,
min1.png,min2.png,min3.png,min4.png,images/allBlank.png,"['num_7', 'num_4', 'num_1', 'num_0']",['num_7'],num_7,[1],'num_7',images/min1.png,"[(0.45, 0.79)]",,,,,0,-1,-1,0,1,1,5,0,,,,,"(0.75, 0.04)",images/min4.png,6,0.055299282074,0.519965128042,[ 0.271875   -0.24722222],,,2018_Jun_20_1251,59.7239101273,sequenceLearningTask,001,086,
min1.png,min2.png,min3.png,min4.png,images/allBlank.png,"['num_7', 'num_4', 'num_1', 'num_0']",['num_7'],num_7,[1],'num_7',images/min1.png,"[(0.45, 0.79)]",,,,,0,-1,-1,0,1,1,5,0,,,,,"(-0.25, 0.04)",images/min2.png,6,0.0626153848134,0.530315897427,[ 0.7578125  -0.19722222],,,2018_Jun_20_1251,59.7239101273,sequenceLearningTask,001,086,
min1.png,min2.png,min3.png,min4.png,images/allBlank.png,"['num_7', 'num_4', 'num_1', 'num_0']",['num_4'],num_4,[2],'num_4',images/min2.png,"[(0.45, 0.79)]",,,,,0,-1,-1,0,1,2,6,1,,,,,"(0.75, 0.04)",images/min4.png,7,0.0614096410573,0.523779692128,[-0.2109375  -0.25833333],,,2018_Jun_20_1251,59.7239101273,sequenceLearningTask,001,086,
min1.png,min2.png,min3.png,min4.png,images/allBlank.png,"['num_7', 'num_4', 'num_1', 'num_0']",['num_4'],num_4,[2],'num_4',images/min2.png,"[(0.45, 0.79)]",,,,,0,-1,-1,0,1,2,6,1,,,,,"(0.75, 0.04)",images/min4.png,7,0.0554084102623,0.552305230405,[ 0.671875   -0.18333333],,,2018_Jun_20_1251,59.7239101273,sequenceLearningTask,001,086,
min1.png,min2.png,min3.png,min4.png,images/allBlank.png,"['num_7', 'num_4', 'num_1', 'num_0']",['num_4'],num_4,[2],'num_4',images/min2.png,"[(0.45, 0.79)]",,,,,0,-1,-1,0,1,2,6,1,,,,,"(0.25, 0.04)",images/min3.png,7,0.0597210256383,0.451124102343,[ 0.678125   -0.18611111],,,2018_Jun_20_1251,59.7239101273,sequenceLearningTask,001,086,
min1.png,min2.png,min3.png,min4.png,images/allBlank.png,"['num_7', 'num_4', 'num_1', 'num_0']",['num_4'],num_4,[2],'num_4',images/min2.png,"[(0.45, 0.79)]",,,,,0,-1,-1,0,1,2,6,1,,,,,"(-0.75, 0.04)",images/min1.png,7,0.0627417434007,0.575871999841,[ 0.2765625  -0.18055556],,,2018_Jun_20_1251,59.7239101273,sequenceLearningTask,001,086,
min1.png,min2.png,min3.png,min4.png,images/allBlank.png,"['num_7', 'num_4', 'num_1', 'num_0']",['num_1'],num_1,[3],'num_1',images/min3.png,"[(0.45, 0.79)]",,,,,0,-1,-1,0,1,3,7,2,,,,,"(0.75, 0.04)",images/min4.png,8,0.0637989742681,0.640862769447,[-0.7265625  -0.22777778],,,2018_Jun_20_1251,59.7239101273,sequenceLearningTask,001,086,
min1.png,min2.png,min3.png,min4.png,images/allBlank.png,"['num_7', 'num_4', 'num_1', 'num_0']",['num_1'],num_1,[3],'num_1',images/min3.png,"[(0.45, 0.79)]",,,,,0,-1,-1,0,1,3,7,2,,,,,"(-0.75, 0.04)",images/min1.png,8,0.0564894359559,0.613450256176,[ 0.7671875  -0.15277778],,,2018_Jun_20_1251,59.7239101273,sequenceLearningTask,001,086,
min1.png,min2.png,min3.png,min4.png,images/allBlank.png,"['num_7', 'num_4', 'num_1', 'num_0']",['num_1'],num_1,[3],'num_1',images/min3.png,"[(0.45, 0.79)]",,,,,0,-1,-1,0,1,3,7,2,,,,,"(0.25, 0.04)",images/min3.png,8,0.0559593844227,0.418528820388,[-0.7984375  -0.23611111],,,2018_Jun_20_1251,59.7239101273,sequenceLearningTask,001,086,
min1.png,min2.png,min3.png,min4.png,images/allBlank.png,"['num_7', 'num_4', 'num_1', 'num_0']",['num_1'],num_1,[3],'num_1',images/min3.png,"[(0.45, 0.79)]",,,,,0,-1,-1,0,1,3,7,2,,,,,"(0.25, 0.04)",images/min3.png,8,0.0580418463796,0.464952204842,[ 0.2953125  -0.11944444],,,2018_Jun_20_1251,59.7239101273,sequenceLearningTask,001,086,
min1.png,min2.png,min3.png,min4.png,images/allBlank.png,"['num_7', 'num_4', 'num_1', 'num_0']",['num_4'],num_4,[2],'num_4',images/min2.png,"[(0.45, 0.79)]",,,,,0,-1,-1,0,2,0,8,1,,,,,"(0.25, 0.04)",images/min3.png,9,0.0555097437464,0.41614851309,[ 0.234375   -0.09166667],,,2018_Jun_20_1251,59.7239101273,sequenceLearningTask,001,086,
min1.png,min2.png,min3.png,min4.png,images/allBlank.png,"['num_7', 'num_4', 'num_1', 'num_0']",['num_4'],num_4,[2],'num_4',images/min2.png,"[(0.45, 0.79)]",,,,,0,-1,-1,0,2,0,8,1,,,,,"(-0.75, 0.04)",images/min1.png,9,0.0584927177988,0.768372102175,[ 0.2203125  -0.19722222],,,2018_Jun_20_1251,59.7239101273,sequenceLearningTask,001,086,
min1.png,min2.png,min3.png,min4.png,images/allBlank.png,"['num_7', 'num_4', 'num_1', 'num_0']",['num_4'],num_4,[2],'num_4',images/min2.png,"[(0.45, 0.79)]",,,,,0,-1,-1,0,2,0,8,1,,,,,"(0.75, 0.04)",images/min4.png,9,0.054864410311,1.02172635915,[-0.7203125  -0.24444444],,,2018_Jun_20_1251,59.7239101273,sequenceLearningTask,001,086,
min1.png,min2.png,min3.png,min4.png,images/allBlank.png,"['num_7', 'num_4', 'num_1', 'num_0']",['num_4'],num_4,[2],'num_4',images/min2.png,"[(0.45, 0.79)]",,,,,0,-1,-1,0,2,0,8,1,,,,,"(-0.75, 0.04)",images/min1.png,9,0.0525460513309,0.773515076842,[ 0.7390625  -0.18611111],,,2018_Jun_20_1251,59.7239101273,sequenceLearningTask,001,086,
min1.png,min2.png,min3.png,min4.png,images/allBlank.png,"['num_7', 'num_4', 'num_1', 'num_0']",['num_1'],num_1,[3],'num_1',images/min3.png,"[(0.45, 0.79)]",,,,,0,-1,-1,0,2,1,9,2,,,,,"(-0.25, 0.04)",images/min2.png,10,0.0629595895298,0.69453374343,[-0.7        -0.21666667],,,2018_Jun_20_1251,59.7239101273,sequenceLearningTask,001,086,
min1.png,min2.png,min3.png,min4.png,images/allBlank.png,"['num_7', 'num_4', 'num_1', 'num_0']",['num_1'],num_1,[3],'num_1',images/min3.png,"[(0.45, 0.79)]",,,,,0,-1,-1,0,2,1,9,2,,,,,"(0.75, 0.04)",images/min4.png,10,0.0489156921394,0.613209025469,[-0.19375    -0.29722222],,,2018_Jun_20_1251,59.7239101273,sequenceLearningTask,001,086,
min1.png,min2.png,min3.png,min4.png,images/allBlank.png,"['num_7', 'num_4', 'num_1', 'num_0']",['num_1'],num_1,[3],'num_1',images/min3.png,"[(0.45, 0.79)]",,,,,0,-1,-1,0,2,1,9,2,,,,,"(-0.25, 0.04)",images/min2.png,10,0.0583150768653,0.748629333451,[ 0.7421875  -0.24166667],,,2018_Jun_20_1251,59.7239101273,sequenceLearningTask,001,086,
min1.png,min2.png,min3.png,min4.png,images/allBlank.png,"['num_7', 'num_4', 'num_1', 'num_0']",['num_1'],num_1,[3],'num_1',images/min3.png,"[(0.45, 0.79)]",,,,,0,-1,-1,0,2,1,9,2,,,,,"(0.75, 0.04)",images/min4.png,10,0.061391999945,0.496089846361,[-0.1296875  -0.26944444],,,2018_Jun_20_1251,59.7239101273,sequenceLearningTask,001,086,
min1.png,min2.png,min3.png,min4.png,images/allBlank.png,"['num_7', 'num_4', 'num_1', 'num_0']",['num_7'],num_7,[1],'num_7',images/min1.png,"[(0.45, 0.79)]",,,,,0,-1,-1,0,2,2,10,0,,,,,"(-0.75, 0.04)",images/min1.png,11,0.0585115896538,0.734824204817,[ 0.74375    -0.30555556],,,2018_Jun_20_1251,59.7239101273,sequenceLearningTask,001,086,
min1.png,min2.png,min3.png,min4.png,images/allBlank.png,"['num_7', 'num_4', 'num_1', 'num_0']",['num_7'],num_7,[1],'num_7',images/min1.png,"[(0.45, 0.79)]",,,,,0,-1,-1,0,2,2,10,0,,,,,"(0.75, 0.04)",images/min4.png,11,0.059291487094,0.788656410296,[-0.7328125  -0.24722222],,,2018_Jun_20_1251,59.7239101273,sequenceLearningTask,001,086,
min1.png,min2.png,min3.png,min4.png,images/allBlank.png,"['num_7', 'num_4', 'num_1', 'num_0']",['num_7'],num_7,[1],'num_7',images/min1.png,"[(0.45, 0.79)]",,,,,0,-1,-1,0,2,2,10,0,,,,,"(-0.25, 0.04)",images/min2.png,11,0.0557087180205,0.684369641356,[ 0.759375   -0.13055556],,,2018_Jun_20_1251,59.7239101273,sequenceLearningTask,001,086,
min1.png,min2.png,min3.png,min4.png,images/allBlank.png,"['num_7', 'num_4', 'num_1', 'num_0']",['num_7'],num_7,[1],'num_7',images/min1.png,"[(0.45, 0.79)]",,,,,0,-1,-1,0,2,2,10,0,,,,,"(-0.75, 0.04)",images/min1.png,11,0.0575273847207,1.08842174383,[-0.2484375  -0.21388889],,,2018_Jun_20_1251,59.7239101273,sequenceLearningTask,001,086,
min1.png,min2.png,min3.png,min4.png,images/allBlank.png,"['num_7', 'num_4', 'num_1', 'num_0']",['num_0'],num_0,[4],'num_0',images/min4.png,"[(0.45, 0.79)]",,,,,0,-1,-1,0,2,3,11,3,,,,,"(0.75, 0.04)",images/min4.png,12,0.058126358781,0.664832409937,[-0.6828125 -0.25     ],,,2018_Jun_20_1251,59.7239101273,sequenceLearningTask,001,086,
min1.png,min2.png,min3.png,min4.png,images/allBlank.png,"['num_7', 'num_4', 'num_1', 'num_0']",['num_0'],num_0,[4],'num_0',images/min4.png,"[(0.45, 0.79)]",,,,,0,-1,-1,0,2,3,11,3,,,,,"(-0.75, 0.04)",images/min1.png,12,0.0569415385835,0.853594256565,[ 0.6546875  -0.18611111],,,2018_Jun_20_1251,59.7239101273,sequenceLearningTask,001,086,
min1.png,min2.png,min3.png,min4.png,images/allBlank.png,"['num_7', 'num_4', 'num_1', 'num_0']",['num_0'],num_0,[4],'num_0',images/min4.png,"[(0.45, 0.79)]",,,,,0,-1,-1,0,2,3,11,3,,,,,"(-0.25, 0.04)",images/min2.png,12,0.0625230767764,0.694672410376,[-0.63125    -0.30277778],,,2018_Jun_20_1251,59.7239101273,sequenceLearningTask,001,086,
min1.png,min2.png,min3.png,min4.png,images/allBlank.png,"['num_7', 'num_4', 'num_1', 'num_0']",['num_0'],num_0,[4],'num_0',images/min4.png,"[(0.45, 0.79)]",,,,,0,-1,-1,0,2,3,11,3,,,,,"(-0.25, 0.04)",images/min2.png,12,0.0633620512672,0.792756923474,[-0.1796875  -0.25833333],,,2018_Jun_20_1251,59.7239101273,sequenceLearningTask,001,086,
min1.png,min2.png,min3.png,min4.png,images/allBlank.png,"['num_7', 'num_4', 'num_1', 'num_0']",['num_1'],num_1,[3],'num_1',images/min3.png,"[(0.45, 0.79)]",,,,,0,-1,-1,0,3,0,12,2,,,,,"(0.25, 0.04)",images/min3.png,13,0.0547856409103,0.621226256248,[-0.140625   -0.29166667],,,2018_Jun_20_1251,59.7239101273,sequenceLearningTask,001,086,
min1.png,min2.png,min3.png,min4.png,images/allBlank.png,"['num_7', 'num_4', 'num_1', 'num_0']",['num_1'],num_1,[3],'num_1',images/min3.png,"[(0.45, 0.79)]",,,,,0,-1,-1,0,3,0,12,2,,,,,"(-0.25, 0.04)",images/min2.png,13,0.06506461557,0.629549948499,[ 0.33125    -0.20833333],,,2018_Jun_20_1251,59.7239101273,sequenceLearningTask,001,086,
min1.png,min2.png,min3.png,min4.png,images/allBlank.png,"['num_7', 'num_4', 'num_1', 'num_0']",['num_1'],num_1,[3],'num_1',images/min3.png,"[(0.45, 0.79)]",,,,,0,-1,-1,0,3,0,12,2,,,,,"(0.75, 0.04)",images/min4.png,13,0.0561743588187,0.619899487123,[-0.2140625  -0.34444444],,,2018_Jun_20_1251,59.7239101273,sequenceLearningTask,001,086,
min1.png,min2.png,min3.png,min4.png,images/allBlank.png,"['num_7', 'num_4', 'num_1', 'num_0']",['num_1'],num_1,[3],'num_1',images/min3.png,"[(0.45, 0.79)]",,,,,0,-1,-1,0,3,0,12,2,,,,,"(-0.25, 0.04)",images/min2.png,13,0.0616205129772,0.663962256163,[ 0.7140625  -0.27222222],,,2018_Jun_20_1251,59.7239101273,sequenceLearningTask,001,086,
min1.png,min2.png,min3.png,min4.png,images/allBlank.png,"['num_7', 'num_4', 'num_1', 'num_0']",['num_7'],num_7,[1],'num_7',images/min1.png,"[(0.45, 0.79)]",,,,,0,-1,-1,0,3,1,13,0,,,,,"(0.25, 0.04)",images/min3.png,14,0.0628894357942,0.893170461524,[-0.184375   -0.33611111],,,2018_Jun_20_1251,59.7239101273,sequenceLearningTask,001,086,
min1.png,min2.png,min3.png,min4.png,images/allBlank.png,"['num_7', 'num_4', 'num_1', 'num_0']",['num_7'],num_7,[1],'num_7',images/min1.png,"[(0.45, 0.79)]",,,,,0,-1,-1,0,3,1,13,0,,,,,"(-0.25, 0.04)",images/min2.png,14,0.0641714874655,0.795960615389,[ 0.340625   -0.24166667],,,2018_Jun_20_1251,59.7239101273,sequenceLearningTask,001,086,
min1.png,min2.png,min3.png,min4.png,images/allBlank.png,"['num_7', 'num_4', 'num_1', 'num_0']",['num_7'],num_7,[1],'num_7',images/min1.png,"[(0.45, 0.79)]",,,,,0,-1,-1,0,3,1,13,0,,,,,"(-0.75, 0.04)",images/min1.png,14,0.0558141539805,0.838778256439,[-0.159375   -0.32777778],,,2018_Jun_20_1251,59.7239101273,sequenceLearningTask,001,086,
min1.png,min2.png,min3.png,min4.png,images/allBlank.png,"['num_7', 'num_4', 'num_1', 'num_0']",['num_7'],num_7,[1],'num_7',images/min1.png,"[(0.45, 0.79)]",,,,,0,-1,-1,0,3,1,13,0,,,,,"(-0.25, 0.04)",images/min2.png,14,0.0567023586482,0.683690666687,[-0.6203125 -0.325    ],,,2018_Jun_20_1251,59.7239101273,sequenceLearningTask,001,086,
min1.png,min2.png,min3.png,min4.png,images/allBlank.png,"['num_7', 'num_4', 'num_1', 'num_0']",['num_0'],num_0,[4],'num_0',images/min4.png,"[(0.45, 0.79)]",,,,,0,-1,-1,0,3,2,14,3,,,,,"(-0.25, 0.04)",images/min2.png,15,0.0569751793519,2.03974194871,[-0.1515625  -0.32777778],1.62332841055,1,2018_Jun_20_1251,59.7239101273,sequenceLearningTask,001,086,
min1.png,min2.png,min3.png,min4.png,images/allBlank.png,"['num_7', 'num_4', 'num_1', 'num_0']",['num_0'],num_0,[4],'num_0',images/min4.png,"[(0.45, 0.79)]",,,,,0,-1,-1,0,3,2,14,3,,,,,"(-0.75, 0.04)",images/min1.png,15,0.0564016411081,0.972562871873,[-0.2125     -0.13055556],,,2018_Jun_20_1251,59.7239101273,sequenceLearningTask,001,086,
min1.png,min2.png,min3.png,min4.png,images/allBlank.png,"['num_7', 'num_4', 'num_1', 'num_0']",['num_0'],num_0,[4],'num_0',images/min4.png,"[(0.45, 0.79)]",,,,,0,-1,-1,0,3,2,14,3,,,,,"(-0.75, 0.04)",images/min1.png,15,0.0524939489551,0.672779076733,[-0.6515625  -0.15833333],,,2018_Jun_20_1251,59.7239101273,sequenceLearningTask,001,086,
min1.png,min2.png,min3.png,min4.png,images/allBlank.png,"['num_7', 'num_4', 'num_1', 'num_0']",['num_0'],num_0,[4],'num_0',images/min4.png,"[(0.45, 0.79)]",,,,,0,-1,-1,0,3,2,14,3,,,,,"(-0.75, 0.04)",images/min1.png,15,0.0553156919777,0.573314871639,[-0.6765625  -0.11666667],,,2018_Jun_20_1251,59.7239101273,sequenceLearningTask,001,086,
min1.png,min2.png,min3.png,min4.png,images/allBlank.png,"['num_7', 'num_4', 'num_1', 'num_0']",['num_4'],num_4,[2],'num_4',images/min2.png,"[(0.45, 0.79)]",,,,,0,-1,-1,0,3,3,15,1,,,,,"(0.25, 0.04)",images/min3.png,16,0.0541345644742,0.684487384744,[-0.6984375  -0.26388889],,,2018_Jun_20_1251,59.7239101273,sequenceLearningTask,001,086,
min1.png,min2.png,min3.png,min4.png,images/allBlank.png,"['num_7', 'num_4', 'num_1', 'num_0']",['num_4'],num_4,[2],'num_4',images/min2.png,"[(0.45, 0.79)]",,,,,0,-1,-1,0,3,3,15,1,,,,,"(0.75, 0.04)",images/min4.png,16,0.0522473845631,0.405689846259,[ 0.2515625  -0.12222222],,,2018_Jun_20_1251,59.7239101273,sequenceLearningTask,001,086,
min1.png,min2.png,min3.png,min4.png,images/allBlank.png,"['num_7', 'num_4', 'num_1', 'num_0']",['num_4'],num_4,[2],'num_4',images/min2.png,"[(0.45, 0.79)]",,,,,0,-1,-1,0,3,3,15,1,,,,,"(-0.25, 0.04)",images/min2.png,16,0.0597760002129,0.497474051081,[ 0.7046875  -0.25833333],,,2018_Jun_20_1251,59.7239101273,sequenceLearningTask,001,086,
min1.png,min2.png,min3.png,min4.png,images/allBlank.png,"['num_7', 'num_4', 'num_1', 'num_0']",['num_4'],num_4,[2],'num_4',images/min2.png,"[(0.45, 0.79)]",,,,,0,-1,-1,0,3,3,15,1,,,,,"(-0.25, 0.04)",images/min2.png,16,0.0515901534818,0.438942359295,[-0.15625    -0.18888889],,,2018_Jun_20_1251,59.7239101273,sequenceLearningTask,001,086,
min1.png,min2.png,min3.png,min4.png,images/allBlank.png,"['num_7', 'num_4', 'num_1', 'num_0']",['num_4'],num_4,[2],'num_4',images/min2.png,"[(0.45, 0.79)]",,,,,0,-1,-1,0,4,0,16,1,,,,,"(0.25, 0.04)",images/min3.png,17,0.0498974360526,0.504341333639,[-0.1390625  -0.19444444],,,2018_Jun_20_1251,59.7239101273,sequenceLearningTask,001,086,
min1.png,min2.png,min3.png,min4.png,images/allBlank.png,"['num_7', 'num_4', 'num_1', 'num_0']",['num_4'],num_4,[2],'num_4',images/min2.png,"[(0.45, 0.79)]",,,,,0,-1,-1,0,4,0,16,1,,,,,"(-0.75, 0.04)",images/min1.png,17,0.0618925127201,0.628182974178,[ 0.1453125  -0.21388889],,,2018_Jun_20_1251,59.7239101273,sequenceLearningTask,001,086,
min1.png,min2.png,min3.png,min4.png,images/allBlank.png,"['num_7', 'num_4', 'num_1', 'num_0']",['num_4'],num_4,[2],'num_4',images/min2.png,"[(0.45, 0.79)]",,,,,0,-1,-1,0,4,0,16,1,,,,,"(-0.25, 0.04)",images/min2.png,17,0.0613883077167,1.11983466661,[-0.671875   -0.30555556],0.533337025903,1,2018_Jun_20_1251,59.7239101273,sequenceLearningTask,001,086,
min1.png,min2.png,min3.png,min4.png,images/allBlank.png,"['num_7', 'num_4', 'num_1', 'num_0']",['num_4'],num_4,[2],'num_4',images/min2.png,"[(0.45, 0.79)]",,,,,0,-1,-1,0,4,0,16,1,,,,,"(-0.25, 0.04)",images/min2.png,17,0.055778871756,0.636931282002,[-0.1359375  -0.17777778],,,2018_Jun_20_1251,59.7239101273,sequenceLearningTask,001,086,
min1.png,min2.png,min3.png,min4.png,images/allBlank.png,"['num_7', 'num_4', 'num_1', 'num_0']",['num_7'],num_7,[1],'num_7',images/min1.png,"[(0.45, 0.79)]",,,,,0,-1,-1,0,4,1,17,0,,,,,"(0.25, 0.04)",images/min3.png,18,0.0560028720647,0.601761230733,[-0.1453125 -0.175    ],,,2018_Jun_20_1251,59.7239101273,sequenceLearningTask,001,086,
min1.png,min2.png,min3.png,min4.png,images/allBlank.png,"['num_7', 'num_4', 'num_1', 'num_0']",['num_7'],num_7,[1],'num_7',images/min1.png,"[(0.45, 0.79)]",,,,,0,-1,-1,0,4,1,17,0,,,,,"(0.25, 0.04)",images/min3.png,18,0.0632250257768,0.426398769021,[ 0.2921875  -0.19166667],,,2018_Jun_20_1251,59.7239101273,sequenceLearningTask,001,086,
min1.png,min2.png,min3.png,min4.png,images/allBlank.png,"['num_7', 'num_4', 'num_1', 'num_0']",['num_7'],num_7,[1],'num_7',images/min1.png,"[(0.45, 0.79)]",,,,,0,-1,-1,0,4,1,17,0,,,,,"(-0.25, 0.04)",images/min2.png,18,0.0563667691313,0.716571897268,[ 0.35625    -0.25833333],,,2018_Jun_20_1251,59.7239101273,sequenceLearningTask,001,086,
min1.png,min2.png,min3.png,min4.png,images/allBlank.png,"['num_7', 'num_4', 'num_1', 'num_0']",['num_7'],num_7,[1],'num_7',images/min1.png,"[(0.45, 0.79)]",,,,,0,-1,-1,0,4,1,17,0,,,,,"(0.25, 0.04)",images/min3.png,18,0.0564324101433,0.486643692013,[-0.225      -0.21388889],,,2018_Jun_20_1251,59.7239101273,sequenceLearningTask,001,086,
min1.png,min2.png,min3.png,min4.png,images/allBlank.png,"['num_7', 'num_4', 'num_1', 'num_0']",['num_0'],num_0,[4],'num_0',images/min4.png,"[(0.45, 0.79)]",,,,,0,-1,-1,0,4,2,18,3,,,,,"(0.75, 0.04)",images/min4.png,19,0.0573009229265,0.684098461643,[ 0.2625     -0.23611111],,,2018_Jun_20_1251,59.7239101273,sequenceLearningTask,001,086,
min1.png,min2.png,min3.png,min4.png,images/allBlank.png,"['num_7', 'num_4', 'num_1', 'num_0']",['num_0'],num_0,[4],'num_0',images/min4.png,"[(0.45, 0.79)]",,,,,0,-1,-1,0,4,2,18,3,,,,,"(-0.25, 0.04)",images/min2.png,19,0.0574457435869,0.687860922888,[ 0.7796875  -0.20277778],,,2018_Jun_20_1251,59.7239101273,sequenceLearningTask,001,086,
min1.png,min2.png,min3.png,min4.png,images/allBlank.png,"['num_7', 'num_4', 'num_1', 'num_0']",['num_0'],num_0,[4],'num_0',images/min4.png,"[(0.45, 0.79)]",,,,,0,-1,-1,0,4,2,18,3,,,,,"(0.75, 0.04)",images/min4.png,19,0.0560779487714,0.484305230901,[-0.1453125  -0.29722222],,,2018_Jun_20_1251,59.7239101273,sequenceLearningTask,001,086,
min1.png,min2.png,min3.png,min4.png,images/allBlank.png,"['num_7', 'num_4', 'num_1', 'num_0']",['num_0'],num_0,[4],'num_0',images/min4.png,"[(0.45, 0.79)]",,,,,0,-1,-1,0,4,2,18,3,,,,,"(-0.75, 0.04)",images/min1.png,19,0.0616233847104,0.695871589705,[ 0.6609375  -0.21666667],,,2018_Jun_20_1251,59.7239101273,sequenceLearningTask,001,086,
min1.png,min2.png,min3.png,min4.png,images/allBlank.png,"['num_7', 'num_4', 'num_1', 'num_0']",['num_1'],num_1,[3],'num_1',images/min3.png,"[(0.45, 0.79)]",,,,,0,-1,-1,0,4,3,19,2,,,,,"(-0.75, 0.04)",images/min1.png,20,0.063376000151,0.644941538572,[-0.8203125  -0.29722222],,,2018_Jun_20_1251,59.7239101273,sequenceLearningTask,001,086,
min1.png,min2.png,min3.png,min4.png,images/allBlank.png,"['num_7', 'num_4', 'num_1', 'num_0']",['num_1'],num_1,[3],'num_1',images/min3.png,"[(0.45, 0.79)]",,,,,0,-1,-1,0,4,3,19,2,,,,,"(-0.25, 0.04)",images/min2.png,20,0.0551585638896,0.51931405114,[-0.78125    -0.31944444],,,2018_Jun_20_1251,59.7239101273,sequenceLearningTask,001,086,
min1.png,min2.png,min3.png,min4.png,images/allBlank.png,"['num_7', 'num_4', 'num_1', 'num_0']",['num_1'],num_1,[3],'num_1',images/min3.png,"[(0.45, 0.79)]",,,,,0,-1,-1,0,4,3,19,2,,,,,"(0.75, 0.04)",images/min4.png,20,0.0637911795639,0.558274461422,[-0.1953125  -0.23611111],,,2018_Jun_20_1251,59.7239101273,sequenceLearningTask,001,086,
min1.png,min2.png,min3.png,min4.png,images/allBlank.png,"['num_7', 'num_4', 'num_1', 'num_0']",['num_1'],num_1,[3],'num_1',images/min3.png,"[(0.45, 0.79)]",,,,,0,-1,-1,0,4,3,19,2,,,,,"(0.75, 0.04)",images/min4.png,20,0.0562104615383,0.567590153776,[ 0.6296875 -0.025    ],,,2018_Jun_20_1251,59.7239101273,sequenceLearningTask,001,086,
min1.png,min2.png,min3.png,min4.png,allBlank.png,"['num_7', 'num_4', 'num_1', 'num_0']",['num_1'],num_1,[3],'num_1',images/min3.png,"[(0.45, 0.79)]",,,,,0,0,0,0,4,3,19,2,,,,,"(-0.75, -0.04)",images/min1.png,1,0.0385723081417,0.701001025736,[ 0.6515625  -0.08611111],,,2018_Jun_20_1251,59.7239101273,sequenceLearningTask,001,086,
min1.png,min2.png,min3.png,min4.png,allBlank.png,"['num_7', 'num_4', 'num_1', 'num_0']",['num_1'],num_1,[3],'num_1',images/min3.png,"[(0.45, 0.79)]",,,,,0,0,0,0,4,3,19,2,,,,,"(0.25, -0.04)",images/min3.png,1,0.0594453332014,0.434210871812,[-0.7   -0.225],,,2018_Jun_20_1251,59.7239101273,sequenceLearningTask,001,086,
min1.png,min2.png,min3.png,min4.png,allBlank.png,"['num_7', 'num_4', 'num_1', 'num_0']",['num_1'],num_1,[3],'num_1',images/min3.png,"[(0.45, 0.79)]",,,,,0,0,0,0,4,3,19,2,,,,,"(-0.25, -0.04)",images/min2.png,1,0.0675614359789,0.574593640864,[ 0.2703125  -0.16388889],,,2018_Jun_20_1251,59.7239101273,sequenceLearningTask,001,086,
min1.png,min2.png,min3.png,min4.png,allBlank.png,"['num_7', 'num_4', 'num_1', 'num_0']",['num_1'],num_1,[3],'num_1',images/min3.png,"[(0.45, 0.79)]",,,,,0,0,0,0,4,3,19,2,,,,,"(0.75, -0.04)",images/min4.png,1,0.0608381535858,0.416313025635,[-0.2796875  -0.15555556],,,2018_Jun_20_1251,59.7239101273,sequenceLearningTask,001,086,
min1.png,min2.png,min3.png,min4.png,allBlank.png,"['num_7', 'num_4', 'num_1', 'num_0']",['num_1'],num_1,[3],'num_1',images/min3.png,"[(0.45, 0.79)]",,,,,0,0,0,0,4,3,19,2,,,,,"(0.75, -0.04)",images/min4.png,1,0.0623343586922,0.468926358968,[ 0.7421875 -0.225    ],,,2018_Jun_20_1251,59.7239101273,sequenceLearningTask,001,086,
min1.png,min2.png,min3.png,min4.png,allBlank.png,"['num_7', 'num_4', 'num_1', 'num_0']",['num_1'],num_1,[3],'num_1',images/min3.png,"[(0.45, 0.79)]",,,,,0,0,0,0,4,3,19,2,,,,,"(-0.25, -0.04)",images/min2.png,1,0.0478063588962,0.594180512708,[ 0.684375   -0.01388889],,,2018_Jun_20_1251,59.7239101273,sequenceLearningTask,001,086,
min1.png,min2.png,min3.png,min4.png,allBlank.png,"['num_7', 'num_4', 'num_1', 'num_0']",['num_1'],num_1,[3],'num_1',images/min3.png,"[(0.45, 0.79)]",,,,,0,0,0,0,4,3,19,2,,,,,"(0.25, -0.04)",images/min3.png,1,0.0605427692644,0.413878974505,[-0.1203125  -0.23055556],,,2018_Jun_20_1251,59.7239101273,sequenceLearningTask,001,086,
min1.png,min2.png,min3.png,min4.png,allBlank.png,"['num_7', 'num_4', 'num_1', 'num_0']",['num_1'],num_1,[3],'num_1',images/min3.png,"[(0.45, 0.79)]",,,,,0,0,0,0,4,3,19,2,,,,,"(0.75, -0.04)",images/min4.png,1,0.057100307662,0.45002666628,[ 0.290625   -0.28611111],,,2018_Jun_20_1251,59.7239101273,sequenceLearningTask,001,086,
min1.png,min2.png,min3.png,min4.png,allBlank.png,"['num_7', 'num_4', 'num_1', 'num_0']",['num_1'],num_1,[3],'num_1',images/min3.png,"[(0.45, 0.79)]",,,,,0,1,1,1,4,3,19,2,,,,,"(-0.75, -0.04)",images/min1.png,2,0.0617120000534,0.610318358988,[ 0.7453125  -0.20277778],,,2018_Jun_20_1251,59.7239101273,sequenceLearningTask,001,086,
min1.png,min2.png,min3.png,min4.png,allBlank.png,"['num_7', 'num_4', 'num_1', 'num_0']",['num_1'],num_1,[3],'num_1',images/min3.png,"[(0.45, 0.79)]",,,,,0,1,1,1,4,3,19,2,,,,,"(0.25, -0.04)",images/min3.png,2,0.0629222560674,0.427744000219,[-0.7484375  -0.25277778],,,2018_Jun_20_1251,59.7239101273,sequenceLearningTask,001,086,
min1.png,min2.png,min3.png,min4.png,allBlank.png,"['num_7', 'num_4', 'num_1', 'num_0']",['num_1'],num_1,[3],'num_1',images/min3.png,"[(0.45, 0.79)]",,,,,0,1,1,1,4,3,19,2,,,,,"(-0.25, -0.04)",images/min2.png,2,0.0593439997174,0.73574523069,[ 0.2859375  -0.19722222],,,2018_Jun_20_1251,59.7239101273,sequenceLearningTask,001,086,
min1.png,min2.png,min3.png,min4.png,allBlank.png,"['num_7', 'num_4', 'num_1', 'num_0']",['num_1'],num_1,[3],'num_1',images/min3.png,"[(0.45, 0.79)]",,,,,0,1,1,1,4,3,19,2,,,,,"(0.75, -0.04)",images/min4.png,2,0.0615803077817,0.516121025663,[-0.1359375  -0.31944444],,,2018_Jun_20_1251,59.7239101273,sequenceLearningTask,001,086,
min1.png,min2.png,min3.png,min4.png,allBlank.png,"['num_7', 'num_4', 'num_1', 'num_0']",['num_1'],num_1,[3],'num_1',images/min3.png,"[(0.45, 0.79)]",,,,,0,1,1,1,4,3,19,2,,,,,"(0.75, -0.04)",images/min4.png,2,0.0635597947985,0.527646359056,[ 0.6984375 -0.175    ],,,2018_Jun_20_1251,59.7239101273,sequenceLearningTask,001,086,
min1.png,min2.png,min3.png,min4.png,allBlank.png,"['num_7', 'num_4', 'num_1', 'num_0']",['num_1'],num_1,[3],'num_1',images/min3.png,"[(0.45, 0.79)]",,,,,0,1,1,1,4,3,19,2,,,,,"(-0.25, -0.04)",images/min2.png,2,0.0578789743595,0.619473640807,[ 0.6921875  -0.06944444],,,2018_Jun_20_1251,59.7239101273,sequenceLearningTask,001,086,
min1.png,min2.png,min3.png,min4.png,allBlank.png,"['num_7', 'num_4', 'num_1', 'num_0']",['num_1'],num_1,[3],'num_1',images/min3.png,"[(0.45, 0.79)]",,,,,0,1,1,1,4,3,19,2,,,,,"(0.25, -0.04)",images/min3.png,2,0.0538436924107,0.389863384422,[-0.29375    -0.33611111],,,2018_Jun_20_1251,59.7239101273,sequenceLearningTask,001,086,
min1.png,min2.png,min3.png,min4.png,allBlank.png,"['num_7', 'num_4', 'num_1', 'num_0']",['num_1'],num_1,[3],'num_1',images/min3.png,"[(0.45, 0.79)]",,,,,0,1,1,1,4,3,19,2,,,,,"(0.75, -0.04)",images/min4.png,2,0.0561743588187,0.315235282294,[ 0.3046875  -0.24722222],,,2018_Jun_20_1251,59.7239101273,sequenceLearningTask,001,086,
min1.png,min2.png,min3.png,min4.png,allBlank.png,"['num_7', 'num_4', 'num_1', 'num_0']",['num_1'],num_1,[3],'num_1',images/min3.png,"[(0.45, 0.79)]",,,,,0,2,2,2,4,3,19,2,,,,,"(-0.75, -0.04)",images/min1.png,3,0.0548307690769,0.617805127986,[ 0.725      -0.28611111],,,2018_Jun_20_1251,59.7239101273,sequenceLearningTask,001,086,
min1.png,min2.png,min3.png,min4.png,allBlank.png,"['num_7', 'num_4', 'num_1', 'num_0']",['num_1'],num_1,[3],'num_1',images/min3.png,"[(0.45, 0.79)]",,,,,0,2,2,2,4,3,19,2,,,,,"(0.25, -0.04)",images/min3.png,3,0.0501956921071,0.44158030767,[-0.8078125  -0.23888889],,,2018_Jun_20_1251,59.7239101273,sequenceLearningTask,001,086,
min1.png,min2.png,min3.png,min4.png,allBlank.png,"['num_7', 'num_4', 'num_1', 'num_0']",['num_1'],num_1,[3],'num_1',images/min3.png,"[(0.45, 0.79)]",,,,,0,2,2,2,4,3,19,2,,,,,"(-0.25, -0.04)",images/min2.png,3,0.0508303586394,0.624971487094,[ 0.2609375  -0.11388889],,,2018_Jun_20_1251,59.7239101273,sequenceLearningTask,001,086,
min1.png,min2.png,min3.png,min4.png,allBlank.png,"['num_7', 'num_4', 'num_1', 'num_0']",['num_1'],num_1,[3],'num_1',images/min3.png,"[(0.45, 0.79)]",,,,,0,2,2,2,4,3,19,2,,,,,"(0.75, -0.04)",images/min4.png,3,0.0487737436779,0.460493538529,[-0.1984375  -0.29444444],,,2018_Jun_20_1251,59.7239101273,sequenceLearningTask,001,086,
min1.png,min2.png,min3.png,min4.png,allBlank.png,"['num_7', 'num_4', 'num_1', 'num_0']",['num_1'],num_1,[3],'num_1',images/min3.png,"[(0.45, 0.79)]",,,,,0,2,2,2,4,3,19,2,,,,,"(0.75, -0.04)",images/min4.png,3,0.0543499491177,0.423494153656,[ 0.7        -0.29166667],,,2018_Jun_20_1251,59.7239101273,sequenceLearningTask,001,086,
min1.png,min2.png,min3.png,min4.png,allBlank.png,"['num_7', 'num_4', 'num_1', 'num_0']",['num_1'],num_1,[3],'num_1',images/min3.png,"[(0.45, 0.79)]",,,,,0,2,2,2,4,3,19,2,,,,,"(-0.25, -0.04)",images/min2.png,3,0.0560578461736,0.56749702571,[ 0.6515625  -0.22222222],,,2018_Jun_20_1251,59.7239101273,sequenceLearningTask,001,086,
min1.png,min2.png,min3.png,min4.png,allBlank.png,"['num_7', 'num_4', 'num_1', 'num_0']",['num_1'],num_1,[3],'num_1',images/min3.png,"[(0.45, 0.79)]",,,,,0,2,2,2,4,3,19,2,,,,,"(0.25, -0.04)",images/min3.png,3,0.0578038971871,0.450197743718,[-0.1703125  -0.11388889],,,2018_Jun_20_1251,59.7239101273,sequenceLearningTask,001,086,
min1.png,min2.png,min3.png,min4.png,allBlank.png,"['num_7', 'num_4', 'num_1', 'num_0']",['num_1'],num_1,[3],'num_1',images/min3.png,"[(0.45, 0.79)]",,,,,0,2,2,2,4,3,19,2,,,,,"(0.75, -0.04)",images/min4.png,3,0.0653608203866,0.392982153688,[ 0.3140625  -0.25833333],,,2018_Jun_20_1251,59.7239101273,sequenceLearningTask,001,086,
min1.png,min2.png,min3.png,min4.png,allBlank.png,"['num_7', 'num_4', 'num_1', 'num_0']",['num_1'],num_1,[3],'num_1',images/min3.png,"[(0.45, 0.79)]",,,,,0,3,3,3,4,3,19,2,,,,,"(-0.75, -0.04)",images/min1.png,4,0.0541858463548,0.63537189737,[ 0.7265625  -0.23888889],,,2018_Jun_20_1251,59.7239101273,sequenceLearningTask,001,086,
min1.png,min2.png,min3.png,min4.png,allBlank.png,"['num_7', 'num_4', 'num_1', 'num_0']",['num_1'],num_1,[3],'num_1',images/min3.png,"[(0.45, 0.79)]",,,,,0,3,3,3,4,3,19,2,,,,,"(0.25, -0.04)",images/min3.png,4,0.056080410257,0.453784205019,[-0.7234375  -0.25277778],,,2018_Jun_20_1251,59.7239101273,sequenceLearningTask,001,086,
min1.png,min2.png,min3.png,min4.png,allBlank.png,"['num_7', 'num_4', 'num_1', 'num_0']",['num_1'],num_1,[3],'num_1',images/min3.png,"[(0.45, 0.79)]",,,,,0,3,3,3,4,3,19,2,,,,,"(-0.25, -0.04)",images/min2.png,4,0.0505784614943,0.675965948962,[ 0.240625   -0.24166667],,,2018_Jun_20_1251,59.7239101273,sequenceLearningTask,001,086,
min1.png,min2.png,min3.png,min4.png,allBlank.png,"['num_7', 'num_4', 'num_1', 'num_0']",['num_1'],num_1,[3],'num_1',images/min3.png,"[(0.45, 0.79)]",,,,,0,3,3,3,4,3,19,2,,,,,"(0.75, -0.04)",images/min4.png,4,0.0539967175573,0.557009230834,[-0.0953125  -0.25555556],,,2018_Jun_20_1251,59.7239101273,sequenceLearningTask,001,086,
min1.png,min2.png,min3.png,min4.png,allBlank.png,"['num_7', 'num_4', 'num_1', 'num_0']",['num_1'],num_1,[3],'num_1',images/min3.png,"[(0.45, 0.79)]",,,,,0,3,3,3,4,3,19,2,,,,,"(0.75, -0.04)",images/min4.png,4,0.0589706664905,0.519458461553,[ 0.725      -0.17777778],,,2018_Jun_20_1251,59.7239101273,sequenceLearningTask,001,086,
min1.png,min2.png,min3.png,min4.png,allBlank.png,"['num_7', 'num_4', 'num_1', 'num_0']",['num_1'],num_1,[3],'num_1',images/min3.png,"[(0.45, 0.79)]",,,,,0,3,3,3,4,3,19,2,,,,,"(-0.25, -0.04)",images/min2.png,4,0.0571277947165,0.65271548694,[ 0.7125 -0.2   ],,,2018_Jun_20_1251,59.7239101273,sequenceLearningTask,001,086,
min1.png,min2.png,min3.png,min4.png,allBlank.png,"['num_7', 'num_4', 'num_1', 'num_0']",['num_1'],num_1,[3],'num_1',images/min3.png,"[(0.45, 0.79)]",,,,,0,3,3,3,4,3,19,2,,,,,"(0.25, -0.04)",images/min3.png,4,0.0550051280297,0.621527384501,[-0.1203125 -0.225    ],,,2018_Jun_20_1251,59.7239101273,sequenceLearningTask,001,086,
min1.png,min2.png,min3.png,min4.png,allBlank.png,"['num_7', 'num_4', 'num_1', 'num_0']",['num_1'],num_1,[3],'num_1',images/min3.png,"[(0.45, 0.79)]",,,,,0,3,3,3,4,3,19,2,,,,,"(0.75, -0.04)",images/min4.png,4,0.0536566157825,0.572167795151,[ 0.3453125  -0.30833333],,,2018_Jun_20_1251,59.7239101273,sequenceLearningTask,001,086,
min1.png,min2.png,min3.png,min4.png,allBlank.png,"['num_7', 'num_4', 'num_1', 'num_0']",['num_1'],num_1,[3],'num_1',images/min3.png,"[(0.45, 0.79)]",,,,,0,4,4,4,4,3,19,2,,,,,"(-0.75, -0.04)",images/min1.png,5,0.0778678976931,1.09823097428,[ 0.715625   -0.18888889],,,2018_Jun_20_1251,59.7239101273,sequenceLearningTask,001,086,
min1.png,min2.png,min3.png,min4.png,allBlank.png,"['num_7', 'num_4', 'num_1', 'num_0']",['num_1'],num_1,[3],'num_1',images/min3.png,"[(0.45, 0.79)]",,,,,0,4,4,4,4,3,19,2,,,,,"(0.25, -0.04)",images/min3.png,5,0.054985025432,0.705925743561,[-0.65  -0.225],,,2018_Jun_20_1251,59.7239101273,sequenceLearningTask,001,086,
min1.png,min2.png,min3.png,min4.png,allBlank.png,"['num_7', 'num_4', 'num_1', 'num_0']",['num_1'],num_1,[3],'num_1',images/min3.png,"[(0.45, 0.79)]",,,,,0,4,4,4,4,3,19,2,,,,,"(-0.25, -0.04)",images/min2.png,5,0.0736730257049,0.621558153536,[ 0.4484375  -0.18055556],,,2018_Jun_20_1251,59.7239101273,sequenceLearningTask,001,086,
min1.png,min2.png,min3.png,min4.png,allBlank.png,"['num_7', 'num_4', 'num_1', 'num_0']",['num_1'],num_1,[3],'num_1',images/min3.png,"[(0.45, 0.79)]",,,,,0,4,4,4,4,3,19,2,,,,,"(0.75, -0.04)",images/min4.png,5,0.0298990770243,0.462086974643,[-0.1765625  -0.37222222],,,2018_Jun_20_1251,59.7239101273,sequenceLearningTask,001,086,
min1.png,min2.png,min3.png,min4.png,allBlank.png,"['num_7', 'num_4', 'num_1', 'num_0']",['num_1'],num_1,[3],'num_1',images/min3.png,"[(0.45, 0.79)]",,,,,0,4,4,4,4,3,19,2,,,,,"(0.75, -0.04)",images/min4.png,5,0.0490937437862,0.574649435934,[ 0.7375     -0.38055556],,,2018_Jun_20_1251,59.7239101273,sequenceLearningTask,001,086,
min1.png,min2.png,min3.png,min4.png,allBlank.png,"['num_7', 'num_4', 'num_1', 'num_0']",['num_1'],num_1,[3],'num_1',images/min3.png,"[(0.45, 0.79)]",,,,,0,4,4,4,4,3,19,2,,,,,"(-0.25, -0.04)",images/min2.png,5,0.0585862565786,0.752073845826,[ 0.6984375  -0.25833333],,,2018_Jun_20_1251,59.7239101273,sequenceLearningTask,001,086,
min1.png,min2.png,min3.png,min4.png,allBlank.png,"['num_7', 'num_4', 'num_1', 'num_0']",['num_1'],num_1,[3],'num_1',images/min3.png,"[(0.45, 0.79)]",,,,,0,4,4,4,4,3,19,2,,,,,"(0.25, -0.04)",images/min3.png,5,0.0665407180786,0.625587692019,[-0.15625    -0.26388889],,,2018_Jun_20_1251,59.7239101273,sequenceLearningTask,001,086,
min1.png,min2.png,min3.png,min4.png,allBlank.png,"['num_7', 'num_4', 'num_1', 'num_0']",['num_1'],num_1,[3],'num_1',images/min3.png,"[(0.45, 0.79)]",,,,,0,4,4,4,4,3,19,2,,,,,"(0.75, -0.04)",images/min4.png,5,0.0485538463108,0.462392205372,[ 0.334375 -0.225   ],,,2018_Jun_20_1251,59.7239101273,sequenceLearningTask,001,086,
min1.png,min2.png,min3.png,min4.png,allBlank.png,"['num_7', 'num_4', 'num_1', 'num_0']",['num_1'],num_1,[3],'num_1',images/min3.png,"[(0.45, 0.79)]",,,,,0,5,5,5,4,3,19,2,,,,,"(-0.75, -0.04)",images/min1.png,6,0.056112410035,0.635836718138,[ 0.7671875  -0.26388889],,,2018_Jun_20_1251,59.7239101273,sequenceLearningTask,001,086,
min1.png,min2.png,min3.png,min4.png,allBlank.png,"['num_7', 'num_4', 'num_1', 'num_0']",['num_1'],num_1,[3],'num_1',images/min3.png,"[(0.45, 0.79)]",,,,,0,5,5,5,4,3,19,2,,,,,"(0.25, -0.04)",images/min3.png,6,0.0571675901301,0.517527794931,[-0.7078125  -0.17777778],,,2018_Jun_20_1251,59.7239101273,sequenceLearningTask,001,086,
min1.png,min2.png,min3.png,min4.png,allBlank.png,"['num_7', 'num_4', 'num_1', 'num_0']",['num_1'],num_1,[3],'num_1',images/min3.png,"[(0.45, 0.79)]",,,,,0,5,5,5,4,3,19,2,,,,,"(-0.25, -0.04)",images/min2.png,6,0.0647199996747,0.479178666603,[ 0.2734375  -0.17222222],,,2018_Jun_20_1251,59.7239101273,sequenceLearningTask,001,086,
min1.png,min2.png,min3.png,min4.png,allBlank.png,"['num_7', 'num_4', 'num_1', 'num_0']",['num_1'],num_1,[3],'num_1',images/min3.png,"[(0.45, 0.79)]",,,,,0,5,5,5,4,3,19,2,,,,,"(0.75, -0.04)",images/min4.png,6,0.0577095383778,0.582531281747,[-0.1265625  -0.21388889],,,2018_Jun_20_1251,59.7239101273,sequenceLearningTask,001,086,
min1.png,min2.png,min3.png,min4.png,allBlank.png,"['num_7', 'num_4', 'num_1', 'num_0']",['num_1'],num_1,[3],'num_1',images/min3.png,"[(0.45, 0.79)]",,,,,0,5,5,5,4,3,19,2,,,,,"(0.75, -0.04)",images/min4.png,6,0.0582728204317,0.531282871496,[ 0.8078125 -0.25     ],,,2018_Jun_20_1251,59.7239101273,sequenceLearningTask,001,086,
min1.png,min2.png,min3.png,min4.png,allBlank.png,"['num_7', 'num_4', 'num_1', 'num_0']",['num_1'],num_1,[3],'num_1',images/min3.png,"[(0.45, 0.79)]",,,,,0,5,5,5,4,3,19,2,,,,,"(-0.25, -0.04)",images/min2.png,6,0.0572570255026,0.603004717734,[ 0.7125     -0.34166667],,,2018_Jun_20_1251,59.7239101273,sequenceLearningTask,001,086,
min1.png,min2.png,min3.png,min4.png,allBlank.png,"['num_7', 'num_4', 'num_1', 'num_0']",['num_1'],num_1,[3],'num_1',images/min3.png,"[(0.45, 0.79)]",,,,,0,5,5,5,4,3,19,2,,,,,"(0.25, -0.04)",images/min3.png,6,0.0620960001834,0.48131323047,[-0.1921875  -0.26944444],,,2018_Jun_20_1251,59.7239101273,sequenceLearningTask,001,086,
min1.png,min2.png,min3.png,min4.png,allBlank.png,"['num_7', 'num_4', 'num_1', 'num_0']",['num_1'],num_1,[3],'num_1',images/min3.png,"[(0.45, 0.79)]",,,,,0,5,5,5,4,3,19,2,,,,,"(0.75, -0.04)",images/min4.png,6,0.0590059487149,0.501980307512,[ 0.346875   -0.21944444],,,2018_Jun_20_1251,59.7239101273,sequenceLearningTask,001,086,
min1.png,min2.png,min3.png,min4.png,allBlank.png,"['num_7', 'num_4', 'num_1', 'num_0']",['num_1'],num_1,[3],'num_1',images/min3.png,"[(0.45, 0.79)]",,,,,0,6,6,6,4,3,19,2,,,,,"(-0.75, -0.04)",images/min1.png,7,0.0618785638362,0.781762461178,[ 0.6515625  -0.23055556],,,2018_Jun_20_1251,59.7239101273,sequenceLearningTask,001,086,
min1.png,min2.png,min3.png,min4.png,allBlank.png,"['num_7', 'num_4', 'num_1', 'num_0']",['num_1'],num_1,[3],'num_1',images/min3.png,"[(0.45, 0.79)]",,,,,0,6,6,6,4,3,19,2,,,,,"(0.25, -0.04)",images/min3.png,7,0.0644972310401,0.497428512666,[-0.7203125  -0.23333333],,,2018_Jun_20_1251,59.7239101273,sequenceLearningTask,001,086,
min1.png,min2.png,min3.png,min4.png,allBlank.png,"['num_7', 'num_4', 'num_1', 'num_0']",['num_1'],num_1,[3],'num_1',images/min3.png,"[(0.45, 0.79)]",,,,,0,6,6,6,4,3,19,2,,,,,"(-0.25, -0.04)",images/min2.png,7,0.0670289229602,0.773971282411,[ 0.2421875 -0.3      ],,,2018_Jun_20_1251,59.7239101273,sequenceLearningTask,001,086,
min1.png,min2.png,min3.png,min4.png,allBlank.png,"['num_7', 'num_4', 'num_1', 'num_0']",['num_1'],num_1,[3],'num_1',images/min3.png,"[(0.45, 0.79)]",,,,,0,6,6,6,4,3,19,2,,,,,"(0.75, -0.04)",images/min4.png,7,0.0557054360397,0.602918153629,[-0.1484375  -0.31111111],,,2018_Jun_20_1251,59.7239101273,sequenceLearningTask,001,086,
min1.png,min2.png,min3.png,min4.png,allBlank.png,"['num_7', 'num_4', 'num_1', 'num_0']",['num_1'],num_1,[3],'num_1',images/min3.png,"[(0.45, 0.79)]",,,,,0,6,6,6,4,3,19,2,,,,,"(0.75, -0.04)",images/min4.png,7,0.0584406149574,1.03552697413,[ 0.7234375  -0.20833333],,,2018_Jun_20_1251,59.7239101273,sequenceLearningTask,001,086,
min1.png,min2.png,min3.png,min4.png,allBlank.png,"['num_7', 'num_4', 'num_1', 'num_0']",['num_1'],num_1,[3],'num_1',images/min3.png,"[(0.45, 0.79)]",,,,,0,6,6,6,4,3,19,2,,,,,"(-0.25, -0.04)",images/min2.png,7,0.0552865639329,0.80425517913,[ 0.6984375  -0.17777778],,,2018_Jun_20_1251,59.7239101273,sequenceLearningTask,001,086,
min1.png,min2.png,min3.png,min4.png,allBlank.png,"['num_7', 'num_4', 'num_1', 'num_0']",['num_1'],num_1,[3],'num_1',images/min3.png,"[(0.45, 0.79)]",,,,,0,6,6,6,4,3,19,2,,,,,"(0.25, -0.04)",images/min3.png,7,0.063272615429,0.484276102856,[-0.10625    -0.23611111],,,2018_Jun_20_1251,59.7239101273,sequenceLearningTask,001,086,
min1.png,min2.png,min3.png,min4.png,allBlank.png,"['num_7', 'num_4', 'num_1', 'num_0']",['num_1'],num_1,[3],'num_1',images/min3.png,"[(0.45, 0.79)]",,,,,0,6,6,6,4,3,19,2,,,,,"(0.75, -0.04)",images/min4.png,7,0.0524828718044,0.638619487174,[ 0.3265625  -0.29166667],,,2018_Jun_20_1251,59.7239101273,sequenceLearningTask,001,086,
min1.png,min2.png,min3.png,min4.png,allBlank.png,"['num_7', 'num_4', 'num_1', 'num_0']",['num_1'],num_1,[3],'num_1',images/min3.png,"[(0.45, 0.79)]",,,,,0,7,7,7,4,3,19,2,,,,,"(-0.75, -0.04)",images/min1.png,8,0.0552545641549,0.754367179703,[ 0.7515625  -0.25277778],,,2018_Jun_20_1251,59.7239101273,sequenceLearningTask,001,086,
min1.png,min2.png,min3.png,min4.png,allBlank.png,"['num_7', 'num_4', 'num_1', 'num_0']",['num_1'],num_1,[3],'num_1',images/min3.png,"[(0.45, 0.79)]",,,,,0,7,7,7,4,3,19,2,,,,,"(0.25, -0.04)",images/min3.png,8,0.0585489231162,1.37229702575,[-0.6828125  -0.33611111],,,2018_Jun_20_1251,59.7239101273,sequenceLearningTask,001,086,
min1.png,min2.png,min3.png,min4.png,allBlank.png,"['num_7', 'num_4', 'num_1', 'num_0']",['num_1'],num_1,[3],'num_1',images/min3.png,"[(0.45, 0.79)]",,,,,0,7,7,7,4,3,19,2,,,,,"(-0.25, -0.04)",images/min2.png,8,0.0562514867634,1.05562502565,[ 0.3546875  -0.19444444],,,2018_Jun_20_1251,59.7239101273,sequenceLearningTask,001,086,
min1.png,min2.png,min3.png,min4.png,allBlank.png,"['num_7', 'num_4', 'num_1', 'num_0']",['num_1'],num_1,[3],'num_1',images/min3.png,"[(0.45, 0.79)]",,,,,0,7,7,7,4,3,19,2,,,,,"(0.75, -0.04)",images/min4.png,8,0.063133538235,0.509635692462,[-0.2078125  -0.23611111],,,2018_Jun_20_1251,59.7239101273,sequenceLearningTask,001,086,
min1.png,min2.png,min3.png,min4.png,allBlank.png,"['num_7', 'num_4', 'num_1', 'num_0']",['num_1'],num_1,[3],'num_1',images/min3.png,"[(0.45, 0.79)]",,,,,0,7,7,7,4,3,19,2,,,,,"(0.75, -0.04)",images/min4.png,8,0.0548188714311,0.572275281884,[ 0.6984375 -0.275    ],,,2018_Jun_20_1251,59.7239101273,sequenceLearningTask,001,086,
min1.png,min2.png,min3.png,min4.png,allBlank.png,"['num_7', 'num_4', 'num_1', 'num_0']",['num_1'],num_1,[3],'num_1',images/min3.png,"[(0.45, 0.79)]",,,,,0,7,7,7,4,3,19,2,,,,,"(-0.25, -0.04)",images/min2.png,8,0.0577784613706,0.652879999951,[ 0.73125    -0.24722222],,,2018_Jun_20_1251,59.7239101273,sequenceLearningTask,001,086,
min1.png,min2.png,min3.png,min4.png,allBlank.png,"['num_7', 'num_4', 'num_1', 'num_0']",['num_1'],num_1,[3],'num_1',images/min3.png,"[(0.45, 0.79)]",,,,,0,7,7,7,4,3,19,2,,,,,"(0.25, -0.04)",images/min3.png,8,0.0545632820576,0.890537846368,[-0.1203125  -0.16666667],,,2018_Jun_20_1251,59.7239101273,sequenceLearningTask,001,086,
min1.png,min2.png,min3.png,min4.png,allBlank.png,"['num_7', 'num_4', 'num_1', 'num_0']",['num_1'],num_1,[3],'num_1',images/min3.png,"[(0.45, 0.79)]",,,,,0,7,7,7,4,3,19,2,,,,,"(0.75, -0.04)",images/min4.png,8,0.0555573333986,0.574175589718,[ 0.271875   -0.29166667],,,2018_Jun_20_1251,59.7239101273,sequenceLearningTask,001,086,
min1.png,min2.png,min3.png,min4.png,allBlank.png,"['num_7', 'num_4', 'num_1', 'num_0']",['num_1'],num_1,[3],'num_1',images/min3.png,"[(0.45, 0.79)]",,,,,0,8,8,8,4,3,19,2,,,,,"(-0.75, -0.04)",images/min1.png,9,0.05018666666,1.07704205113,[ 0.7484375  -0.33611111],,,2018_Jun_20_1251,59.7239101273,sequenceLearningTask,001,086,
min1.png,min2.png,min3.png,min4.png,allBlank.png,"['num_7', 'num_4', 'num_1', 'num_0']",['num_1'],num_1,[3],'num_1',images/min3.png,"[(0.45, 0.79)]",,,,,0,8,8,8,4,3,19,2,,,,,"(0.25, -0.04)",images/min3.png,9,0.0587573330849,0.503702153917,[-0.6671875  -0.15833333],,,2018_Jun_20_1251,59.7239101273,sequenceLearningTask,001,086,
min1.png,min2.png,min3.png,min4.png,allBlank.png,"['num_7', 'num_4', 'num_1', 'num_0']",['num_1'],num_1,[3],'num_1',images/min3.png,"[(0.45, 0.79)]",,,,,0,8,8,8,4,3,19,2,,,,,"(-0.25, -0.04)",images/min2.png,9,0.0608393847942,0.682386051398,[ 0.3234375  -0.25833333],,,2018_Jun_20_1251,59.7239101273,sequenceLearningTask,001,086,
min1.png,min2.png,min3.png,min4.png,allBlank.png,"['num_7', 'num_4', 'num_1', 'num_0']",['num_1'],num_1,[3],'num_1',images/min3.png,"[(0.45, 0.79)]",,,,,0,8,8,8,4,3,19,2,,,,,"(0.75, -0.04)",images/min4.png,9,0.0595421534963,0.434078769293,[-0.0796875  -0.24444444],,,2018_Jun_20_1251,59.7239101273,sequenceLearningTask,001,086,
min1.png,min2.png,min3.png,min4.png,allBlank.png,"['num_7', 'num_4', 'num_1', 'num_0']",['num_1'],num_1,[3],'num_1',images/min3.png,"[(0.45, 0.79)]",,,,,0,8,8,8,4,3,19,2,,,,,"(0.75, -0.04)",images/min4.png,9,0.054508307483,0.570327795111,[ 0.6796875  -0.24444444],,,2018_Jun_20_1251,59.7239101273,sequenceLearningTask,001,086,
min1.png,min2.png,min3.png,min4.png,allBlank.png,"['num_7', 'num_4', 'num_1', 'num_0']",['num_1'],num_1,[3],'num_1',images/min3.png,"[(0.45, 0.79)]",,,,,0,8,8,8,4,3,19,2,,,,,"(-0.25, -0.04)",images/min2.png,9,0.0542408204637,0.891038359143,[ 0.7234375  -0.30833333],,,2018_Jun_20_1251,59.7239101273,sequenceLearningTask,001,086,
min1.png,min2.png,min3.png,min4.png,allBlank.png,"['num_7', 'num_4', 'num_1', 'num_0']",['num_1'],num_1,[3],'num_1',images/min3.png,"[(0.45, 0.79)]",,,,,0,8,8,8,4,3,19,2,,,,,"(0.25, -0.04)",images/min3.png,9,0.056021743454,0.601859692484,[-0.1734375  -0.13055556],,,2018_Jun_20_1251,59.7239101273,sequenceLearningTask,001,086,
min1.png,min2.png,min3.png,min4.png,allBlank.png,"['num_7', 'num_4', 'num_1', 'num_0']",['num_1'],num_1,[3],'num_1',images/min3.png,"[(0.45, 0.79)]",,,,,0,8,8,8,4,3,19,2,,,,,"(0.75, -0.04)",images/min4.png,9,0.0597969233058,0.618132102769,[ 0.1671875 -0.175    ],,,2018_Jun_20_1251,59.7239101273,sequenceLearningTask,001,086,
min1.png,min2.png,min3.png,min4.png,allBlank.png,"['num_7', 'num_4', 'num_1', 'num_0']",['num_1'],num_1,[3],'num_1',images/min3.png,"[(0.45, 0.79)]",,,,,0,9,9,9,4,3,19,2,,,,,"(-0.75, -0.04)",images/min1.png,10,0.054094358813,0.705451487098,[ 0.7046875  -0.21111111],,,2018_Jun_20_1251,59.7239101273,sequenceLearningTask,001,086,
min1.png,min2.png,min3.png,min4.png,allBlank.png,"['num_7', 'num_4', 'num_1', 'num_0']",['num_1'],num_1,[3],'num_1',images/min3.png,"[(0.45, 0.79)]",,,,,0,9,9,9,4,3,19,2,,,,,"(0.25, -0.04)",images/min3.png,10,0.0570490253158,0.586324512959,[-0.6921875  -0.01388889],,,2018_Jun_20_1251,59.7239101273,sequenceLearningTask,001,086,
min1.png,min2.png,min3.png,min4.png,allBlank.png,"['num_7', 'num_4', 'num_1', 'num_0']",['num_1'],num_1,[3],'num_1',images/min3.png,"[(0.45, 0.79)]",,,,,0,9,9,9,4,3,19,2,,,,,"(-0.25, -0.04)",images/min2.png,10,0.0512836924754,0.638263384812,[ 0.2765625  -0.29722222],,,2018_Jun_20_1251,59.7239101273,sequenceLearningTask,001,086,
min1.png,min2.png,min3.png,min4.png,allBlank.png,"['num_7', 'num_4', 'num_1', 'num_0']",['num_1'],num_1,[3],'num_1',images/min3.png,"[(0.45, 0.79)]",,,,,0,9,9,9,4,3,19,2,,,,,"(0.75, -0.04)",images/min4.png,10,0.0511310771108,0.911728410516,[-0.1953125  -0.18611111],,,2018_Jun_20_1251,59.7239101273,sequenceLearningTask,001,086,
min1.png,min2.png,min3.png,min4.png,allBlank.png,"['num_7', 'num_4', 'num_1', 'num_0']",['num_1'],num_1,[3],'num_1',images/min3.png,"[(0.45, 0.79)]",,,,,0,9,9,9,4,3,19,2,,,,,"(0.75, -0.04)",images/min4.png,10,0.0542797949165,0.639539281838,[ 0.7203125  -0.16388889],,,2018_Jun_20_1251,59.7239101273,sequenceLearningTask,001,086,
min1.png,min2.png,min3.png,min4.png,allBlank.png,"['num_7', 'num_4', 'num_1', 'num_0']",['num_1'],num_1,[3],'num_1',images/min3.png,"[(0.45, 0.79)]",,,,,0,9,9,9,4,3,19,2,,,,,"(-0.25, -0.04)",images/min2.png,10,0.0630592820235,0.728575179819,[ 0.7234375  -0.15555556],,,2018_Jun_20_1251,59.7239101273,sequenceLearningTask,001,086,
min1.png,min2.png,min3.png,min4.png,allBlank.png,"['num_7', 'num_4', 'num_1', 'num_0']",['num_1'],num_1,[3],'num_1',images/min3.png,"[(0.45, 0.79)]",,,,,0,9,9,9,4,3,19,2,,,,,"(0.25, -0.04)",images/min3.png,10,0.0526408203878,0.507419486996,[-0.1796875  -0.13055556],,,2018_Jun_20_1251,59.7239101273,sequenceLearningTask,001,086,
min1.png,min2.png,min3.png,min4.png,allBlank.png,"['num_7', 'num_4', 'num_1', 'num_0']",['num_1'],num_1,[3],'num_1',images/min3.png,"[(0.45, 0.79)]",,,,,0,9,9,9,4,3,19,2,,,,,"(0.75, -0.04)",images/min4.png,10,0.0666104615666,0.489552820567,[ 0.3546875  -0.27222222],,,2018_Jun_20_1251,59.7239101273,sequenceLearningTask,001,086,
min1.png,min2.png,min3.png,min4.png,allBlank.png,"['num_7', 'num_4', 'num_1', 'num_0']",['num_1'],num_1,[3],'num_1',images/min3.png,"[(0.45, 0.79)]",,,,,0,9,9,9,4,3,19,2,0,-1,-1,0,,,,,,,,,2018_Jun_20_1251,59.7239101273,sequenceLearningTask,001,086,
