pawPatrol1,pawPatrol2,pawPatrol3,pawPatrol4,blank,allowableKey,correctKey,correctKeyPressNum,posLoc,correctKeyPress,randomPaw,im_size,trials.thisRepN,trials.thisTrialN,trials.thisN,trials.thisIndex,trials_3.thisRepN,trials_3.thisTrialN,trials_3.thisN,trials_3.thisIndex,trials_2.thisRepN,trials_2.thisTrialN,trials_2.thisN,trials_2.thisIndex,trials_questions.thisRepN,trials_questions.thisTrialN,trials_questions.thisN,trials_questions.thisIndex,correctLocation,correctImage,repetitionNumber,stimulusPresent.t,responseTimeCorrect,pressLoc,responseTimeIncorrect,trialIncorrect,date,frameRate,expName,session,participant,
min1.png,min2.png,min3.png,min4.png,allBlank.png,,,,,,,,,,,,0,0,0,0,,,,,,,,,"(-0.75, -0.04)",images/min1.png,1,0.0410079831763,0.636969584832,[-0.22693997 -0.58072917],,,2018_Jun_22_1730,59.916841603,sequenceLearningTask,001,088,
min1.png,min2.png,min3.png,min4.png,allBlank.png,,,,,,,,,,,,0,0,0,0,,,,,,,,,"(0.25, -0.04)",images/min3.png,1,0.068651869271,0.486727184933,[-0.64860908 -0.0703125 ],,,2018_Jun_22_1730,59.916841603,sequenceLearningTask,001,088,
min1.png,min2.png,min3.png,min4.png,allBlank.png,,,,,,,,,,,,0,0,0,0,,,,,,,,,"(-0.25, -0.04)",images/min2.png,1,0.059534744807,0.442137664764,[ 0.25183016 -0.08854167],,,2018_Jun_22_1730,59.916841603,sequenceLearningTask,001,088,
min1.png,min2.png,min3.png,min4.png,allBlank.png,,,,,,,,,,,,0,0,0,0,,,,,,,,,"(0.75, -0.04)",images/min4.png,1,0.0680803823252,0.606180674387,[-0.238653 -0.28125 ],,,2018_Jun_22_1730,59.916841603,sequenceLearningTask,001,088,
min1.png,min2.png,min3.png,min4.png,allBlank.png,,,,,,,,,,,,0,0,0,0,,,,,,,,,"(0.75, -0.04)",images/min4.png,1,0.0554284900809,0.598610626212,[ 0.77891654  0.00260417],,,2018_Jun_22_1730,59.916841603,sequenceLearningTask,001,088,
min1.png,min2.png,min3.png,min4.png,allBlank.png,,,,,,,,,,,,0,0,0,0,,,,,,,,,"(-0.25, -0.04)",images/min2.png,1,0.0622182308853,0.476428522492,[ 0.6954612  -0.04427083],,,2018_Jun_22_1730,59.916841603,sequenceLearningTask,001,088,
min1.png,min2.png,min3.png,min4.png,allBlank.png,,,,,,,,,,,,0,0,0,0,,,,,,,,,"(0.25, -0.04)",images/min3.png,1,0.0570108484062,0.549806953926,[-0.24158126 -0.0546875 ],,,2018_Jun_22_1730,59.916841603,sequenceLearningTask,001,088,
min1.png,min2.png,min3.png,min4.png,allBlank.png,,,,,,,,,,,,0,0,0,0,,,,,,,,,"(0.75, -0.04)",images/min4.png,1,0.0610727954572,0.528179885874,[ 0.2489019   0.04427083],,,2018_Jun_22_1730,59.916841603,sequenceLearningTask,001,088,
min1.png,min2.png,min3.png,min4.png,allBlank.png,,,,,,,,,,,,0,1,1,1,,,,,,,,,"(-0.75, -0.04)",images/min1.png,2,0.0582543350738,0.624242615695,[ 0.72327965 -0.0546875 ],,,2018_Jun_22_1730,59.916841603,sequenceLearningTask,001,088,
min1.png,min2.png,min3.png,min4.png,allBlank.png,,,,,,,,,,,,0,1,1,1,,,,,,,,,"(0.25, -0.04)",images/min3.png,2,0.0559052078333,0.433336437605,[-0.74816984 -0.18489583],,,2018_Jun_22_1730,59.916841603,sequenceLearningTask,001,088,
min1.png,min2.png,min3.png,min4.png,allBlank.png,,,,,,,,,,,,0,1,1,1,,,,,,,,,"(-0.25, -0.04)",images/min2.png,2,0.0579372070006,0.481059905207,[ 0.21522694 -0.11979167],,,2018_Jun_22_1730,59.916841603,sequenceLearningTask,001,088,
min1.png,min2.png,min3.png,min4.png,allBlank.png,,,,,,,,,,,,0,1,1,1,,,,,,,,,"(0.75, -0.04)",images/min4.png,2,0.0521267478453,0.503452921661,[-0.21229868 -0.1640625 ],,,2018_Jun_22_1730,59.916841603,sequenceLearningTask,001,088,
min1.png,min2.png,min3.png,min4.png,allBlank.png,,,,,,,,,,,,0,1,1,1,,,,,,,,,"(0.75, -0.04)",images/min4.png,2,0.0530851064268,0.551468491705,[ 0.76866764 -0.07291667],,,2018_Jun_22_1730,59.916841603,sequenceLearningTask,001,088,
min1.png,min2.png,min3.png,min4.png,allBlank.png,,,,,,,,,,,,0,1,1,1,,,,,,,,,"(-0.25, -0.04)",images/min2.png,2,0.0565767973003,0.499402051528,[ 0.73060029 -0.03385417],,,2018_Jun_22_1730,59.916841603,sequenceLearningTask,001,088,
min1.png,min2.png,min3.png,min4.png,allBlank.png,,,,,,,,,,,,0,1,1,1,,,,,,,,,"(0.25, -0.04)",images/min3.png,2,0.0567831561912,0.401699937765,[-0.17423133 -0.04166667],,,2018_Jun_22_1730,59.916841603,sequenceLearningTask,001,088,
min1.png,min2.png,min3.png,min4.png,allBlank.png,,,,,,,,,,,,0,1,1,1,,,,,,,,,"(0.75, -0.04)",images/min4.png,2,0.053364901185,0.453679813874,[ 0.26793558 -0.0234375 ],,,2018_Jun_22_1730,59.916841603,sequenceLearningTask,001,088,
min1.png,min2.png,min3.png,min4.png,allBlank.png,,,,,,,,,,,,0,2,2,2,,,,,,,,,"(-0.75, -0.04)",images/min1.png,3,0.0593017192605,0.981276315375,[ 0.7510981 -0.046875 ],,,2018_Jun_22_1730,59.916841603,sequenceLearningTask,001,088,
min1.png,min2.png,min3.png,min4.png,allBlank.png,,,,,,,,,,,,0,2,2,2,,,,,,,,,"(0.25, -0.04)",images/min3.png,3,0.0542695161967,0.449748738565,[-0.74670571 -0.1171875 ],,,2018_Jun_22_1730,59.916841603,sequenceLearningTask,001,088,
min1.png,min2.png,min3.png,min4.png,allBlank.png,,,,,,,,,,,,0,2,2,2,,,,,,,,,"(-0.25, -0.04)",images/min2.png,3,0.0621201796439,0.404864654414,[ 0.23572474 -0.10416667],,,2018_Jun_22_1730,59.916841603,sequenceLearningTask,001,088,
min1.png,min2.png,min3.png,min4.png,allBlank.png,,,,,,,,,,,,0,2,2,2,,,,,,,,,"(0.75, -0.04)",images/min4.png,3,0.0596931037162,0.629209177761,[-0.27672035 -0.14322917],,,2018_Jun_22_1730,59.916841603,sequenceLearningTask,001,088,
min1.png,min2.png,min3.png,min4.png,allBlank.png,,,,,,,,,,,,0,2,2,2,,,,,,,,,"(0.75, -0.04)",images/min4.png,3,0.0537813112696,0.671008955484,[ 0.73499268 -0.0078125 ],,,2018_Jun_22_1730,59.916841603,sequenceLearningTask,001,088,
min1.png,min2.png,min3.png,min4.png,allBlank.png,,,,,,,,,,,,0,2,2,2,,,,,,,,,"(-0.25, -0.04)",images/min2.png,3,0.0512894148542,0.487729440933,[ 0.81991215 -0.03385417],,,2018_Jun_22_1730,59.916841603,sequenceLearningTask,001,088,
min1.png,min2.png,min3.png,min4.png,allBlank.png,,,,,,,,,,,,0,2,2,2,,,,,,,,,"(0.25, -0.04)",images/min3.png,3,0.0589714629859,0.565485716723,[-0.18155198 -0.09895833],,,2018_Jun_22_1730,59.916841603,sequenceLearningTask,001,088,
min1.png,min2.png,min3.png,min4.png,allBlank.png,,,,,,,,,,,,0,2,2,2,,,,,,,,,"(0.75, -0.04)",images/min4.png,3,0.054969413346,0.582647966094,[ 0.21083455  0.06510417],,,2018_Jun_22_1730,59.916841603,sequenceLearningTask,001,088,
min1.png,min2.png,min3.png,min4.png,allBlank.png,,,,,,,,,,,,0,3,3,3,,,,,,,,,"(-0.75, -0.04)",images/min1.png,4,0.0565665408958,0.581395043529,[ 0.66325037 -0.109375  ],,,2018_Jun_22_1730,59.916841603,sequenceLearningTask,001,088,
min1.png,min2.png,min3.png,min4.png,allBlank.png,,,,,,,,,,,,0,3,3,3,,,,,,,,,"(0.25, -0.04)",images/min3.png,4,0.060333923966,0.444362484364,[-0.67349927 -0.2890625 ],,,2018_Jun_22_1730,59.916841603,sequenceLearningTask,001,088,
min1.png,min2.png,min3.png,min4.png,allBlank.png,,,,,,,,,,,,0,3,3,3,,,,,,,,,"(-0.25, -0.04)",images/min2.png,4,0.0562715666583,0.495486155698,[ 0.26793558 -0.11979167],,,2018_Jun_22_1730,59.916841603,sequenceLearningTask,001,088,
min1.png,min2.png,min3.png,min4.png,allBlank.png,,,,,,,,,,,,0,3,3,3,,,,,,,,,"(0.75, -0.04)",images/min4.png,4,0.0649423323302,0.559960795914,[-0.32796486 -0.19010417],,,2018_Jun_22_1730,59.916841603,sequenceLearningTask,001,088,
min1.png,min2.png,min3.png,min4.png,allBlank.png,,,,,,,,,,,,0,3,3,3,,,,,,,,,"(0.75, -0.04)",images/min4.png,4,0.0596192575922,0.710851400678,[ 0.69985359  0.046875  ],,,2018_Jun_22_1730,59.916841603,sequenceLearningTask,001,088,
min1.png,min2.png,min3.png,min4.png,allBlank.png,,,,,,,,,,,,0,3,3,3,,,,,,,,,"(-0.25, -0.04)",images/min2.png,4,0.0587733092216,0.682243412413,[ 0.78330893 -0.01822917],,,2018_Jun_22_1730,59.916841603,sequenceLearningTask,001,088,
min1.png,min2.png,min3.png,min4.png,allBlank.png,,,,,,,,,,,,0,3,3,3,,,,,,,,,"(0.25, -0.04)",images/min3.png,4,0.0607154622703,0.462872425487,[-0.23133236 -0.0859375 ],,,2018_Jun_22_1730,59.916841603,sequenceLearningTask,001,088,
min1.png,min2.png,min3.png,min4.png,allBlank.png,,,,,,,,,,,,0,3,3,3,,,,,,,,,"(0.75, -0.04)",images/min4.png,4,0.05358684981,0.48433457053,[ 0.26061493  0.0625    ],,,2018_Jun_22_1730,59.916841603,sequenceLearningTask,001,088,
min1.png,min2.png,min3.png,min4.png,allBlank.png,,,,,,,,,,,,0,4,4,4,,,,,,,,,"(-0.75, -0.04)",images/min1.png,5,0.0563802845627,0.563083256171,[ 0.73938507  0.0078125 ],,,2018_Jun_22_1730,59.916841603,sequenceLearningTask,001,088,
min1.png,min2.png,min3.png,min4.png,allBlank.png,,,,,,,,,,,,0,4,4,4,,,,,,,,,"(0.25, -0.04)",images/min3.png,5,0.0565025409232,0.500775179171,[-0.69985359 -0.16927083],,,2018_Jun_22_1730,59.916841603,sequenceLearningTask,001,088,
min1.png,min2.png,min3.png,min4.png,allBlank.png,,,,,,,,,,,,0,4,4,4,,,,,,,,,"(-0.25, -0.04)",images/min2.png,5,0.0618764874362,0.46135365688,[ 0.12152269  0.        ],,,2018_Jun_22_1730,59.916841603,sequenceLearningTask,001,088,
min1.png,min2.png,min3.png,min4.png,allBlank.png,,,,,,,,,,,,0,4,4,4,,,,,,,,,"(0.75, -0.04)",images/min4.png,5,0.0564438742804,0.497982975186,[-0.22547584 -0.08854167],,,2018_Jun_22_1730,59.916841603,sequenceLearningTask,001,088,
min1.png,min2.png,min3.png,min4.png,allBlank.png,,,,,,,,,,,,0,4,4,4,,,,,,,,,"(0.75, -0.04)",images/min4.png,5,0.0556898233081,0.584412888446,[ 0.67057101 -0.01822917],,,2018_Jun_22_1730,59.916841603,sequenceLearningTask,001,088,
min1.png,min2.png,min3.png,min4.png,allBlank.png,,,,,,,,,,,,0,4,4,4,,,,,,,,,"(-0.25, -0.04)",images/min2.png,5,0.0585300272687,0.49317066947,[ 0.75549048  0.125     ],,,2018_Jun_22_1730,59.916841603,sequenceLearningTask,001,088,
min1.png,min2.png,min3.png,min4.png,allBlank.png,,,,,,,,,,,,0,4,4,4,,,,,,,,,"(0.25, -0.04)",images/min3.png,5,0.0598518728802,0.412495010258,[-0.18448023 -0.08854167],,,2018_Jun_22_1730,59.916841603,sequenceLearningTask,001,088,
min1.png,min2.png,min3.png,min4.png,allBlank.png,,,,,,,,,,,,0,4,4,4,,,,,,,,,"(0.75, -0.04)",images/min4.png,5,0.0570170022493,0.38294425315,[ 0.27818448 -0.08854167],,,2018_Jun_22_1730,59.916841603,sequenceLearningTask,001,088,
min1.png,min2.png,min3.png,min4.png,allBlank.png,,,,,,,,,,,,0,5,5,5,,,,,,,,,"(-0.75, -0.04)",images/min1.png,6,0.0537895163943,0.533489832414,[ 0.69985359 -0.13020833],,,2018_Jun_22_1730,59.916841603,sequenceLearningTask,001,088,
min1.png,min2.png,min3.png,min4.png,allBlank.png,,,,,,,,,,,,0,5,5,5,,,,,,,,,"(0.25, -0.04)",images/min3.png,6,0.0543429520658,0.463853348163,[-0.65592972 -0.140625  ],,,2018_Jun_22_1730,59.916841603,sequenceLearningTask,001,088,
min1.png,min2.png,min3.png,min4.png,allBlank.png,,,,,,,,,,,,0,5,5,5,,,,,,,,,"(-0.25, -0.04)",images/min2.png,6,0.0555630541276,0.467118577593,[ 0.24011713  0.        ],,,2018_Jun_22_1730,59.916841603,sequenceLearningTask,001,088,
min1.png,min2.png,min3.png,min4.png,allBlank.png,,,,,,,,,,,,0,5,5,5,,,,,,,,,"(0.75, -0.04)",images/min4.png,6,0.0562481820525,0.532798550648,[-0.23572474 -0.109375  ],,,2018_Jun_22_1730,59.916841603,sequenceLearningTask,001,088,
min1.png,min2.png,min3.png,min4.png,allBlank.png,,,,,,,,,,,,0,5,5,5,,,,,,,,,"(0.75, -0.04)",images/min4.png,6,0.0557009002259,0.699951302584,[ 0.69253294 -0.01041667],,,2018_Jun_22_1730,59.916841603,sequenceLearningTask,001,088,
min1.png,min2.png,min3.png,min4.png,allBlank.png,,,,,,,,,,,,0,5,5,5,,,,,,,,,"(-0.25, -0.04)",images/min2.png,6,0.0594252063893,0.512159379627,[ 0.82284041  0.09635417],,,2018_Jun_22_1730,59.916841603,sequenceLearningTask,001,088,
min1.png,min2.png,min3.png,min4.png,allBlank.png,,,,,,,,,,,,0,5,5,5,,,,,,,,,"(0.25, -0.04)",images/min3.png,6,0.0535011062566,0.403514911379,[-0.20058565 -0.05729167],,,2018_Jun_22_1730,59.916841603,sequenceLearningTask,001,088,
min1.png,min2.png,min3.png,min4.png,allBlank.png,,,,,,,,,,,,0,5,5,5,,,,,,,,,"(0.75, -0.04)",images/min4.png,6,0.056675669055,0.47994154669,[ 0.27232796 -0.11458333],,,2018_Jun_22_1730,59.916841603,sequenceLearningTask,001,088,
min1.png,min2.png,min3.png,min4.png,allBlank.png,,,,,,,,,,,,0,6,6,6,,,,,,,,,"(-0.75, -0.04)",images/min1.png,7,0.0507724919898,0.565843870423,[ 0.73938507  0.02083333],,,2018_Jun_22_1730,59.916841603,sequenceLearningTask,001,088,
min1.png,min2.png,min3.png,min4.png,allBlank.png,,,,,,,,,,,,0,6,6,6,,,,,,,,,"(0.25, -0.04)",images/min3.png,7,0.0599794625723,0.412372753897,[-0.70131772 -0.23697917],,,2018_Jun_22_1730,59.916841603,sequenceLearningTask,001,088,
min1.png,min2.png,min3.png,min4.png,allBlank.png,,,,,,,,,,,,0,6,6,6,,,,,,,,,"(-0.25, -0.04)",images/min2.png,7,0.0577234634984,0.580279146552,[ 0.28550512 -0.10416667],,,2018_Jun_22_1730,59.916841603,sequenceLearningTask,001,088,
min1.png,min2.png,min3.png,min4.png,allBlank.png,,,,,,,,,,,,0,6,6,6,,,,,,,,,"(0.75, -0.04)",images/min4.png,7,0.0605259238873,0.578105198725,[-0.18887262 -0.2421875 ],,,2018_Jun_22_1730,59.916841603,sequenceLearningTask,001,088,
min1.png,min2.png,min3.png,min4.png,allBlank.png,,,,,,,,,,,,0,6,6,6,,,,,,,,,"(0.75, -0.04)",images/min4.png,7,0.051442030177,0.638877276358,[ 0.68374817  0.015625  ],,,2018_Jun_22_1730,59.916841603,sequenceLearningTask,001,088,
min1.png,min2.png,min3.png,min4.png,allBlank.png,,,,,,,,,,,,0,6,6,6,,,,,,,,,"(-0.25, -0.04)",images/min2.png,7,0.0546916698695,0.532821935252,[ 0.65300146  0.01822917],,,2018_Jun_22_1730,59.916841603,sequenceLearningTask,001,088,
min1.png,min2.png,min3.png,min4.png,allBlank.png,,,,,,,,,,,,0,6,6,6,,,,,,,,,"(0.25, -0.04)",images/min3.png,7,0.0525817220187,0.433306078643,[-0.13909224 -0.07552083],,,2018_Jun_22_1730,59.916841603,sequenceLearningTask,001,088,
min1.png,min2.png,min3.png,min4.png,allBlank.png,,,,,,,,,,,,0,6,6,6,,,,,,,,,"(0.75, -0.04)",images/min4.png,7,0.0533616191351,0.352108163237,[ 0.25475842  0.07291667],,,2018_Jun_22_1730,59.916841603,sequenceLearningTask,001,088,
min1.png,min2.png,min3.png,min4.png,allBlank.png,,,,,,,,,,,,0,7,7,7,,,,,,,,,"(-0.75, -0.04)",images/min1.png,8,0.0519519786867,0.549875876974,[ 0.70863836 -0.01302083],,,2018_Jun_22_1730,59.916841603,sequenceLearningTask,001,088,
min1.png,min2.png,min3.png,min4.png,allBlank.png,,,,,,,,,,,,0,7,7,7,,,,,,,,,"(0.25, -0.04)",images/min3.png,8,0.0574461302785,0.401454604531,[-0.69838946 -0.21354167],,,2018_Jun_22_1730,59.916841603,sequenceLearningTask,001,088,
min1.png,min2.png,min3.png,min4.png,allBlank.png,,,,,,,,,,,,0,7,7,7,,,,,,,,,"(-0.25, -0.04)",images/min2.png,8,0.057115874004,0.583200581252,[ 0.22401171 -0.09114583],,,2018_Jun_22_1730,59.916841603,sequenceLearningTask,001,088,
min1.png,min2.png,min3.png,min4.png,allBlank.png,,,,,,,,,,,,0,7,7,7,,,,,,,,,"(0.75, -0.04)",images/min4.png,8,0.0531290038452,0.585779041732,[-0.17862372 -0.2109375 ],,,2018_Jun_22_1730,59.916841603,sequenceLearningTask,001,088,
min1.png,min2.png,min3.png,min4.png,allBlank.png,,,,,,,,,,,,0,7,7,7,,,,,,,,,"(0.75, -0.04)",images/min4.png,8,0.0535134139445,0.566920382802,[ 0.76427526 -0.06510417],,,2018_Jun_22_1730,59.916841603,sequenceLearningTask,001,088,
min1.png,min2.png,min3.png,min4.png,allBlank.png,,,,,,,,,,,,0,7,7,7,,,,,,,,,"(-0.25, -0.04)",images/min2.png,8,0.0547035673026,0.534240601337,[ 0.81551977 -0.125     ],,,2018_Jun_22_1730,59.916841603,sequenceLearningTask,001,088,
min1.png,min2.png,min3.png,min4.png,allBlank.png,,,,,,,,,,,,0,7,7,7,,,,,,,,,"(0.25, -0.04)",images/min3.png,8,0.0607445904643,0.445432842898,[-0.19765739 -0.12760417],,,2018_Jun_22_1730,59.916841603,sequenceLearningTask,001,088,
min1.png,min2.png,min3.png,min4.png,allBlank.png,,,,,,,,,,,,0,7,7,7,,,,,,,,,"(0.75, -0.04)",images/min4.png,8,0.0564020281436,0.399643733481,[ 0.29575403 -0.13541667],,,2018_Jun_22_1730,59.916841603,sequenceLearningTask,001,088,
min1.png,min2.png,min3.png,min4.png,allBlank.png,,,,,,,,,,,,0,8,8,8,,,,,,,,,"(-0.75, -0.04)",images/min1.png,9,0.060125924052,0.595102935344,[ 0.65007321 -0.07291667],,,2018_Jun_22_1730,59.916841603,sequenceLearningTask,001,088,
min1.png,min2.png,min3.png,min4.png,allBlank.png,,,,,,,,,,,,0,8,8,8,,,,,,,,,"(0.25, -0.04)",images/min3.png,9,0.0561591564492,0.434798590852,[-0.69985359 -0.33072917],,,2018_Jun_22_1730,59.916841603,sequenceLearningTask,001,088,
min1.png,min2.png,min3.png,min4.png,allBlank.png,,,,,,,,,,,,0,8,8,8,,,,,,,,,"(-0.25, -0.04)",images/min2.png,9,0.0599995651282,0.676788235163,[ 0.26793558 -0.046875  ],,,2018_Jun_22_1730,59.916841603,sequenceLearningTask,001,088,
min1.png,min2.png,min3.png,min4.png,allBlank.png,,,,,,,,,,,,0,8,8,8,,,,,,,,,"(0.75, -0.04)",images/min4.png,9,0.0588102322836,0.580966325757,[-0.25183016 -0.17447917],,,2018_Jun_22_1730,59.916841603,sequenceLearningTask,001,088,
min1.png,min2.png,min3.png,min4.png,allBlank.png,,,,,,,,,,,,0,8,8,8,,,,,,,,,"(0.75, -0.04)",images/min4.png,9,0.0631372048665,0.526015373942,[ 0.74084919 -0.00260417],,,2018_Jun_22_1730,59.916841603,sequenceLearningTask,001,088,
min1.png,min2.png,min3.png,min4.png,allBlank.png,,,,,,,,,,,,0,8,8,8,,,,,,,,,"(-0.25, -0.04)",images/min2.png,9,0.0590580270546,0.497172308853,[ 0.66764275 -0.13802083],,,2018_Jun_22_1730,59.916841603,sequenceLearningTask,001,088,
min1.png,min2.png,min3.png,min4.png,allBlank.png,,,,,,,,,,,,0,8,8,8,,,,,,,,,"(0.25, -0.04)",images/min3.png,9,0.0832582222538,0.438548743161,[-0.25622255 -0.13541667],,,2018_Jun_22_1730,59.916841603,sequenceLearningTask,001,088,
min1.png,min2.png,min3.png,min4.png,allBlank.png,,,,,,,,,,,,0,8,8,8,,,,,,,,,"(0.75, -0.04)",images/min4.png,9,0.0614309491575,0.426675517261,[ 0.25622255 -0.18489583],,,2018_Jun_22_1730,59.916841603,sequenceLearningTask,001,088,
min1.png,min2.png,min3.png,min4.png,allBlank.png,,,,,,,,,,,,0,9,9,9,,,,,,,,,"(-0.75, -0.04)",images/min1.png,10,0.0520951581148,0.516247583078,[ 0.6954612  -0.05989583],,,2018_Jun_22_1730,59.916841603,sequenceLearningTask,001,088,
min1.png,min2.png,min3.png,min4.png,allBlank.png,,,,,,,,,,,,0,9,9,9,,,,,,,,,"(0.25, -0.04)",images/min3.png,10,0.0568771048711,0.432068335562,[-0.61639824 -0.1328125 ],,,2018_Jun_22_1730,59.916841603,sequenceLearningTask,001,088,
min1.png,min2.png,min3.png,min4.png,allBlank.png,,,,,,,,,,,,0,9,9,9,,,,,,,,,"(-0.25, -0.04)",images/min2.png,10,0.0608176160749,0.556081002633,[ 0.29575403 -0.14583333],,,2018_Jun_22_1730,59.916841603,sequenceLearningTask,001,088,
min1.png,min2.png,min3.png,min4.png,allBlank.png,,,,,,,,,,,,0,9,9,9,,,,,,,,,"(0.75, -0.04)",images/min4.png,10,0.0584676683211,0.531446756329,[-0.18448023 -0.13020833],,,2018_Jun_22_1730,59.916841603,sequenceLearningTask,001,088,
min1.png,min2.png,min3.png,min4.png,allBlank.png,,,,,,,,,,,,0,9,9,9,,,,,,,,,"(0.75, -0.04)",images/min4.png,10,0.0574018226034,0.583077504378,[ 0.69985359 -0.06510417],,,2018_Jun_22_1730,59.916841603,sequenceLearningTask,001,088,
min1.png,min2.png,min3.png,min4.png,allBlank.png,,,,,,,,,,,,0,9,9,9,,,,,,,,,"(-0.25, -0.04)",images/min2.png,10,0.0531121833374,0.535276908604,[ 0.60468521 -0.13020833],,,2018_Jun_22_1730,59.916841603,sequenceLearningTask,001,088,
min1.png,min2.png,min3.png,min4.png,allBlank.png,,,,,,,,,,,,0,9,9,9,,,,,,,,,"(0.25, -0.04)",images/min3.png,10,0.053305003772,0.503527588296,[-0.22108346 -0.1875    ],,,2018_Jun_22_1730,59.916841603,sequenceLearningTask,001,088,
min1.png,min2.png,min3.png,min4.png,allBlank.png,,,,,,,,,,,,0,9,9,9,,,,,,,,,"(0.75, -0.04)",images/min4.png,10,0.0517624403019,0.402841680885,[ 0.30014641 -0.04166667],,,2018_Jun_22_1730,59.916841603,sequenceLearningTask,001,088,
min1.png,min2.png,min3.png,min4.png,allBlank.png,,,,,,,,,,,,0,0,0,0,,,,,,,,,"(-0.75, -0.04)",images/min1.png,1,0.044418853573,0.584981913853,[ 0.64714495 -0.11458333],,,2018_Jun_22_1730,59.916841603,sequenceLearningTask,001,088,
min1.png,min2.png,min3.png,min4.png,allBlank.png,,,,,,,,,,,,0,0,0,0,,,,,,,,,"(0.25, -0.04)",images/min3.png,1,0.0719650986812,0.433846386113,[-0.66325037 -0.19270833],,,2018_Jun_22_1730,59.916841603,sequenceLearningTask,001,088,
min1.png,min2.png,min3.png,min4.png,allBlank.png,,,,,,,,,,,,0,0,0,0,,,,,,,,,"(-0.25, -0.04)",images/min2.png,1,0.0596967960209,0.513554250849,[ 0.22693997 -0.02864583],,,2018_Jun_22_1730,59.916841603,sequenceLearningTask,001,088,
min1.png,min2.png,min3.png,min4.png,allBlank.png,,,,,,,,,,,,0,0,0,0,,,,,,,,,"(0.75, -0.04)",images/min4.png,1,0.061895359222,0.527182142694,[-0.10541728 -0.11458333],,,2018_Jun_22_1730,59.916841603,sequenceLearningTask,001,088,
min1.png,min2.png,min3.png,min4.png,allBlank.png,,,,,,,,,,,,0,0,0,0,,,,,,,,,"(0.75, -0.04)",images/min4.png,1,0.0600155651209,0.578628685689,[ 0.66471449  0.00520833],,,2018_Jun_22_1730,59.916841603,sequenceLearningTask,001,088,
min1.png,min2.png,min3.png,min4.png,allBlank.png,,,,,,,,,,,,0,0,0,0,,,,,,,,,"(-0.25, -0.04)",images/min2.png,1,0.055958130888,0.395721683806,[ 0.71156662 -0.0234375 ],,,2018_Jun_22_1730,59.916841603,sequenceLearningTask,001,088,
min1.png,min2.png,min3.png,min4.png,allBlank.png,,,,,,,,,,,,0,0,0,0,,,,,,,,,"(0.25, -0.04)",images/min3.png,1,0.0556902335629,0.53384634509,[-0.18740849 -0.171875  ],,,2018_Jun_22_1730,59.916841603,sequenceLearningTask,001,088,
min1.png,min2.png,min3.png,min4.png,allBlank.png,,,,,,,,,,,,0,0,0,0,,,,,,,,,"(0.75, -0.04)",images/min4.png,1,0.0542145418603,0.522657016345,[ 0.26793558 -0.12760417],,,2018_Jun_22_1730,59.916841603,sequenceLearningTask,001,088,
min1.png,min2.png,min3.png,min4.png,allBlank.png,,,,,,,,,,,,0,1,1,1,,,,,,,,,"(-0.75, -0.04)",images/min1.png,2,0.0515039788697,0.586820272074,[ 0.71010249 -0.05208333],,,2018_Jun_22_1730,59.916841603,sequenceLearningTask,001,088,
min1.png,min2.png,min3.png,min4.png,allBlank.png,,,,,,,,,,,,0,1,1,1,,,,,,,,,"(0.25, -0.04)",images/min3.png,2,0.0567294126231,0.416055213926,[-0.64714495 -0.23177083],,,2018_Jun_22_1730,59.916841603,sequenceLearningTask,001,088,
min1.png,min2.png,min3.png,min4.png,allBlank.png,,,,,,,,,,,,0,1,1,1,,,,,,,,,"(-0.25, -0.04)",images/min2.png,2,0.0536455164529,0.63550373928,[ 0.25475842 -0.11458333],,,2018_Jun_22_1730,59.916841603,sequenceLearningTask,001,088,
min1.png,min2.png,min3.png,min4.png,allBlank.png,,,,,,,,,,,,0,1,1,1,,,,,,,,,"(0.75, -0.04)",images/min4.png,2,0.0584652067846,0.429018490659,[-0.17862372 -0.16927083],,,2018_Jun_22_1730,59.916841603,sequenceLearningTask,001,088,
min1.png,min2.png,min3.png,min4.png,allBlank.png,,,,,,,,,,,,0,1,1,1,,,,,,,,,"(0.75, -0.04)",images/min4.png,2,0.0611400774815,0.556769002351,[ 0.72620791 -0.16927083],,,2018_Jun_22_1730,59.916841603,sequenceLearningTask,001,088,
min1.png,min2.png,min3.png,min4.png,allBlank.png,,,,,,,,,,,,0,1,1,1,,,,,,,,,"(-0.25, -0.04)",images/min2.png,2,0.0579958736434,0.481354058931,[ 0.72913616 -0.125     ],,,2018_Jun_22_1730,59.916841603,sequenceLearningTask,001,088,
min1.png,min2.png,min3.png,min4.png,allBlank.png,,,,,,,,,,,,0,1,1,1,,,,,,,,,"(0.25, -0.04)",images/min3.png,2,0.0544643879111,0.435490693133,[-0.11273792 -0.12760417],,,2018_Jun_22_1730,59.916841603,sequenceLearningTask,001,088,
min1.png,min2.png,min3.png,min4.png,allBlank.png,,,,,,,,,,,,0,1,1,1,,,,,,,,,"(0.75, -0.04)",images/min4.png,2,0.0631646920356,0.493961233245,[ 0.33528551 -0.18229167],,,2018_Jun_22_1730,59.916841603,sequenceLearningTask,001,088,
min1.png,min2.png,min3.png,min4.png,allBlank.png,,,,,,,,,,,,0,2,2,2,,,,,,,,,"(-0.75, -0.04)",images/min1.png,3,0.0550617209992,1.26700132636,[ 0.72913616 -0.07291667],,,2018_Jun_22_1730,59.916841603,sequenceLearningTask,001,088,
min1.png,min2.png,min3.png,min4.png,allBlank.png,,,,,,,,,,,,0,2,2,2,,,,,,,,,"(0.25, -0.04)",images/min3.png,3,0.0545066443046,0.435230180419,[-0.68960469 -0.12760417],,,2018_Jun_22_1730,59.916841603,sequenceLearningTask,001,088,
min1.png,min2.png,min3.png,min4.png,allBlank.png,,,,,,,,,,,,0,2,2,2,,,,,,,,,"(-0.25, -0.04)",images/min2.png,3,0.0569759766258,0.666513367583,[ 0.27232796  0.0390625 ],,,2018_Jun_22_1730,59.916841603,sequenceLearningTask,001,088,
min1.png,min2.png,min3.png,min4.png,allBlank.png,,,,,,,,,,,,0,2,2,2,,,,,,,,,"(0.75, -0.04)",images/min4.png,3,0.0614727952925,0.62957512633,[-0.26793558 -0.2578125 ],,,2018_Jun_22_1730,59.916841603,sequenceLearningTask,001,088,
min1.png,min2.png,min3.png,min4.png,allBlank.png,,,,,,,,,,,,0,2,2,2,,,,,,,,,"(0.75, -0.04)",images/min4.png,3,0.0629845895455,0.708996632206,[ 0.73206442 -0.06510417],,,2018_Jun_22_1730,59.916841603,sequenceLearningTask,001,088,
min1.png,min2.png,min3.png,min4.png,allBlank.png,,,,,,,,,,,,0,2,2,2,,,,,,,,,"(-0.25, -0.04)",images/min2.png,3,0.0597480780525,0.62748117847,[ 0.86969253 -0.22395833],,,2018_Jun_22_1730,59.916841603,sequenceLearningTask,001,088,
min1.png,min2.png,min3.png,min4.png,allBlank.png,,,,,,,,,,,,0,2,2,2,,,,,,,,,"(0.25, -0.04)",images/min3.png,3,0.0540073624579,0.450964738066,[-0.26061493 -0.06770833],,,2018_Jun_22_1730,59.916841603,sequenceLearningTask,001,088,
min1.png,min2.png,min3.png,min4.png,allBlank.png,,,,,,,,,,,,0,2,2,2,,,,,,,,,"(0.75, -0.04)",images/min4.png,3,0.0546243878471,0.418169264341,[ 0.28257687 -0.08854167],,,2018_Jun_22_1730,59.916841603,sequenceLearningTask,001,088,
min1.png,min2.png,min3.png,min4.png,allBlank.png,,,,,,,,,,,,0,3,3,3,,,,,,,,,"(-0.75, -0.04)",images/min1.png,4,0.059265206457,0.495188719922,[ 0.73792094 -0.11458333],,,2018_Jun_22_1730,59.916841603,sequenceLearningTask,001,088,
min1.png,min2.png,min3.png,min4.png,allBlank.png,,,,,,,,,,,,0,3,3,3,,,,,,,,,"(0.25, -0.04)",images/min3.png,4,0.0593825397409,0.380462202887,[-0.72181552 -0.17447917],,,2018_Jun_22_1730,59.916841603,sequenceLearningTask,001,088,
min1.png,min2.png,min3.png,min4.png,allBlank.png,,,,,,,,,,,,0,3,3,3,,,,,,,,,"(-0.25, -0.04)",images/min2.png,4,0.0584208991095,0.561473000422,[ 0.26647145 -0.11458333],,,2018_Jun_22_1730,59.916841603,sequenceLearningTask,001,088,
min1.png,min2.png,min3.png,min4.png,allBlank.png,,,,,,,,,,,,0,3,3,3,,,,,,,,,"(0.75, -0.04)",images/min4.png,4,0.0568135151534,0.433204335095,[-0.22108346 -0.14583333],,,2018_Jun_22_1730,59.916841603,sequenceLearningTask,001,088,
min1.png,min2.png,min3.png,min4.png,allBlank.png,,,,,,,,,,,,0,3,3,3,,,,,,,,,"(0.75, -0.04)",images/min4.png,4,0.0573488995487,0.56597638319,[ 0.70131772 -0.15885417],,,2018_Jun_22_1730,59.916841603,sequenceLearningTask,001,088,
min1.png,min2.png,min3.png,min4.png,allBlank.png,,,,,,,,,,,,0,3,3,3,,,,,,,,,"(-0.25, -0.04)",images/min2.png,4,0.0554059259866,0.59952877968,[ 0.72620791 -0.03125   ],,,2018_Jun_22_1730,59.916841603,sequenceLearningTask,001,088,
min1.png,min2.png,min3.png,min4.png,allBlank.png,,,,,,,,,,,,0,3,3,3,,,,,,,,,"(0.25, -0.04)",images/min3.png,4,0.0527626450203,0.453876326616,[-0.26061493 -0.140625  ],,,2018_Jun_22_1730,59.916841603,sequenceLearningTask,001,088,
min1.png,min2.png,min3.png,min4.png,allBlank.png,,,,,,,,,,,,0,3,3,3,,,,,,,,,"(0.75, -0.04)",images/min4.png,4,0.0597328985714,0.375245384515,[ 0.30014641 -0.0625    ],,,2018_Jun_22_1730,59.916841603,sequenceLearningTask,001,088,
min1.png,min2.png,min3.png,min4.png,allBlank.png,,,,,,,,,,,,0,4,4,4,,,,,,,,,"(-0.75, -0.04)",images/min1.png,5,0.057279155988,0.695785150447,[ 0.71303075 -0.140625  ],,,2018_Jun_22_1730,59.916841603,sequenceLearningTask,001,088,
min1.png,min2.png,min3.png,min4.png,allBlank.png,,,,,,,,,,,,0,4,4,4,,,,,,,,,"(0.25, -0.04)",images/min3.png,5,0.0533152601784,0.537638343532,[-0.70131772 -0.16927083],,,2018_Jun_22_1730,59.916841603,sequenceLearningTask,001,088,
min1.png,min2.png,min3.png,min4.png,allBlank.png,,,,,,,,,,,,0,4,4,4,,,,,,,,,"(-0.25, -0.04)",images/min2.png,5,0.0619946412335,0.591936987923,[ 0.26647145 -0.00260417],,,2018_Jun_22_1730,59.916841603,sequenceLearningTask,001,088,
min1.png,min2.png,min3.png,min4.png,allBlank.png,,,,,,,,,,,,0,4,4,4,,,,,,,,,"(0.75, -0.04)",images/min4.png,5,0.0580003864598,1.04978992829,[-0.18301611 -0.12239583],0.479816418536,1,2018_Jun_22_1730,59.916841603,sequenceLearningTask,001,088,
min1.png,min2.png,min3.png,min4.png,allBlank.png,,,,,,,,,,,,0,4,4,4,,,,,,,,,"(0.75, -0.04)",images/min4.png,5,0.0593300269411,0.631106612878,[ 0.70424597 -0.09635417],,,2018_Jun_22_1730,59.916841603,sequenceLearningTask,001,088,
min1.png,min2.png,min3.png,min4.png,allBlank.png,,,,,,,,,,,,0,4,4,4,,,,,,,,,"(-0.25, -0.04)",images/min2.png,5,0.0536988497643,0.551740081337,[ 0.74670571  0.07291667],,,2018_Jun_22_1730,59.916841603,sequenceLearningTask,001,088,
min1.png,min2.png,min3.png,min4.png,allBlank.png,,,,,,,,,,,,0,4,4,4,,,,,,,,,"(0.25, -0.04)",images/min3.png,5,0.0617690003,0.408983627083,[-0.14494876 -0.078125  ],,,2018_Jun_22_1730,59.916841603,sequenceLearningTask,001,088,
min1.png,min2.png,min3.png,min4.png,allBlank.png,,,,,,,,,,,,0,4,4,4,,,,,,,,,"(0.75, -0.04)",images/min4.png,5,0.0602998726972,0.394605786829,[ 0.25622255 -0.12760417],,,2018_Jun_22_1730,59.916841603,sequenceLearningTask,001,088,
min1.png,min2.png,min3.png,min4.png,allBlank.png,,,,,,,,,,,,0,5,5,5,,,,,,,,,"(-0.75, -0.04)",images/min1.png,6,0.0516918762296,0.416538085523,[ 0.66910688 -0.171875  ],,,2018_Jun_22_1730,59.916841603,sequenceLearningTask,001,088,
min1.png,min2.png,min3.png,min4.png,allBlank.png,,,,,,,,,,,,0,5,5,5,,,,,,,,,"(0.25, -0.04)",images/min3.png,6,0.0423843928675,0.512671789673,[-0.63836018 -0.21354167],,,2018_Jun_22_1730,59.916841603,sequenceLearningTask,001,088,
min1.png,min2.png,min3.png,min4.png,allBlank.png,,,,,,,,,,,,0,5,5,5,,,,,,,,,"(-0.25, -0.04)",images/min2.png,6,0.0622859231644,0.591888167432,[ 0.25329429 -0.02083333],,,2018_Jun_22_1730,59.916841603,sequenceLearningTask,001,088,
min1.png,min2.png,min3.png,min4.png,allBlank.png,,,,,,,,,,,,0,5,5,5,,,,,,,,,"(0.75, -0.04)",images/min4.png,6,0.0577776173232,0.496464616836,[-0.24158126 -0.08072917],,,2018_Jun_22_1730,59.916841603,sequenceLearningTask,001,088,
min1.png,min2.png,min3.png,min4.png,allBlank.png,,,,,,,,,,,,0,5,5,5,,,,,,,,,"(0.75, -0.04)",images/min4.png,6,0.0569185407512,0.561458641454,[ 0.6295754  -0.07291667],,,2018_Jun_22_1730,59.916841603,sequenceLearningTask,001,088,
min1.png,min2.png,min3.png,min4.png,allBlank.png,,,,,,,,,,,,0,5,5,5,,,,,,,,,"(-0.25, -0.04)",images/min2.png,6,0.0916848854631,0.398169682801,[ 0.72181552 -0.02604167],,,2018_Jun_22_1730,59.916841603,sequenceLearningTask,001,088,
min1.png,min2.png,min3.png,min4.png,allBlank.png,,,,,,,,,,,,0,5,5,5,,,,,,,,,"(0.25, -0.04)",images/min3.png,6,0.0571425406597,0.431165771828,[-0.26207906 -0.1640625 ],,,2018_Jun_22_1730,59.916841603,sequenceLearningTask,001,088,
min1.png,min2.png,min3.png,min4.png,allBlank.png,,,,,,,,,,,,0,5,5,5,,,,,,,,,"(0.75, -0.04)",images/min4.png,6,0.0599310523376,0.408294806854,[ 0.22693997 -0.10677083],,,2018_Jun_22_1730,59.916841603,sequenceLearningTask,001,088,
min1.png,min2.png,min3.png,min4.png,allBlank.png,,,,,,,,,,,,0,6,6,6,,,,,,,,,"(-0.75, -0.04)",images/min1.png,7,0.0562736179381,0.398741580004,[ 0.70424597 -0.09895833],,,2018_Jun_22_1730,59.916841603,sequenceLearningTask,001,088,
min1.png,min2.png,min3.png,min4.png,allBlank.png,,,,,,,,,,,,0,6,6,6,,,,,,,,,"(0.25, -0.04)",images/min3.png,7,0.0531991576627,0.537492292311,[-0.6852123 -0.1796875],,,2018_Jun_22_1730,59.916841603,sequenceLearningTask,001,088,
min1.png,min2.png,min3.png,min4.png,allBlank.png,,,,,,,,,,,,0,6,6,6,,,,,,,,,"(-0.25, -0.04)",images/min2.png,7,0.0609874621587,0.52298193929,[ 0.23572474 -0.00520833],,,2018_Jun_22_1730,59.916841603,sequenceLearningTask,001,088,
min1.png,min2.png,min3.png,min4.png,allBlank.png,,,,,,,,,,,,0,6,6,6,,,,,,,,,"(0.75, -0.04)",images/min4.png,7,0.0593558730852,0.364550004288,[-0.21083455 -0.15625   ],,,2018_Jun_22_1730,59.916841603,sequenceLearningTask,001,088,
min1.png,min2.png,min3.png,min4.png,allBlank.png,,,,,,,,,,,,0,6,6,6,,,,,,,,,"(0.75, -0.04)",images/min4.png,7,0.0537341318013,0.653655526705,[ 0.70131772 -0.02604167],,,2018_Jun_22_1730,59.916841603,sequenceLearningTask,001,088,
min1.png,min2.png,min3.png,min4.png,allBlank.png,,,,,,,,,,,,0,6,6,6,,,,,,,,,"(-0.25, -0.04)",images/min2.png,7,0.0592044885307,0.480608213084,[ 0.82430454  0.02083333],,,2018_Jun_22_1730,59.916841603,sequenceLearningTask,001,088,
min1.png,min2.png,min3.png,min4.png,allBlank.png,,,,,,,,,,,,0,6,6,6,,,,,,,,,"(0.25, -0.04)",images/min3.png,7,0.0540475675698,0.454092121397,[-0.26354319 -0.02083333],,,2018_Jun_22_1730,59.916841603,sequenceLearningTask,001,088,
min1.png,min2.png,min3.png,min4.png,allBlank.png,,,,,,,,,,,,0,6,6,6,,,,,,,,,"(0.75, -0.04)",images/min4.png,7,0.0553218234563,0.450628738203,[ 0.24450952 -0.09635417],,,2018_Jun_22_1730,59.916841603,sequenceLearningTask,001,088,
min1.png,min2.png,min3.png,min4.png,allBlank.png,,,,,,,,,,,,0,7,7,7,,,,,,,,,"(-0.75, -0.04)",images/min1.png,8,0.0607556673822,0.4285183883,[ 0.70424597 -0.08854167],,,2018_Jun_22_1730,59.916841603,sequenceLearningTask,001,088,
min1.png,min2.png,min3.png,min4.png,allBlank.png,,,,,,,,,,,,0,7,7,7,,,,,,,,,"(0.25, -0.04)",images/min3.png,8,0.0538157727933,0.619324463865,[-0.6295754  -0.20052083],,,2018_Jun_22_1730,59.916841603,sequenceLearningTask,001,088,
min1.png,min2.png,min3.png,min4.png,allBlank.png,,,,,,,,,,,,0,7,7,7,,,,,,,,,"(-0.25, -0.04)",images/min2.png,8,0.0552414132344,0.834297914134,[ 0.12152269 -0.0703125 ],,,2018_Jun_22_1730,59.916841603,sequenceLearningTask,001,088,
min1.png,min2.png,min3.png,min4.png,allBlank.png,,,,,,,,,,,,0,7,7,7,,,,,,,,,"(0.75, -0.04)",images/min4.png,8,0.0594243858777,0.510770662248,[-0.28989751 -0.08333333],,,2018_Jun_22_1730,59.916841603,sequenceLearningTask,001,088,
min1.png,min2.png,min3.png,min4.png,allBlank.png,,,,,,,,,,,,0,7,7,7,,,,,,,,,"(0.75, -0.04)",images/min4.png,8,0.0545497212097,0.568043664392,[ 0.64421669 -0.01041667],,,2018_Jun_22_1730,59.916841603,sequenceLearningTask,001,088,
min1.png,min2.png,min3.png,min4.png,allBlank.png,,,,,,,,,,,,0,7,7,7,,,,,,,,,"(-0.25, -0.04)",images/min2.png,8,0.0596213088738,0.478341957603,[ 0.761347   -0.00520833],,,2018_Jun_22_1730,59.916841603,sequenceLearningTask,001,088,
min1.png,min2.png,min3.png,min4.png,allBlank.png,,,,,,,,,,,,0,7,7,7,,,,,,,,,"(0.25, -0.04)",images/min3.png,8,0.0550777209937,0.417272033939,[-0.10688141 -0.0703125 ],,,2018_Jun_22_1730,59.916841603,sequenceLearningTask,001,088,
min1.png,min2.png,min3.png,min4.png,allBlank.png,,,,,,,,,,,,0,7,7,7,,,,,,,,,"(0.75, -0.04)",images/min4.png,8,0.0537997728006,0.401411117369,[ 0.29868228 -0.04947917],,,2018_Jun_22_1730,59.916841603,sequenceLearningTask,001,088,
min1.png,min2.png,min3.png,min4.png,allBlank.png,,,,,,,,,,,,0,8,8,8,,,,,,,,,"(-0.75, -0.04)",images/min1.png,9,0.0554178234179,0.630168767109,[ 0.73060029 -0.07552083],,,2018_Jun_22_1730,59.916841603,sequenceLearningTask,001,088,
min1.png,min2.png,min3.png,min4.png,allBlank.png,,,,,,,,,,,,0,8,8,8,,,,,,,,,"(0.25, -0.04)",images/min3.png,9,0.0526092091859,0.417818495254,[-0.65446559 -0.14322917],,,2018_Jun_22_1730,59.916841603,sequenceLearningTask,001,088,
min1.png,min2.png,min3.png,min4.png,allBlank.png,,,,,,,,,,,,0,8,8,8,,,,,,,,,"(-0.25, -0.04)",images/min2.png,9,0.0601948470994,0.89444845356,[ 0.27525622 -0.09375   ],,,2018_Jun_22_1730,59.916841603,sequenceLearningTask,001,088,
min1.png,min2.png,min3.png,min4.png,allBlank.png,,,,,,,,,,,,0,8,8,8,,,,,,,,,"(0.75, -0.04)",images/min4.png,9,0.05767505326,0.515195275817,[-0.23718887 -0.0859375 ],,,2018_Jun_22_1730,59.916841603,sequenceLearningTask,001,088,
min1.png,min2.png,min3.png,min4.png,allBlank.png,,,,,,,,,,,,0,8,8,8,,,,,,,,,"(0.75, -0.04)",images/min4.png,9,0.0540553624396,0.717762987584,[ 0.71449488 -0.04947917],,,2018_Jun_22_1730,59.916841603,sequenceLearningTask,001,088,
min1.png,min2.png,min3.png,min4.png,allBlank.png,,,,,,,,,,,,0,8,8,8,,,,,,,,,"(-0.25, -0.04)",images/min2.png,9,0.0601530009626,0.477858675751,[ 0.63396779  0.01822917],,,2018_Jun_22_1730,59.916841603,sequenceLearningTask,001,088,
min1.png,min2.png,min3.png,min4.png,allBlank.png,,,,,,,,,,,,0,8,8,8,,,,,,,,,"(0.25, -0.04)",images/min3.png,9,0.0564188486478,0.468023192607,[-0.2489019  -0.11458333],,,2018_Jun_22_1730,59.916841603,sequenceLearningTask,001,088,
min1.png,min2.png,min3.png,min4.png,allBlank.png,,,,,,,,,,,,0,8,8,8,,,,,,,,,"(0.75, -0.04)",images/min4.png,9,0.0572303354948,0.449129661896,[ 0.23133236 -0.01041667],,,2018_Jun_22_1730,59.916841603,sequenceLearningTask,001,088,
min1.png,min2.png,min3.png,min4.png,allBlank.png,,,,,,,,,,,,0,9,9,9,,,,,,,,,"(-0.75, -0.04)",images/min1.png,10,0.0527778245014,0.602805086028,[ 0.66178624  0.04947917],,,2018_Jun_22_1730,59.916841603,sequenceLearningTask,001,088,
min1.png,min2.png,min3.png,min4.png,allBlank.png,,,,,,,,,,,,0,9,9,9,,,,,,,,,"(0.25, -0.04)",images/min3.png,10,0.0596643857789,0.513930455825,[-0.65300146 -0.23177083],,,2018_Jun_22_1730,59.916841603,sequenceLearningTask,001,088,
min1.png,min2.png,min3.png,min4.png,allBlank.png,,,,,,,,,,,,0,9,9,9,,,,,,,,,"(-0.25, -0.04)",images/min2.png,10,0.0542034649425,0.618043233624,[ 0.32796486  0.06770833],,,2018_Jun_22_1730,59.916841603,sequenceLearningTask,001,088,
min1.png,min2.png,min3.png,min4.png,allBlank.png,,,,,,,,,,,,0,9,9,9,,,,,,,,,"(0.75, -0.04)",images/min4.png,10,0.0554797721106,0.60246867591,[-0.2284041  -0.10416667],,,2018_Jun_22_1730,59.916841603,sequenceLearningTask,001,088,
min1.png,min2.png,min3.png,min4.png,allBlank.png,,,,,,,,,,,,0,9,9,9,,,,,,,,,"(0.75, -0.04)",images/min4.png,10,0.0599893087219,0.579514839173,[ 0.63250366 -0.03125   ],,,2018_Jun_22_1730,59.916841603,sequenceLearningTask,001,088,
min1.png,min2.png,min3.png,min4.png,allBlank.png,,,,,,,,,,,,0,9,9,9,,,,,,,,,"(-0.25, -0.04)",images/min2.png,10,0.0588709502063,0.529804500593,[ 0.64568082 -0.04427083],,,2018_Jun_22_1730,59.916841603,sequenceLearningTask,001,088,
min1.png,min2.png,min3.png,min4.png,allBlank.png,,,,,,,,,,,,0,9,9,9,,,,,,,,,"(0.25, -0.04)",images/min3.png,10,0.0579790531374,0.482814981409,[-0.24597365 -0.14322917],,,2018_Jun_22_1730,59.916841603,sequenceLearningTask,001,088,
min1.png,min2.png,min3.png,min4.png,allBlank.png,,,,,,,,,,,,0,9,9,9,,,,,,,,,"(0.75, -0.04)",images/min4.png,10,0.0533710550262,0.398337067349,[ 0.31771596 -0.01822917],,,2018_Jun_22_1730,59.916841603,sequenceLearningTask,001,088,
min1.png,min2.png,min3.png,min4.png,images/allBlank.png,"['num_7', 'num_4', 'num_1', 'num_0']",['num_1'],num_1,[3],'num_1',images/min3.png,"[(0.45, 0.79)]",,,,,0,-1,-1,0,0,0,0,2,,,,,"(-0.75, 0.04)",images/min1.png,1,0.0326990635076,0.55670705366,[-0.23572474 -0.16145833],,,2018_Jun_22_1730,59.916841603,sequenceLearningTask,001,088,
min1.png,min2.png,min3.png,min4.png,images/allBlank.png,"['num_7', 'num_4', 'num_1', 'num_0']",['num_1'],num_1,[3],'num_1',images/min3.png,"[(0.45, 0.79)]",,,,,0,-1,-1,0,0,0,0,2,,,,,"(-0.75, 0.04)",images/min1.png,1,0.0645173068642,0.585969400627,[-0.64568082 -0.18229167],,,2018_Jun_22_1730,59.916841603,sequenceLearningTask,001,088,
min1.png,min2.png,min3.png,min4.png,images/allBlank.png,"['num_7', 'num_4', 'num_1', 'num_0']",['num_1'],num_1,[3],'num_1',images/min3.png,"[(0.45, 0.79)]",,,,,0,-1,-1,0,0,0,0,2,,,,,"(-0.75, 0.04)",images/min1.png,1,0.0585735144305,0.591949705868,[-0.69838946 -0.234375  ],,,2018_Jun_22_1730,59.916841603,sequenceLearningTask,001,088,
min1.png,min2.png,min3.png,min4.png,images/allBlank.png,"['num_7', 'num_4', 'num_1', 'num_0']",['num_1'],num_1,[3],'num_1',images/min3.png,"[(0.45, 0.79)]",,,,,0,-1,-1,0,0,0,0,2,,,,,"(0.25, 0.04)",images/min3.png,1,0.0589078732683,0.541616188055,[-0.67935578 -0.3125    ],,,2018_Jun_22_1730,59.916841603,sequenceLearningTask,001,088,
min1.png,min2.png,min3.png,min4.png,images/allBlank.png,"['num_7', 'num_4', 'num_1', 'num_0']",['num_4'],num_4,[2],'num_4',images/min2.png,"[(0.45, 0.79)]",,,,,0,-1,-1,0,0,1,1,1,,,,,"(0.75, 0.04)",images/min4.png,2,0.0556734130569,0.492967182372,[ 0.32650073 -0.13802083],,,2018_Jun_22_1730,59.916841603,sequenceLearningTask,001,088,
min1.png,min2.png,min3.png,min4.png,images/allBlank.png,"['num_7', 'num_4', 'num_1', 'num_0']",['num_4'],num_4,[2],'num_4',images/min2.png,"[(0.45, 0.79)]",,,,,0,-1,-1,0,0,1,1,1,,,,,"(-0.75, 0.04)",images/min1.png,2,0.0469653140663,0.536949523303,[ 0.68814056 -0.1015625 ],,,2018_Jun_22_1730,59.916841603,sequenceLearningTask,001,088,
min1.png,min2.png,min3.png,min4.png,images/allBlank.png,"['num_7', 'num_4', 'num_1', 'num_0']",['num_4'],num_4,[2],'num_4',images/min2.png,"[(0.45, 0.79)]",,,,,0,-1,-1,0,0,1,1,1,,,,,"(0.75, 0.04)",images/min4.png,2,0.0636791533616,0.754226562369,[-0.6852123  -0.22916667],,,2018_Jun_22_1730,59.916841603,sequenceLearningTask,001,088,
min1.png,min2.png,min3.png,min4.png,images/allBlank.png,"['num_7', 'num_4', 'num_1', 'num_0']",['num_4'],num_4,[2],'num_4',images/min2.png,"[(0.45, 0.79)]",,,,,0,-1,-1,0,0,1,1,1,,,,,"(0.75, 0.04)",images/min4.png,2,0.0578247967896,0.893181582285,[ 0.78038067 -0.15104167],,,2018_Jun_22_1730,59.916841603,sequenceLearningTask,001,088,
min1.png,min2.png,min3.png,min4.png,images/allBlank.png,"['num_7', 'num_4', 'num_1', 'num_0']",['num_7'],num_7,[1],'num_7',images/min1.png,"[(0.45, 0.79)]",,,,,0,-1,-1,0,0,2,2,0,,,,,"(0.75, 0.04)",images/min4.png,3,0.0601037702127,0.604695957049,[ 0.80087848 -0.20833333],,,2018_Jun_22_1730,59.916841603,sequenceLearningTask,001,088,
min1.png,min2.png,min3.png,min4.png,images/allBlank.png,"['num_7', 'num_4', 'num_1', 'num_0']",['num_7'],num_7,[1],'num_7',images/min1.png,"[(0.45, 0.79)]",,,,,0,-1,-1,0,0,2,2,0,,,,,"(-0.75, 0.04)",images/min1.png,3,0.0623663333899,0.687834384478,[ 0.74816984 -0.06770833],,,2018_Jun_22_1730,59.916841603,sequenceLearningTask,001,088,
min1.png,min2.png,min3.png,min4.png,images/allBlank.png,"['num_7', 'num_4', 'num_1', 'num_0']",['num_7'],num_7,[1],'num_7',images/min1.png,"[(0.45, 0.79)]",,,,,0,-1,-1,0,0,2,2,0,,,,,"(-0.75, 0.04)",images/min1.png,3,0.0544451058686,0.74679107824,[-0.74084919 -0.11458333],,,2018_Jun_22_1730,59.916841603,sequenceLearningTask,001,088,
min1.png,min2.png,min3.png,min4.png,images/allBlank.png,"['num_7', 'num_4', 'num_1', 'num_0']",['num_7'],num_7,[1],'num_7',images/min1.png,"[(0.45, 0.79)]",,,,,0,-1,-1,0,0,2,2,0,,,,,"(-0.25, 0.04)",images/min2.png,3,0.027698860431,0.607722827601,[-0.67642753 -0.12239583],,,2018_Jun_22_1730,59.916841603,sequenceLearningTask,001,088,
min1.png,min2.png,min3.png,min4.png,images/allBlank.png,"['num_7', 'num_4', 'num_1', 'num_0']",['num_0'],num_0,[4],'num_0',images/min4.png,"[(0.45, 0.79)]",,,,,0,-1,-1,0,0,3,3,3,,,,,"(0.75, 0.04)",images/min4.png,4,0.0427458286176,0.540272188606,[-0.23133236 -0.03385417],,,2018_Jun_22_1730,59.916841603,sequenceLearningTask,001,088,
min1.png,min2.png,min3.png,min4.png,images/allBlank.png,"['num_7', 'num_4', 'num_1', 'num_0']",['num_0'],num_0,[4],'num_0',images/min4.png,"[(0.45, 0.79)]",,,,,0,-1,-1,0,0,3,3,3,,,,,"(-0.75, 0.04)",images/min1.png,4,0.0641246916421,0.653124655129,[ 0.61786237  0.00260417],,,2018_Jun_22_1730,59.916841603,sequenceLearningTask,001,088,
min1.png,min2.png,min3.png,min4.png,images/allBlank.png,"['num_7', 'num_4', 'num_1', 'num_0']",['num_0'],num_0,[4],'num_0',images/min4.png,"[(0.45, 0.79)]",,,,,0,-1,-1,0,0,3,3,3,,,,,"(0.25, 0.04)",images/min3.png,4,0.0542239777551,0.578666019008,[-0.66617862 -0.22135417],,,2018_Jun_22_1730,59.916841603,sequenceLearningTask,001,088,
min1.png,min2.png,min3.png,min4.png,images/allBlank.png,"['num_7', 'num_4', 'num_1', 'num_0']",['num_0'],num_0,[4],'num_0',images/min4.png,"[(0.45, 0.79)]",,,,,0,-1,-1,0,0,3,3,3,,,,,"(-0.75, 0.04)",images/min1.png,4,0.0574805918022,0.659298601315,[ 0.27818448  0.06510417],,,2018_Jun_22_1730,59.916841603,sequenceLearningTask,001,088,
min1.png,min2.png,min3.png,min4.png,images/allBlank.png,"['num_7', 'num_4', 'num_1', 'num_0']",['num_4'],num_4,[2],'num_4',images/min2.png,"[(0.45, 0.79)]",,,,,0,-1,-1,0,1,0,4,1,,,,,"(-0.75, 0.04)",images/min1.png,5,0.0512463379509,0.684730796007,[-0.6193265  -0.30989583],,,2018_Jun_22_1730,59.916841603,sequenceLearningTask,001,088,
min1.png,min2.png,min3.png,min4.png,images/allBlank.png,"['num_7', 'num_4', 'num_1', 'num_0']",['num_4'],num_4,[2],'num_4',images/min2.png,"[(0.45, 0.79)]",,,,,0,-1,-1,0,1,0,4,1,,,,,"(-0.25, 0.04)",images/min2.png,5,0.0557320796997,0.628586408786,[-0.68814056 -0.11458333],,,2018_Jun_22_1730,59.916841603,sequenceLearningTask,001,088,
min1.png,min2.png,min3.png,min4.png,images/allBlank.png,"['num_7', 'num_4', 'num_1', 'num_0']",['num_4'],num_4,[2],'num_4',images/min2.png,"[(0.45, 0.79)]",,,,,0,-1,-1,0,1,0,4,1,,,,,"(-0.75, 0.04)",images/min1.png,5,0.0558822334842,0.662610189698,[-0.26354319 -0.11979167],,,2018_Jun_22_1730,59.916841603,sequenceLearningTask,001,088,
min1.png,min2.png,min3.png,min4.png,images/allBlank.png,"['num_7', 'num_4', 'num_1', 'num_0']",['num_4'],num_4,[2],'num_4',images/min2.png,"[(0.45, 0.79)]",,,,,0,-1,-1,0,1,0,4,1,,,,,"(-0.25, 0.04)",images/min2.png,5,0.0528832603559,0.449046379879,[-0.71303075 -0.2109375 ],,,2018_Jun_22_1730,59.916841603,sequenceLearningTask,001,088,
min1.png,min2.png,min3.png,min4.png,images/allBlank.png,"['num_7', 'num_4', 'num_1', 'num_0']",['num_1'],num_1,[3],'num_1',images/min3.png,"[(0.45, 0.79)]",,,,,0,-1,-1,0,1,1,5,2,,,,,"(-0.75, 0.04)",images/min1.png,6,0.0568779253845,0.959984426674,[-0.15812592 -0.0625    ],,,2018_Jun_22_1730,59.916841603,sequenceLearningTask,001,088,
min1.png,min2.png,min3.png,min4.png,images/allBlank.png,"['num_7', 'num_4', 'num_1', 'num_0']",['num_1'],num_1,[3],'num_1',images/min3.png,"[(0.45, 0.79)]",,,,,0,-1,-1,0,1,1,5,2,,,,,"(0.75, 0.04)",images/min4.png,6,0.0518621325682,0.733062673615,[-0.69838946 -0.22135417],,,2018_Jun_22_1730,59.916841603,sequenceLearningTask,001,088,
min1.png,min2.png,min3.png,min4.png,images/allBlank.png,"['num_7', 'num_4', 'num_1', 'num_0']",['num_1'],num_1,[3],'num_1',images/min3.png,"[(0.45, 0.79)]",,,,,0,-1,-1,0,1,1,5,2,,,,,"(-0.25, 0.04)",images/min2.png,6,0.0638284866345,0.556474028113,[ 0.73645681 -0.09114583],,,2018_Jun_22_1730,59.916841603,sequenceLearningTask,001,088,
min1.png,min2.png,min3.png,min4.png,images/allBlank.png,"['num_7', 'num_4', 'num_1', 'num_0']",['num_1'],num_1,[3],'num_1',images/min3.png,"[(0.45, 0.79)]",,,,,0,-1,-1,0,1,1,5,2,,,,,"(0.25, 0.04)",images/min3.png,6,0.0532053115057,0.464142989071,[-0.31185944 -0.01041667],,,2018_Jun_22_1730,59.916841603,sequenceLearningTask,001,088,
min1.png,min2.png,min3.png,min4.png,images/allBlank.png,"['num_7', 'num_4', 'num_1', 'num_0']",['num_7'],num_7,[1],'num_7',images/min1.png,"[(0.45, 0.79)]",,,,,0,-1,-1,0,1,2,6,0,,,,,"(-0.75, 0.04)",images/min1.png,7,0.0526247989237,0.647490195901,[ 0.28989751 -0.05729167],,,2018_Jun_22_1730,59.916841603,sequenceLearningTask,001,088,
min1.png,min2.png,min3.png,min4.png,images/allBlank.png,"['num_7', 'num_4', 'num_1', 'num_0']",['num_7'],num_7,[1],'num_7',images/min1.png,"[(0.45, 0.79)]",,,,,0,-1,-1,0,1,2,6,0,,,,,"(-0.25, 0.04)",images/min2.png,7,0.0543047982337,0.448022790555,[-0.69692533 -0.15104167],,,2018_Jun_22_1730,59.916841603,sequenceLearningTask,001,088,
min1.png,min2.png,min3.png,min4.png,images/allBlank.png,"['num_7', 'num_4', 'num_1', 'num_0']",['num_7'],num_7,[1],'num_7',images/min1.png,"[(0.45, 0.79)]",,,,,0,-1,-1,0,1,2,6,0,,,,,"(-0.75, 0.04)",images/min1.png,7,0.0529173116247,0.549602646317,[-0.17862372 -0.0546875 ],,,2018_Jun_22_1730,59.916841603,sequenceLearningTask,001,088,
min1.png,min2.png,min3.png,min4.png,images/allBlank.png,"['num_7', 'num_4', 'num_1', 'num_0']",['num_7'],num_7,[1],'num_7',images/min1.png,"[(0.45, 0.79)]",,,,,0,-1,-1,0,1,2,6,0,,,,,"(0.25, 0.04)",images/min3.png,7,0.057533104602,0.526028912398,[-0.58711567 -0.1953125 ],,,2018_Jun_22_1730,59.916841603,sequenceLearningTask,001,088,
min1.png,min2.png,min3.png,min4.png,images/allBlank.png,"['num_7', 'num_4', 'num_1', 'num_0']",['num_0'],num_0,[4],'num_0',images/min4.png,"[(0.45, 0.79)]",,,,,0,-1,-1,0,1,3,7,3,,,,,"(0.75, 0.04)",images/min4.png,8,0.0547618236869,0.694906381577,[ 0.18301611 -0.0078125 ],,,2018_Jun_22_1730,59.916841603,sequenceLearningTask,001,088,
min1.png,min2.png,min3.png,min4.png,images/allBlank.png,"['num_7', 'num_4', 'num_1', 'num_0']",['num_0'],num_0,[4],'num_0',images/min4.png,"[(0.45, 0.79)]",,,,,0,-1,-1,0,1,3,7,3,,,,,"(0.25, 0.04)",images/min3.png,8,0.066205101044,0.536379267127,[ 0.66764275  0.13541667],,,2018_Jun_22_1730,59.916841603,sequenceLearningTask,001,088,
min1.png,min2.png,min3.png,min4.png,images/allBlank.png,"['num_7', 'num_4', 'num_1', 'num_0']",['num_0'],num_0,[4],'num_0',images/min4.png,"[(0.45, 0.79)]",,,,,0,-1,-1,0,1,3,7,3,,,,,"(0.25, 0.04)",images/min3.png,8,0.0532918755725,0.61456015813,[ 0.27525622  0.0625    ],,,2018_Jun_22_1730,59.916841603,sequenceLearningTask,001,088,
min1.png,min2.png,min3.png,min4.png,images/allBlank.png,"['num_7', 'num_4', 'num_1', 'num_0']",['num_0'],num_0,[4],'num_0',images/min4.png,"[(0.45, 0.79)]",,,,,0,-1,-1,0,1,3,7,3,,,,,"(-0.75, 0.04)",images/min1.png,8,0.0361686005472,0.734311903872,[ 0.32357247 -0.0078125 ],,,2018_Jun_22_1730,59.916841603,sequenceLearningTask,001,088,
min1.png,min2.png,min3.png,min4.png,images/allBlank.png,"['num_7', 'num_4', 'num_1', 'num_0']",['num_1'],num_1,[3],'num_1',images/min3.png,"[(0.45, 0.79)]",,,,,0,-1,-1,0,2,0,8,2,,,,,"(-0.75, 0.04)",images/min1.png,9,0.0506892099729,0.648085477709,[-0.61493411 -0.22916667],,,2018_Jun_22_1730,59.916841603,sequenceLearningTask,001,088,
min1.png,min2.png,min3.png,min4.png,images/allBlank.png,"['num_7', 'num_4', 'num_1', 'num_0']",['num_1'],num_1,[3],'num_1',images/min3.png,"[(0.45, 0.79)]",,,,,0,-1,-1,0,2,0,8,2,,,,,"(0.75, 0.04)",images/min4.png,9,0.0524676707828,0.697258380613,[-0.64128843 -0.20572917],,,2018_Jun_22_1730,59.916841603,sequenceLearningTask,001,088,
min1.png,min2.png,min3.png,min4.png,images/allBlank.png,"['num_7', 'num_4', 'num_1', 'num_0']",['num_1'],num_1,[3],'num_1',images/min3.png,"[(0.45, 0.79)]",,,,,0,-1,-1,0,2,0,8,2,,,,,"(-0.75, 0.04)",images/min1.png,9,0.0554851054421,0.645860247852,[ 0.68960469 -0.140625  ],,,2018_Jun_22_1730,59.916841603,sequenceLearningTask,001,088,
min1.png,min2.png,min3.png,min4.png,images/allBlank.png,"['num_7', 'num_4', 'num_1', 'num_0']",['num_1'],num_1,[3],'num_1',images/min3.png,"[(0.45, 0.79)]",,,,,0,-1,-1,0,2,0,8,2,,,,,"(-0.75, 0.04)",images/min1.png,9,0.0549316697725,0.713820425099,[-0.66032211 -0.22135417],,,2018_Jun_22_1730,59.916841603,sequenceLearningTask,001,088,
min1.png,min2.png,min3.png,min4.png,images/allBlank.png,"['num_7', 'num_4', 'num_1', 'num_0']",['num_4'],num_4,[2],'num_4',images/min2.png,"[(0.45, 0.79)]",,,,,0,-1,-1,0,2,1,9,1,,,,,"(-0.25, 0.04)",images/min2.png,10,0.0611023339079,0.537654343525,[-0.65739385 -0.24739583],,,2018_Jun_22_1730,59.916841603,sequenceLearningTask,001,088,
min1.png,min2.png,min3.png,min4.png,images/allBlank.png,"['num_7', 'num_4', 'num_1', 'num_0']",['num_4'],num_4,[2],'num_4',images/min2.png,"[(0.45, 0.79)]",,,,,0,-1,-1,0,2,1,9,1,,,,,"(0.25, 0.04)",images/min3.png,10,0.053478952419,0.497697436844,[-0.15080527 -0.09114583],,,2018_Jun_22_1730,59.916841603,sequenceLearningTask,001,088,
min1.png,min2.png,min3.png,min4.png,images/allBlank.png,"['num_7', 'num_4', 'num_1', 'num_0']",['num_4'],num_4,[2],'num_4',images/min2.png,"[(0.45, 0.79)]",,,,,0,-1,-1,0,2,1,9,1,,,,,"(-0.25, 0.04)",images/min2.png,10,0.0528512603687,0.663520958555,[ 0.25622255 -0.05989583],,,2018_Jun_22_1730,59.916841603,sequenceLearningTask,001,088,
min1.png,min2.png,min3.png,min4.png,images/allBlank.png,"['num_7', 'num_4', 'num_1', 'num_0']",['num_4'],num_4,[2],'num_4',images/min2.png,"[(0.45, 0.79)]",,,,,0,-1,-1,0,2,1,9,1,,,,,"(0.25, 0.04)",images/min3.png,10,0.05795361725,0.459963708734,[-0.18008785 -0.20572917],,,2018_Jun_22_1730,59.916841603,sequenceLearningTask,001,088,
min1.png,min2.png,min3.png,min4.png,images/allBlank.png,"['num_7', 'num_4', 'num_1', 'num_0']",['num_0'],num_0,[4],'num_0',images/min4.png,"[(0.45, 0.79)]",,,,,0,-1,-1,0,2,2,10,3,,,,,"(0.25, 0.04)",images/min3.png,11,0.0571027458027,0.424334595145,[ 0.29575403 -0.0625    ],,,2018_Jun_22_1730,59.916841603,sequenceLearningTask,001,088,
min1.png,min2.png,min3.png,min4.png,images/allBlank.png,"['num_7', 'num_4', 'num_1', 'num_0']",['num_0'],num_0,[4],'num_0',images/min4.png,"[(0.45, 0.79)]",,,,,0,-1,-1,0,2,2,10,3,,,,,"(-0.75, 0.04)",images/min1.png,11,0.0609008980919,0.707519709737,[ 0.26500732 -0.0703125 ],,,2018_Jun_22_1730,59.916841603,sequenceLearningTask,001,088,
min1.png,min2.png,min3.png,min4.png,images/allBlank.png,"['num_7', 'num_4', 'num_1', 'num_0']",['num_0'],num_0,[4],'num_0',images/min4.png,"[(0.45, 0.79)]",,,,,0,-1,-1,0,2,2,10,3,,,,,"(-0.25, 0.04)",images/min2.png,11,0.0587634630701,0.541612495748,[-0.66032211 -0.171875  ],,,2018_Jun_22_1730,59.916841603,sequenceLearningTask,001,088,
min1.png,min2.png,min3.png,min4.png,images/allBlank.png,"['num_7', 'num_4', 'num_1', 'num_0']",['num_0'],num_0,[4],'num_0',images/min4.png,"[(0.45, 0.79)]",,,,,0,-1,-1,0,2,2,10,3,,,,,"(-0.75, 0.04)",images/min1.png,11,0.0523281836595,0.681742899797,[-0.17569546 -0.08333333],,,2018_Jun_22_1730,59.916841603,sequenceLearningTask,001,088,
min1.png,min2.png,min3.png,min4.png,images/allBlank.png,"['num_7', 'num_4', 'num_1', 'num_0']",['num_7'],num_7,[1],'num_7',images/min1.png,"[(0.45, 0.79)]",,,,,0,-1,-1,0,2,3,11,0,,,,,"(0.25, 0.04)",images/min3.png,12,0.0551462337862,0.725278881937,[-0.69399707 -0.11197917],,,2018_Jun_22_1730,59.916841603,sequenceLearningTask,001,088,
min1.png,min2.png,min3.png,min4.png,images/allBlank.png,"['num_7', 'num_4', 'num_1', 'num_0']",['num_7'],num_7,[1],'num_7',images/min1.png,"[(0.45, 0.79)]",,,,,0,-1,-1,0,2,3,11,0,,,,,"(-0.25, 0.04)",images/min2.png,12,0.0645521786446,0.63520589325,[ 0.17715959 -0.20052083],,,2018_Jun_22_1730,59.916841603,sequenceLearningTask,001,088,
min1.png,min2.png,min3.png,min4.png,images/allBlank.png,"['num_7', 'num_4', 'num_1', 'num_0']",['num_7'],num_7,[1],'num_7',images/min1.png,"[(0.45, 0.79)]",,,,,0,-1,-1,0,2,3,11,0,,,,,"(0.75, 0.04)",images/min4.png,12,0.0529300295675,0.699447507919,[-0.24158126 -0.2890625 ],,,2018_Jun_22_1730,59.916841603,sequenceLearningTask,001,088,
min1.png,min2.png,min3.png,min4.png,images/allBlank.png,"['num_7', 'num_4', 'num_1', 'num_0']",['num_7'],num_7,[1],'num_7',images/min1.png,"[(0.45, 0.79)]",,,,,0,-1,-1,0,2,3,11,0,,,,,"(0.75, 0.04)",images/min4.png,12,0.0576578224991,0.596743139798,[ 0.72620791 -0.01041667],,,2018_Jun_22_1730,59.916841603,sequenceLearningTask,001,088,
min1.png,min2.png,min3.png,min4.png,images/allBlank.png,"['num_7', 'num_4', 'num_1', 'num_0']",['num_1'],num_1,[3],'num_1',images/min3.png,"[(0.45, 0.79)]",,,,,0,-1,-1,0,3,0,12,2,,,,,"(-0.25, 0.04)",images/min2.png,13,0.0527056194023,0.547069724278,[ 0.75695461  0.02083333],,,2018_Jun_22_1730,59.916841603,sequenceLearningTask,001,088,
min1.png,min2.png,min3.png,min4.png,images/allBlank.png,"['num_7', 'num_4', 'num_1', 'num_0']",['num_1'],num_1,[3],'num_1',images/min3.png,"[(0.45, 0.79)]",,,,,0,-1,-1,0,3,0,12,2,,,,,"(0.75, 0.04)",images/min4.png,13,0.057533104602,0.464012527586,[-0.284041   -0.22135417],,,2018_Jun_22_1730,59.916841603,sequenceLearningTask,001,088,
min1.png,min2.png,min3.png,min4.png,images/allBlank.png,"['num_7', 'num_4', 'num_1', 'num_0']",['num_1'],num_1,[3],'num_1',images/min3.png,"[(0.45, 0.79)]",,,,,0,-1,-1,0,3,0,12,2,,,,,"(0.25, 0.04)",images/min3.png,13,0.057751771179,0.408576242637,[ 0.72181552  0.00520833],,,2018_Jun_22_1730,59.916841603,sequenceLearningTask,001,088,
min1.png,min2.png,min3.png,min4.png,images/allBlank.png,"['num_7', 'num_4', 'num_1', 'num_0']",['num_1'],num_1,[3],'num_1',images/min3.png,"[(0.45, 0.79)]",,,,,0,-1,-1,0,3,0,12,2,,,,,"(-0.25, 0.04)",images/min2.png,13,0.0546526955277,0.332089709911,[ 0.22547584 -0.07291667],,,2018_Jun_22_1730,59.916841603,sequenceLearningTask,001,088,
min1.png,min2.png,min3.png,min4.png,images/allBlank.png,"['num_7', 'num_4', 'num_1', 'num_0']",['num_7'],num_7,[1],'num_7',images/min1.png,"[(0.45, 0.79)]",,,,,0,-1,-1,0,3,1,13,0,,,,,"(-0.75, 0.04)",images/min1.png,14,0.0557037720191,0.541296188187,[-0.12005857 -0.19270833],0.541296188187,1,2018_Jun_22_1730,59.916841603,sequenceLearningTask,001,088,
min1.png,min2.png,min3.png,min4.png,images/allBlank.png,"['num_7', 'num_4', 'num_1', 'num_0']",['num_7'],num_7,[1],'num_7',images/min1.png,"[(0.45, 0.79)]",,,,,0,-1,-1,0,3,1,13,0,,,,,"(-0.75, 0.04)",images/min1.png,14,0.0607778212197,0.589930014388,[-0.65885798 -0.34635417],,,2018_Jun_22_1730,59.916841603,sequenceLearningTask,001,088,
min1.png,min2.png,min3.png,min4.png,images/allBlank.png,"['num_7', 'num_4', 'num_1', 'num_0']",['num_7'],num_7,[1],'num_7',images/min1.png,"[(0.45, 0.79)]",,,,,0,-1,-1,0,3,1,13,0,,,,,"(-0.75, 0.04)",images/min1.png,14,0.0560032590747,0.511130867228,[-0.60175695 -0.23958333],,,2018_Jun_22_1730,59.916841603,sequenceLearningTask,001,088,
min1.png,min2.png,min3.png,min4.png,images/allBlank.png,"['num_7', 'num_4', 'num_1', 'num_0']",['num_7'],num_7,[1],'num_7',images/min1.png,"[(0.45, 0.79)]",,,,,0,-1,-1,0,3,1,13,0,,,,,"(0.25, 0.04)",images/min3.png,14,0.0607253084199,0.590034629729,[-0.58711567 -0.28125   ],,,2018_Jun_22_1730,59.916841603,sequenceLearningTask,001,088,
min1.png,min2.png,min3.png,min4.png,images/allBlank.png,"['num_7', 'num_4', 'num_1', 'num_0']",['num_0'],num_0,[4],'num_0',images/min4.png,"[(0.45, 0.79)]",,,,,0,-1,-1,0,3,2,14,3,,,,,"(-0.75, 0.04)",images/min1.png,15,0.0571056175977,0.626128973896,[ 0.26793558  0.06510417],,,2018_Jun_22_1730,59.916841603,sequenceLearningTask,001,088,
min1.png,min2.png,min3.png,min4.png,images/allBlank.png,"['num_7', 'num_4', 'num_1', 'num_0']",['num_0'],num_0,[4],'num_0',images/min4.png,"[(0.45, 0.79)]",,,,,0,-1,-1,0,3,2,14,3,,,,,"(-0.75, 0.04)",images/min1.png,15,0.0544303366441,0.595989909336,[-0.57833089 -0.24739583],,,2018_Jun_22_1730,59.916841603,sequenceLearningTask,001,088,
min1.png,min2.png,min3.png,min4.png,images/allBlank.png,"['num_7', 'num_4', 'num_1', 'num_0']",['num_0'],num_0,[4],'num_0',images/min4.png,"[(0.45, 0.79)]",,,,,0,-1,-1,0,3,2,14,3,,,,,"(0.75, 0.04)",images/min4.png,15,0.0518658248766,0.667509879997,[-0.56515373 -0.29427083],,,2018_Jun_22_1730,59.916841603,sequenceLearningTask,001,088,
min1.png,min2.png,min3.png,min4.png,images/allBlank.png,"['num_7', 'num_4', 'num_1', 'num_0']",['num_0'],num_0,[4],'num_0',images/min4.png,"[(0.45, 0.79)]",,,,,0,-1,-1,0,3,2,14,3,,,,,"(-0.25, 0.04)",images/min2.png,15,0.0550514645947,0.681262079481,[ 0.74377745 -0.046875  ],,,2018_Jun_22_1730,59.916841603,sequenceLearningTask,001,088,
min1.png,min2.png,min3.png,min4.png,images/allBlank.png,"['num_7', 'num_4', 'num_1', 'num_0']",['num_4'],num_4,[2],'num_4',images/min2.png,"[(0.45, 0.79)]",,,,,0,-1,-1,0,3,3,15,1,,,,,"(-0.25, 0.04)",images/min2.png,16,0.0527023373525,0.544711161145,[-0.24597365 -0.05729167],,,2018_Jun_22_1730,59.916841603,sequenceLearningTask,001,088,
min1.png,min2.png,min3.png,min4.png,images/allBlank.png,"['num_7', 'num_4', 'num_1', 'num_0']",['num_4'],num_4,[2],'num_4',images/min2.png,"[(0.45, 0.79)]",,,,,0,-1,-1,0,3,3,15,1,,,,,"(0.75, 0.04)",images/min4.png,16,0.0492734156833,0.685073770226,[-0.21669107 -0.08854167],,,2018_Jun_22_1730,59.916841603,sequenceLearningTask,001,088,
min1.png,min2.png,min3.png,min4.png,images/allBlank.png,"['num_7', 'num_4', 'num_1', 'num_0']",['num_4'],num_4,[2],'num_4',images/min2.png,"[(0.45, 0.79)]",,,,,0,-1,-1,0,3,3,15,1,,,,,"(-0.75, 0.04)",images/min1.png,16,0.0565091050212,0.618623746206,[ 0.67203514  0.06770833],,,2018_Jun_22_1730,59.916841603,sequenceLearningTask,001,088,
min1.png,min2.png,min3.png,min4.png,images/allBlank.png,"['num_7', 'num_4', 'num_1', 'num_0']",['num_4'],num_4,[2],'num_4',images/min2.png,"[(0.45, 0.79)]",,,,,0,-1,-1,0,3,3,15,1,,,,,"(-0.75, 0.04)",images/min1.png,16,0.057882642921,0.608790314342,[-0.66764275 -0.32291667],,,2018_Jun_22_1730,59.916841603,sequenceLearningTask,001,088,
min1.png,min2.png,min3.png,min4.png,images/allBlank.png,"['num_7', 'num_4', 'num_1', 'num_0']",['num_0'],num_0,[4],'num_0',images/min4.png,"[(0.45, 0.79)]",,,,,0,-1,-1,0,4,0,16,3,,,,,"(0.75, 0.04)",images/min4.png,17,0.0560405923934,0.643980864008,[-0.57833089 -0.3125    ],,,2018_Jun_22_1730,59.916841603,sequenceLearningTask,001,088,
min1.png,min2.png,min3.png,min4.png,images/allBlank.png,"['num_7', 'num_4', 'num_1', 'num_0']",['num_0'],num_0,[4],'num_0',images/min4.png,"[(0.45, 0.79)]",,,,,0,-1,-1,0,4,0,16,3,,,,,"(-0.75, 0.04)",images/min1.png,17,0.0570818227352,0.695245253233,[ 0.73352855 -0.015625  ],,,2018_Jun_22_1730,59.916841603,sequenceLearningTask,001,088,
min1.png,min2.png,min3.png,min4.png,images/allBlank.png,"['num_7', 'num_4', 'num_1', 'num_0']",['num_0'],num_0,[4],'num_0',images/min4.png,"[(0.45, 0.79)]",,,,,0,-1,-1,0,4,0,16,3,,,,,"(-0.75, 0.04)",images/min1.png,17,0.0534793626757,0.616162208755,[-0.59004392 -0.3359375 ],,,2018_Jun_22_1730,59.916841603,sequenceLearningTask,001,088,
min1.png,min2.png,min3.png,min4.png,images/allBlank.png,"['num_7', 'num_4', 'num_1', 'num_0']",['num_0'],num_0,[4],'num_0',images/min4.png,"[(0.45, 0.79)]",,,,,0,-1,-1,0,4,0,16,3,,,,,"(0.75, 0.04)",images/min4.png,17,0.0504094152166,0.653150911528,[-0.58125915 -0.34375   ],,,2018_Jun_22_1730,59.916841603,sequenceLearningTask,001,088,
min1.png,min2.png,min3.png,min4.png,images/allBlank.png,"['num_7', 'num_4', 'num_1', 'num_0']",['num_1'],num_1,[3],'num_1',images/min3.png,"[(0.45, 0.79)]",,,,,0,-1,-1,0,4,1,17,2,,,,,"(-0.75, 0.04)",images/min1.png,18,0.0519921837986,0.547278134451,[ 0.83455344 -0.09114583],,,2018_Jun_22_1730,59.916841603,sequenceLearningTask,001,088,
min1.png,min2.png,min3.png,min4.png,images/allBlank.png,"['num_7', 'num_4', 'num_1', 'num_0']",['num_1'],num_1,[3],'num_1',images/min3.png,"[(0.45, 0.79)]",,,,,0,-1,-1,0,4,1,17,2,,,,,"(0.25, 0.04)",images/min3.png,18,0.0545382340351,0.615510721842,[-0.56661786 -0.33854167],,,2018_Jun_22_1730,59.916841603,sequenceLearningTask,001,088,
min1.png,min2.png,min3.png,min4.png,images/allBlank.png,"['num_7', 'num_4', 'num_1', 'num_0']",['num_1'],num_1,[3],'num_1',images/min3.png,"[(0.45, 0.79)]",,,,,0,-1,-1,0,4,1,17,2,,,,,"(0.75, 0.04)",images/min4.png,18,0.0553612080585,0.477505034869,[ 0.3147877   0.10416667],,,2018_Jun_22_1730,59.916841603,sequenceLearningTask,001,088,
min1.png,min2.png,min3.png,min4.png,images/allBlank.png,"['num_7', 'num_4', 'num_1', 'num_0']",['num_1'],num_1,[3],'num_1',images/min3.png,"[(0.45, 0.79)]",,,,,0,-1,-1,0,4,1,17,2,,,,,"(-0.25, 0.04)",images/min2.png,18,0.0533874652774,0.546827262839,[ 0.65007321 -0.12760417],,,2018_Jun_22_1730,59.916841603,sequenceLearningTask,001,088,
min1.png,min2.png,min3.png,min4.png,images/allBlank.png,"['num_7', 'num_4', 'num_1', 'num_0']",['num_7'],num_7,[1],'num_7',images/min1.png,"[(0.45, 0.79)]",,,,,0,-1,-1,0,4,2,18,0,,,,,"(0.75, 0.04)",images/min4.png,19,0.0554338234124,0.625994820104,[-0.21083455 -0.16145833],,,2018_Jun_22_1730,59.916841603,sequenceLearningTask,001,088,
min1.png,min2.png,min3.png,min4.png,images/allBlank.png,"['num_7', 'num_4', 'num_1', 'num_0']",['num_7'],num_7,[1],'num_7',images/min1.png,"[(0.45, 0.79)]",,,,,0,-1,-1,0,4,2,18,0,,,,,"(-0.25, 0.04)",images/min2.png,19,0.0515138250194,0.500936409871,[ 0.64275256 -0.109375  ],,,2018_Jun_22_1730,59.916841603,sequenceLearningTask,001,088,
min1.png,min2.png,min3.png,min4.png,images/allBlank.png,"['num_7', 'num_4', 'num_1', 'num_0']",['num_7'],num_7,[1],'num_7',images/min1.png,"[(0.45, 0.79)]",,,,,0,-1,-1,0,4,2,18,0,,,,,"(0.25, 0.04)",images/min3.png,19,0.0516709531603,0.582544991776,[-0.1420205  -0.18229167],,,2018_Jun_22_1730,59.916841603,sequenceLearningTask,001,088,
min1.png,min2.png,min3.png,min4.png,images/allBlank.png,"['num_7', 'num_4', 'num_1', 'num_0']",['num_7'],num_7,[1],'num_7',images/min1.png,"[(0.45, 0.79)]",,,,,0,-1,-1,0,4,2,18,0,,,,,"(-0.25, 0.04)",images/min2.png,19,0.0540524906446,0.596840780783,[ 0.2079063  -0.09114583],,,2018_Jun_22_1730,59.916841603,sequenceLearningTask,001,088,
min1.png,min2.png,min3.png,min4.png,images/allBlank.png,"['num_7', 'num_4', 'num_1', 'num_0']",['num_4'],num_4,[2],'num_4',images/min2.png,"[(0.45, 0.79)]",,,,,0,-1,-1,0,4,3,19,1,,,,,"(-0.75, 0.04)",images/min1.png,20,0.0622145385787,0.737767902456,[-0.13909224 -0.09635417],,,2018_Jun_22_1730,59.916841603,sequenceLearningTask,001,088,
min1.png,min2.png,min3.png,min4.png,images/allBlank.png,"['num_7', 'num_4', 'num_1', 'num_0']",['num_4'],num_4,[2],'num_4',images/min2.png,"[(0.45, 0.79)]",,,,,0,-1,-1,0,4,3,19,1,,,,,"(-0.75, 0.04)",images/min1.png,20,0.057653309681,0.643980043495,[-0.67935578 -0.22135417],,,2018_Jun_22_1730,59.916841603,sequenceLearningTask,001,088,
min1.png,min2.png,min3.png,min4.png,images/allBlank.png,"['num_7', 'num_4', 'num_1', 'num_0']",['num_4'],num_4,[2],'num_4',images/min2.png,"[(0.45, 0.79)]",,,,,0,-1,-1,0,4,3,19,1,,,,,"(0.75, 0.04)",images/min4.png,20,0.0605534110546,0.608251237642,[-0.61346999 -0.23177083],,,2018_Jun_22_1730,59.916841603,sequenceLearningTask,001,088,
min1.png,min2.png,min3.png,min4.png,images/allBlank.png,"['num_7', 'num_4', 'num_1', 'num_0']",['num_4'],num_4,[2],'num_4',images/min2.png,"[(0.45, 0.79)]",,,,,0,-1,-1,0,4,3,19,1,,,,,"(0.75, 0.04)",images/min4.png,20,0.0544857212371,0.595505396715,[ 0.77891654 -0.11458333],,,2018_Jun_22_1730,59.916841603,sequenceLearningTask,001,088,
min1.png,min2.png,min3.png,min4.png,allBlank.png,"['num_7', 'num_4', 'num_1', 'num_0']",['num_4'],num_4,[2],'num_4',images/min2.png,"[(0.45, 0.79)]",,,,,0,0,0,0,4,3,19,1,,,,,"(-0.75, -0.04)",images/min1.png,1,0.034024191169,0.732062468896,[-0.20644217 -0.20572917],,,2018_Jun_22_1730,59.916841603,sequenceLearningTask,001,088,
min1.png,min2.png,min3.png,min4.png,allBlank.png,"['num_7', 'num_4', 'num_1', 'num_0']",['num_4'],num_4,[2],'num_4',images/min2.png,"[(0.45, 0.79)]",,,,,0,0,0,0,4,3,19,1,,,,,"(0.25, -0.04)",images/min3.png,1,0.0619031540919,0.43838382015,[-0.57393851 -0.25520833],,,2018_Jun_22_1730,59.916841603,sequenceLearningTask,001,088,
min1.png,min2.png,min3.png,min4.png,allBlank.png,"['num_7', 'num_4', 'num_1', 'num_0']",['num_4'],num_4,[2],'num_4',images/min2.png,"[(0.45, 0.79)]",,,,,0,0,0,0,4,3,19,1,,,,,"(-0.25, -0.04)",images/min2.png,1,0.0563753614879,0.528064193615,[ 0.25329429 -0.1171875 ],,,2018_Jun_22_1730,59.916841603,sequenceLearningTask,001,088,
min1.png,min2.png,min3.png,min4.png,allBlank.png,"['num_7', 'num_4', 'num_1', 'num_0']",['num_4'],num_4,[2],'num_4',images/min2.png,"[(0.45, 0.79)]",,,,,0,0,0,0,4,3,19,1,,,,,"(0.75, -0.04)",images/min4.png,1,0.0536221318471,0.629984151803,[-0.2489019  -0.10416667],,,2018_Jun_22_1730,59.916841603,sequenceLearningTask,001,088,
min1.png,min2.png,min3.png,min4.png,allBlank.png,"['num_7', 'num_4', 'num_1', 'num_0']",['num_4'],num_4,[2],'num_4',images/min2.png,"[(0.45, 0.79)]",,,,,0,0,0,0,4,3,19,1,,,,,"(0.75, -0.04)",images/min4.png,1,0.06026787271,0.60725677651,[ 0.66471449 -0.00260417],,,2018_Jun_22_1730,59.916841603,sequenceLearningTask,001,088,
min1.png,min2.png,min3.png,min4.png,allBlank.png,"['num_7', 'num_4', 'num_1', 'num_0']",['num_4'],num_4,[2],'num_4',images/min2.png,"[(0.45, 0.79)]",,,,,0,0,0,0,4,3,19,1,,,,,"(-0.25, -0.04)",images/min2.png,1,0.0600606933076,0.557172284236,[ 0.70717423  0.07291667],,,2018_Jun_22_1730,59.916841603,sequenceLearningTask,001,088,
min1.png,min2.png,min3.png,min4.png,allBlank.png,"['num_7', 'num_4', 'num_1', 'num_0']",['num_4'],num_4,[2],'num_4',images/min2.png,"[(0.45, 0.79)]",,,,,0,0,0,0,4,3,19,1,,,,,"(0.25, -0.04)",images/min3.png,1,0.0569173099811,0.478029752603,[-0.23426061 -0.13541667],,,2018_Jun_22_1730,59.916841603,sequenceLearningTask,001,088,
min1.png,min2.png,min3.png,min4.png,allBlank.png,"['num_7', 'num_4', 'num_1', 'num_0']",['num_4'],num_4,[2],'num_4',images/min2.png,"[(0.45, 0.79)]",,,,,0,0,0,0,4,3,19,1,,,,,"(0.75, -0.04)",images/min4.png,1,0.0515429532134,0.448451508328,[ 0.24743777  0.03645833],,,2018_Jun_22_1730,59.916841603,sequenceLearningTask,001,088,
min1.png,min2.png,min3.png,min4.png,allBlank.png,"['num_7', 'num_4', 'num_1', 'num_0']",['num_4'],num_4,[2],'num_4',images/min2.png,"[(0.45, 0.79)]",,,,,0,1,1,1,4,3,19,1,,,,,"(-0.75, -0.04)",images/min1.png,2,0.0609657185796,0.587931245977,[ 0.66178624 -0.0390625 ],,,2018_Jun_22_1730,59.916841603,sequenceLearningTask,001,088,
min1.png,min2.png,min3.png,min4.png,allBlank.png,"['num_7', 'num_4', 'num_1', 'num_0']",['num_4'],num_4,[2],'num_4',images/min2.png,"[(0.45, 0.79)]",,,,,0,1,1,1,4,3,19,1,,,,,"(0.25, -0.04)",images/min3.png,2,0.0562268487265,0.477925957774,[-0.64128843 -0.140625  ],,,2018_Jun_22_1730,59.916841603,sequenceLearningTask,001,088,
min1.png,min2.png,min3.png,min4.png,allBlank.png,"['num_7', 'num_4', 'num_1', 'num_0']",['num_4'],num_4,[2],'num_4',images/min2.png,"[(0.45, 0.79)]",,,,,0,1,1,1,4,3,19,1,,,,,"(-0.25, -0.04)",images/min2.png,2,0.0527962860324,0.519012299894,[ 0.17569546 -0.05208333],,,2018_Jun_22_1730,59.916841603,sequenceLearningTask,001,088,
min1.png,min2.png,min3.png,min4.png,allBlank.png,"['num_7', 'num_4', 'num_1', 'num_0']",['num_4'],num_4,[2],'num_4',images/min2.png,"[(0.45, 0.79)]",,,,,0,1,1,1,4,3,19,1,,,,,"(0.75, -0.04)",images/min4.png,2,0.0557365925179,0.627906203936,[-0.21083455 -0.15364583],,,2018_Jun_22_1730,59.916841603,sequenceLearningTask,001,088,
min1.png,min2.png,min3.png,min4.png,allBlank.png,"['num_7', 'num_4', 'num_1', 'num_0']",['num_4'],num_4,[2],'num_4',images/min2.png,"[(0.45, 0.79)]",,,,,0,1,1,1,4,3,19,1,,,,,"(0.75, -0.04)",images/min4.png,2,0.0529501321234,0.697362175441,[ 0.73206442  0.06770833],,,2018_Jun_22_1730,59.916841603,sequenceLearningTask,001,088,
min1.png,min2.png,min3.png,min4.png,allBlank.png,"['num_7', 'num_4', 'num_1', 'num_0']",['num_4'],num_4,[2],'num_4',images/min2.png,"[(0.45, 0.79)]",,,,,0,1,1,1,4,3,19,1,,,,,"(-0.25, -0.04)",images/min2.png,2,0.0565152588661,0.545093930217,[ 0.68667643 -0.0703125 ],,,2018_Jun_22_1730,59.916841603,sequenceLearningTask,001,088,
min1.png,min2.png,min3.png,min4.png,allBlank.png,"['num_7', 'num_4', 'num_1', 'num_0']",['num_4'],num_4,[2],'num_4',images/min2.png,"[(0.45, 0.79)]",,,,,0,1,1,1,4,3,19,1,,,,,"(0.25, -0.04)",images/min3.png,2,0.059869103643,0.424952030789,[-0.20937042 -0.01822917],,,2018_Jun_22_1730,59.916841603,sequenceLearningTask,001,088,
min1.png,min2.png,min3.png,min4.png,allBlank.png,"['num_7', 'num_4', 'num_1', 'num_0']",['num_4'],num_4,[2],'num_4',images/min2.png,"[(0.45, 0.79)]",,,,,0,1,1,1,4,3,19,1,,,,,"(0.75, -0.04)",images/min4.png,2,0.0489886978521,0.406944243305,[ 0.28111274 -0.03385417],,,2018_Jun_22_1730,59.916841603,sequenceLearningTask,001,088,
min1.png,min2.png,min3.png,min4.png,allBlank.png,"['num_7', 'num_4', 'num_1', 'num_0']",['num_4'],num_4,[2],'num_4',images/min2.png,"[(0.45, 0.79)]",,,,,0,2,2,2,4,3,19,1,,,,,"(-0.75, -0.04)",images/min1.png,3,0.0544098238315,0.593990320414,[ 0.70278184 -0.02083333],,,2018_Jun_22_1730,59.916841603,sequenceLearningTask,001,088,
min1.png,min2.png,min3.png,min4.png,allBlank.png,"['num_7', 'num_4', 'num_1', 'num_0']",['num_4'],num_4,[2],'num_4',images/min2.png,"[(0.45, 0.79)]",,,,,0,2,2,2,4,3,19,1,,,,,"(0.25, -0.04)",images/min3.png,3,0.0532504396924,0.398370298104,[-0.64421669 -0.17447917],,,2018_Jun_22_1730,59.916841603,sequenceLearningTask,001,088,
min1.png,min2.png,min3.png,min4.png,allBlank.png,"['num_7', 'num_4', 'num_1', 'num_0']",['num_4'],num_4,[2],'num_4',images/min2.png,"[(0.45, 0.79)]",,,,,0,2,2,2,4,3,19,1,,,,,"(-0.25, -0.04)",images/min2.png,3,0.0532385422612,0.584796888288,[ 0.22547584 -0.09635417],,,2018_Jun_22_1730,59.916841603,sequenceLearningTask,001,088,
min1.png,min2.png,min3.png,min4.png,allBlank.png,"['num_7', 'num_4', 'num_1', 'num_0']",['num_4'],num_4,[2],'num_4',images/min2.png,"[(0.45, 0.79)]",,,,,0,2,2,2,4,3,19,1,,,,,"(0.75, -0.04)",images/min4.png,3,0.0568816176892,0.543536597525,[-0.17715959 -0.23177083],,,2018_Jun_22_1730,59.916841603,sequenceLearningTask,001,088,
min1.png,min2.png,min3.png,min4.png,allBlank.png,"['num_7', 'num_4', 'num_1', 'num_0']",['num_4'],num_4,[2],'num_4',images/min2.png,"[(0.45, 0.79)]",,,,,0,2,2,2,4,3,19,1,,,,,"(0.75, -0.04)",images/min4.png,3,0.0604274623893,0.756994561232,[ 0.69838946  0.0078125 ],,,2018_Jun_22_1730,59.916841603,sequenceLearningTask,001,088,
min1.png,min2.png,min3.png,min4.png,allBlank.png,"['num_7', 'num_4', 'num_1', 'num_0']",['num_4'],num_4,[2],'num_4',images/min2.png,"[(0.45, 0.79)]",,,,,0,2,2,2,4,3,19,1,,,,,"(-0.25, -0.04)",images/min2.png,3,0.0532311576499,0.563557512387,[ 0.72913616  0.07291667],,,2018_Jun_22_1730,59.916841603,sequenceLearningTask,001,088,
min1.png,min2.png,min3.png,min4.png,allBlank.png,"['num_7', 'num_4', 'num_1', 'num_0']",['num_4'],num_4,[2],'num_4',images/min2.png,"[(0.45, 0.79)]",,,,,0,2,2,2,4,3,19,1,,,,,"(0.25, -0.04)",images/min3.png,3,0.0602321804163,0.457967812115,[-0.2181552  -0.13020833],,,2018_Jun_22_1730,59.916841603,sequenceLearningTask,001,088,
min1.png,min2.png,min3.png,min4.png,allBlank.png,"['num_7', 'num_4', 'num_1', 'num_0']",['num_4'],num_4,[2],'num_4',images/min2.png,"[(0.45, 0.79)]",,,,,0,2,2,2,4,3,19,1,,,,,"(0.75, -0.04)",images/min4.png,3,0.051506440408,0.450682071514,[ 0.24743777 -0.06770833],,,2018_Jun_22_1730,59.916841603,sequenceLearningTask,001,088,
min1.png,min2.png,min3.png,min4.png,allBlank.png,"['num_7', 'num_4', 'num_1', 'num_0']",['num_4'],num_4,[2],'num_4',images/min2.png,"[(0.45, 0.79)]",,,,,0,3,3,3,4,3,19,1,,,,,"(-0.75, -0.04)",images/min1.png,4,0.0569205920328,0.691236229237,[ 0.68228404 -0.0546875 ],,,2018_Jun_22_1730,59.916841603,sequenceLearningTask,001,088,
min1.png,min2.png,min3.png,min4.png,allBlank.png,"['num_7', 'num_4', 'num_1', 'num_0']",['num_4'],num_4,[2],'num_4',images/min2.png,"[(0.45, 0.79)]",,,,,0,3,3,3,4,3,19,1,,,,,"(0.25, -0.04)",images/min3.png,4,0.0607560776389,0.456003915486,[-0.68228404 -0.21875   ],,,2018_Jun_22_1730,59.916841603,sequenceLearningTask,001,088,
min1.png,min2.png,min3.png,min4.png,allBlank.png,"['num_7', 'num_4', 'num_1', 'num_0']",['num_4'],num_4,[2],'num_4',images/min2.png,"[(0.45, 0.79)]",,,,,0,3,3,3,4,3,19,1,,,,,"(-0.25, -0.04)",images/min2.png,4,0.0526986450477,0.600493702363,[ 0.21083455 -0.13020833],,,2018_Jun_22_1730,59.916841603,sequenceLearningTask,001,088,
min1.png,min2.png,min3.png,min4.png,allBlank.png,"['num_7', 'num_4', 'num_1', 'num_0']",['num_4'],num_4,[2],'num_4',images/min2.png,"[(0.45, 0.79)]",,,,,0,3,3,3,4,3,19,1,,,,,"(0.75, -0.04)",images/min4.png,4,0.0592426423609,0.508231996624,[-0.18155198 -0.15625   ],,,2018_Jun_22_1730,59.916841603,sequenceLearningTask,001,088,
min1.png,min2.png,min3.png,min4.png,allBlank.png,"['num_7', 'num_4', 'num_1', 'num_0']",['num_4'],num_4,[2],'num_4',images/min2.png,"[(0.45, 0.79)]",,,,,0,3,3,3,4,3,19,1,,,,,"(0.75, -0.04)",images/min4.png,4,0.053169619212,0.564907255422,[ 0.63836018  0.03125   ],,,2018_Jun_22_1730,59.916841603,sequenceLearningTask,001,088,
min1.png,min2.png,min3.png,min4.png,allBlank.png,"['num_7', 'num_4', 'num_1', 'num_0']",['num_4'],num_4,[2],'num_4',images/min2.png,"[(0.45, 0.79)]",,,,,0,3,3,3,4,3,19,1,,,,,"(-0.25, -0.04)",images/min2.png,4,0.0525673630491,0.59757595997,[ 0.62518302 -0.015625  ],,,2018_Jun_22_1730,59.916841603,sequenceLearningTask,001,088,
min1.png,min2.png,min3.png,min4.png,allBlank.png,"['num_7', 'num_4', 'num_1', 'num_0']",['num_4'],num_4,[2],'num_4',images/min2.png,"[(0.45, 0.79)]",,,,,0,3,3,3,4,3,19,1,,,,,"(0.25, -0.04)",images/min3.png,4,0.058777411783,0.493460720631,[-0.22693997 -0.171875  ],,,2018_Jun_22_1730,59.916841603,sequenceLearningTask,001,088,
min1.png,min2.png,min3.png,min4.png,allBlank.png,"['num_7', 'num_4', 'num_1', 'num_0']",['num_4'],num_4,[2],'num_4',images/min2.png,"[(0.45, 0.79)]",,,,,0,3,3,3,4,3,19,1,,,,,"(0.75, -0.04)",images/min4.png,4,0.0577435660543,0.443671202596,[ 0.24743777 -0.0625    ],,,2018_Jun_22_1730,59.916841603,sequenceLearningTask,001,088,
min1.png,min2.png,min3.png,min4.png,allBlank.png,"['num_7', 'num_4', 'num_1', 'num_0']",['num_4'],num_4,[2],'num_4',images/min2.png,"[(0.45, 0.79)]",,,,,0,4,4,4,4,3,19,1,,,,,"(-0.75, -0.04)",images/min1.png,5,0.0519187479294,0.564544588904,[ 0.62811127 -0.05729167],,,2018_Jun_22_1730,59.916841603,sequenceLearningTask,001,088,
min1.png,min2.png,min3.png,min4.png,allBlank.png,"['num_7', 'num_4', 'num_1', 'num_0']",['num_4'],num_4,[2],'num_4',images/min2.png,"[(0.45, 0.79)]",,,,,0,4,4,4,4,3,19,1,,,,,"(0.25, -0.04)",images/min3.png,5,0.0523056195671,0.482644314814,[-0.64421669 -0.171875  ],,,2018_Jun_22_1730,59.916841603,sequenceLearningTask,001,088,
min1.png,min2.png,min3.png,min4.png,allBlank.png,"['num_7', 'num_4', 'num_1', 'num_0']",['num_4'],num_4,[2],'num_4',images/min2.png,"[(0.45, 0.79)]",,,,,0,4,4,4,4,3,19,1,,,,,"(-0.25, -0.04)",images/min2.png,5,0.050043876905,0.601894317171,[ 0.2181552  -0.01302083],,,2018_Jun_22_1730,59.916841603,sequenceLearningTask,001,088,
min1.png,min2.png,min3.png,min4.png,allBlank.png,"['num_7', 'num_4', 'num_1', 'num_0']",['num_4'],num_4,[2],'num_4',images/min2.png,"[(0.45, 0.79)]",,,,,0,4,4,4,4,3,19,1,,,,,"(0.75, -0.04)",images/min4.png,5,0.054887772354,0.51257291792,[-0.20644217 -0.21614583],,,2018_Jun_22_1730,59.916841603,sequenceLearningTask,001,088,
min1.png,min2.png,min3.png,min4.png,allBlank.png,"['num_7', 'num_4', 'num_1', 'num_0']",['num_4'],num_4,[2],'num_4',images/min2.png,"[(0.45, 0.79)]",,,,,0,4,4,4,4,3,19,1,,,,,"(0.75, -0.04)",images/min4.png,5,0.0590272578338,0.558350129908,[ 0.65592972 -0.015625  ],,,2018_Jun_22_1730,59.916841603,sequenceLearningTask,001,088,
min1.png,min2.png,min3.png,min4.png,allBlank.png,"['num_7', 'num_4', 'num_1', 'num_0']",['num_4'],num_4,[2],'num_4',images/min2.png,"[(0.45, 0.79)]",,,,,0,4,4,4,4,3,19,1,,,,,"(-0.25, -0.04)",images/min2.png,5,0.0564315665924,0.495596104371,[ 0.64860908 -0.02083333],,,2018_Jun_22_1730,59.916841603,sequenceLearningTask,001,088,
min1.png,min2.png,min3.png,min4.png,allBlank.png,"['num_7', 'num_4', 'num_1', 'num_0']",['num_4'],num_4,[2],'num_4',images/min2.png,"[(0.45, 0.79)]",,,,,0,4,4,4,4,3,19,1,,,,,"(0.25, -0.04)",images/min3.png,5,0.0561210026171,0.411474702983,[-0.1625183  -0.15885417],,,2018_Jun_22_1730,59.916841603,sequenceLearningTask,001,088,
min1.png,min2.png,min3.png,min4.png,allBlank.png,"['num_7', 'num_4', 'num_1', 'num_0']",['num_4'],num_4,[2],'num_4',images/min2.png,"[(0.45, 0.79)]",,,,,0,4,4,4,4,3,19,1,,,,,"(0.75, -0.04)",images/min4.png,5,0.0616980259711,0.472170472956,[ 0.22693997 -0.1015625 ],,,2018_Jun_22_1730,59.916841603,sequenceLearningTask,001,088,
min1.png,min2.png,min3.png,min4.png,allBlank.png,"['num_7', 'num_4', 'num_1', 'num_0']",['num_4'],num_4,[2],'num_4',images/min2.png,"[(0.45, 0.79)]",,,,,0,5,5,5,4,3,19,1,,,,,"(-0.75, -0.04)",images/min1.png,6,0.0591971039175,0.756527279374,[ 0.67349927 -0.0546875 ],,,2018_Jun_22_1730,59.916841603,sequenceLearningTask,001,088,
min1.png,min2.png,min3.png,min4.png,allBlank.png,"['num_7', 'num_4', 'num_1', 'num_0']",['num_4'],num_4,[2],'num_4',images/min2.png,"[(0.45, 0.79)]",,,,,0,5,5,5,4,3,19,1,,,,,"(0.25, -0.04)",images/min3.png,6,0.0533365935025,0.46410360447,[-0.56076135 -0.2890625 ],,,2018_Jun_22_1730,59.916841603,sequenceLearningTask,001,088,
min1.png,min2.png,min3.png,min4.png,allBlank.png,"['num_7', 'num_4', 'num_1', 'num_0']",['num_4'],num_4,[2],'num_4',images/min2.png,"[(0.45, 0.79)]",,,,,0,5,5,5,4,3,19,1,,,,,"(-0.25, -0.04)",images/min2.png,6,0.0524976194883,0.631628048563,[ 0.26207906 -0.1484375 ],,,2018_Jun_22_1730,59.916841603,sequenceLearningTask,001,088,
min1.png,min2.png,min3.png,min4.png,allBlank.png,"['num_7', 'num_4', 'num_1', 'num_0']",['num_4'],num_4,[2],'num_4',images/min2.png,"[(0.45, 0.79)]",,,,,0,5,5,5,4,3,19,1,,,,,"(0.75, -0.04)",images/min4.png,6,0.05785966857,0.511269944094,[-0.2284041  -0.31770833],,,2018_Jun_22_1730,59.916841603,sequenceLearningTask,001,088,
min1.png,min2.png,min3.png,min4.png,allBlank.png,"['num_7', 'num_4', 'num_1', 'num_0']",['num_4'],num_4,[2],'num_4',images/min2.png,"[(0.45, 0.79)]",,,,,0,5,5,5,4,3,19,1,,,,,"(0.75, -0.04)",images/min4.png,6,0.0514600814531,0.599037292703,[ 0.68228404  0.00520833],,,2018_Jun_22_1730,59.916841603,sequenceLearningTask,001,088,
min1.png,min2.png,min3.png,min4.png,allBlank.png,"['num_7', 'num_4', 'num_1', 'num_0']",['num_4'],num_4,[2],'num_4',images/min2.png,"[(0.45, 0.79)]",,,,,0,5,5,5,4,3,19,1,,,,,"(-0.25, -0.04)",images/min2.png,6,0.0608730006679,0.488603286725,[ 0.74524158 -0.01302083],,,2018_Jun_22_1730,59.916841603,sequenceLearningTask,001,088,
min1.png,min2.png,min3.png,min4.png,allBlank.png,"['num_7', 'num_4', 'num_1', 'num_0']",['num_4'],num_4,[2],'num_4',images/min2.png,"[(0.45, 0.79)]",,,,,0,5,5,5,4,3,19,1,,,,,"(0.25, -0.04)",images/min3.png,6,0.0608984365535,0.406674704955,[-0.18887262 -0.26041667],,,2018_Jun_22_1730,59.916841603,sequenceLearningTask,001,088,
min1.png,min2.png,min3.png,min4.png,allBlank.png,"['num_7', 'num_4', 'num_1', 'num_0']",['num_4'],num_4,[2],'num_4',images/min2.png,"[(0.45, 0.79)]",,,,,0,5,5,5,4,3,19,1,,,,,"(0.75, -0.04)",images/min4.png,6,0.0587847963961,0.42649008144,[ 0.27525622 -0.11458333],,,2018_Jun_22_1730,59.916841603,sequenceLearningTask,001,088,
min1.png,min2.png,min3.png,min4.png,allBlank.png,"['num_7', 'num_4', 'num_1', 'num_0']",['num_4'],num_4,[2],'num_4',images/min2.png,"[(0.45, 0.79)]",,,,,0,6,6,6,4,3,19,1,,,,,"(-0.75, -0.04)",images/min1.png,7,0.0605464366981,0.537610035852,[ 0.63396779 -0.10677083],,,2018_Jun_22_1730,59.916841603,sequenceLearningTask,001,088,
min1.png,min2.png,min3.png,min4.png,allBlank.png,"['num_7', 'num_4', 'num_1', 'num_0']",['num_4'],num_4,[2],'num_4',images/min2.png,"[(0.45, 0.79)]",,,,,0,6,6,6,4,3,19,1,,,,,"(0.25, -0.04)",images/min3.png,7,0.0531027474444,0.380785484806,[-0.6090776  -0.33854167],,,2018_Jun_22_1730,59.916841603,sequenceLearningTask,001,088,
min1.png,min2.png,min3.png,min4.png,allBlank.png,"['num_7', 'num_4', 'num_1', 'num_0']",['num_4'],num_4,[2],'num_4',images/min2.png,"[(0.45, 0.79)]",,,,,0,6,6,6,4,3,19,1,,,,,"(-0.25, -0.04)",images/min2.png,7,0.0556705412637,0.694774689324,[ 0.30746706 -0.12760417],,,2018_Jun_22_1730,59.916841603,sequenceLearningTask,001,088,
min1.png,min2.png,min3.png,min4.png,allBlank.png,"['num_7', 'num_4', 'num_1', 'num_0']",['num_4'],num_4,[2],'num_4',images/min2.png,"[(0.45, 0.79)]",,,,,0,6,6,6,4,3,19,1,,,,,"(0.75, -0.04)",images/min4.png,7,0.0540286957821,0.863997184,[-0.23133236 -0.125     ],0.498201231507,1,2018_Jun_22_1730,59.916841603,sequenceLearningTask,001,088,
min1.png,min2.png,min3.png,min4.png,allBlank.png,"['num_7', 'num_4', 'num_1', 'num_0']",['num_4'],num_4,[2],'num_4',images/min2.png,"[(0.45, 0.79)]",,,,,0,6,6,6,4,3,19,1,,,,,"(0.75, -0.04)",images/min4.png,7,0.053261926867,0.664039932703,[ 0.73352855 -0.05989583],,,2018_Jun_22_1730,59.916841603,sequenceLearningTask,001,088,
min1.png,min2.png,min3.png,min4.png,allBlank.png,"['num_7', 'num_4', 'num_1', 'num_0']",['num_4'],num_4,[2],'num_4',images/min2.png,"[(0.45, 0.79)]",,,,,0,6,6,6,4,3,19,1,,,,,"(-0.25, -0.04)",images/min2.png,7,0.0570937201664,0.526732091597,[ 0.6295754   0.08854167],,,2018_Jun_22_1730,59.916841603,sequenceLearningTask,001,088,
min1.png,min2.png,min3.png,min4.png,allBlank.png,"['num_7', 'num_4', 'num_1', 'num_0']",['num_4'],num_4,[2],'num_4',images/min2.png,"[(0.45, 0.79)]",,,,,0,6,6,6,4,3,19,1,,,,,"(0.25, -0.04)",images/min3.png,7,0.0578937198388,0.612683235822,[-0.0658858  -0.24479167],,,2018_Jun_22_1730,59.916841603,sequenceLearningTask,001,088,
min1.png,min2.png,min3.png,min4.png,allBlank.png,"['num_7', 'num_4', 'num_1', 'num_0']",['num_4'],num_4,[2],'num_4',images/min2.png,"[(0.45, 0.79)]",,,,,0,6,6,6,4,3,19,1,,,,,"(0.75, -0.04)",images/min4.png,7,0.0522243888317,0.531225628216,[ 0.30600293 -0.1875    ],,,2018_Jun_22_1730,59.916841603,sequenceLearningTask,001,088,
min1.png,min2.png,min3.png,min4.png,allBlank.png,"['num_7', 'num_4', 'num_1', 'num_0']",['num_4'],num_4,[2],'num_4',images/min2.png,"[(0.45, 0.79)]",,,,,0,7,7,7,4,3,19,1,,,,,"(-0.75, -0.04)",images/min1.png,8,0.0571839765398,0.692677459414,[ 0.82430454 -0.08854167],,,2018_Jun_22_1730,59.916841603,sequenceLearningTask,001,088,
min1.png,min2.png,min3.png,min4.png,allBlank.png,"['num_7', 'num_4', 'num_1', 'num_0']",['num_4'],num_4,[2],'num_4',images/min2.png,"[(0.45, 0.79)]",,,,,0,7,7,7,4,3,19,1,,,,,"(0.25, -0.04)",images/min3.png,8,0.0493829540992,0.400699322789,[-0.54026354 -0.38020833],,,2018_Jun_22_1730,59.916841603,sequenceLearningTask,001,088,
min1.png,min2.png,min3.png,min4.png,allBlank.png,"['num_7', 'num_4', 'num_1', 'num_0']",['num_4'],num_4,[2],'num_4',images/min2.png,"[(0.45, 0.79)]",,,,,0,7,7,7,4,3,19,1,,,,,"(-0.25, -0.04)",images/min2.png,8,0.0466243911287,0.604616367338,[ 0.24011713 -0.24479167],,,2018_Jun_22_1730,59.916841603,sequenceLearningTask,001,088,
min1.png,min2.png,min3.png,min4.png,allBlank.png,"['num_7', 'num_4', 'num_1', 'num_0']",['num_4'],num_4,[2],'num_4',images/min2.png,"[(0.45, 0.79)]",,,,,0,7,7,7,4,3,19,1,,,,,"(0.75, -0.04)",images/min4.png,8,0.0519142351113,0.532586858426,[-0.14494876 -0.265625  ],,,2018_Jun_22_1730,59.916841603,sequenceLearningTask,001,088,
min1.png,min2.png,min3.png,min4.png,allBlank.png,"['num_7', 'num_4', 'num_1', 'num_0']",['num_4'],num_4,[2],'num_4',images/min2.png,"[(0.45, 0.79)]",,,,,0,7,7,7,4,3,19,1,,,,,"(0.75, -0.04)",images/min4.png,8,0.0597558729205,0.623722410781,[ 0.57101025 -0.06510417],,,2018_Jun_22_1730,59.916841603,sequenceLearningTask,001,088,
min1.png,min2.png,min3.png,min4.png,allBlank.png,"['num_7', 'num_4', 'num_1', 'num_0']",['num_4'],num_4,[2],'num_4',images/min2.png,"[(0.45, 0.79)]",,,,,0,7,7,7,4,3,19,1,,,,,"(-0.25, -0.04)",images/min2.png,8,0.056960386888,0.597887754711,[ 0.66471449 -0.13802083],,,2018_Jun_22_1730,59.916841603,sequenceLearningTask,001,088,
min1.png,min2.png,min3.png,min4.png,allBlank.png,"['num_7', 'num_4', 'num_1', 'num_0']",['num_4'],num_4,[2],'num_4',images/min2.png,"[(0.45, 0.79)]",,,,,0,7,7,7,4,3,19,1,,,,,"(0.25, -0.04)",images/min3.png,8,0.054159567524,0.430051105621,[-0.23572474 -0.21614583],,,2018_Jun_22_1730,59.916841603,sequenceLearningTask,001,088,
min1.png,min2.png,min3.png,min4.png,allBlank.png,"['num_7', 'num_4', 'num_1', 'num_0']",['num_4'],num_4,[2],'num_4',images/min2.png,"[(0.45, 0.79)]",,,,,0,7,7,7,4,3,19,1,,,,,"(0.75, -0.04)",images/min4.png,8,0.0475158779409,0.420608237699,[ 0.25183016 -0.23697917],,,2018_Jun_22_1730,59.916841603,sequenceLearningTask,001,088,
min1.png,min2.png,min3.png,min4.png,allBlank.png,"['num_7', 'num_4', 'num_1', 'num_0']",['num_4'],num_4,[2],'num_4',images/min2.png,"[(0.45, 0.79)]",,,,,0,8,8,8,4,3,19,1,,,,,"(-0.75, -0.04)",images/min1.png,9,0.052644491223,1.69637386816,[ 0.64714495 -0.1640625 ],,,2018_Jun_22_1730,59.916841603,sequenceLearningTask,001,088,
min1.png,min2.png,min3.png,min4.png,allBlank.png,"['num_7', 'num_4', 'num_1', 'num_0']",['num_4'],num_4,[2],'num_4',images/min2.png,"[(0.45, 0.79)]",,,,,0,8,8,8,4,3,19,1,,,,,"(0.25, -0.04)",images/min3.png,9,0.0560656180241,0.495320001921,[-0.66764275 -0.27083333],,,2018_Jun_22_1730,59.916841603,sequenceLearningTask,001,088,
min1.png,min2.png,min3.png,min4.png,allBlank.png,"['num_7', 'num_4', 'num_1', 'num_0']",['num_4'],num_4,[2],'num_4',images/min2.png,"[(0.45, 0.79)]",,,,,0,8,8,8,4,3,19,1,,,,,"(-0.25, -0.04)",images/min2.png,9,0.0581341299967,0.592988474671,[ 0.24450952 -0.07291667],,,2018_Jun_22_1730,59.916841603,sequenceLearningTask,001,088,
min1.png,min2.png,min3.png,min4.png,allBlank.png,"['num_7', 'num_4', 'num_1', 'num_0']",['num_4'],num_4,[2],'num_4',images/min2.png,"[(0.45, 0.79)]",,,,,0,8,8,8,4,3,19,1,,,,,"(0.75, -0.04)",images/min4.png,9,0.0658034601838,0.618827643557,[-0.12005857 -0.1328125 ],,,2018_Jun_22_1730,59.916841603,sequenceLearningTask,001,088,
min1.png,min2.png,min3.png,min4.png,allBlank.png,"['num_7', 'num_4', 'num_1', 'num_0']",['num_4'],num_4,[2],'num_4',images/min2.png,"[(0.45, 0.79)]",,,,,0,8,8,8,4,3,19,1,,,,,"(0.75, -0.04)",images/min4.png,9,0.0582592581504,0.560461718786,[ 0.70863836  0.14322917],,,2018_Jun_22_1730,59.916841603,sequenceLearningTask,001,088,
min1.png,min2.png,min3.png,min4.png,allBlank.png,"['num_7', 'num_4', 'num_1', 'num_0']",['num_4'],num_4,[2],'num_4',images/min2.png,"[(0.45, 0.79)]",,,,,0,8,8,8,4,3,19,1,,,,,"(-0.25, -0.04)",images/min2.png,9,0.0571486945028,0.643554197517,[ 0.66764275 -0.06510417],,,2018_Jun_22_1730,59.916841603,sequenceLearningTask,001,088,
min1.png,min2.png,min3.png,min4.png,allBlank.png,"['num_7', 'num_4', 'num_1', 'num_0']",['num_4'],num_4,[2],'num_4',images/min2.png,"[(0.45, 0.79)]",,,,,0,8,8,8,4,3,19,1,,,,,"(0.25, -0.04)",images/min3.png,9,0.0563499256004,0.44547756083,[-0.16983895 -0.20572917],,,2018_Jun_22_1730,59.916841603,sequenceLearningTask,001,088,
min1.png,min2.png,min3.png,min4.png,allBlank.png,"['num_7', 'num_4', 'num_1', 'num_0']",['num_4'],num_4,[2],'num_4',images/min2.png,"[(0.45, 0.79)]",,,,,0,8,8,8,4,3,19,1,,,,,"(0.75, -0.04)",images/min4.png,9,0.0512028507892,0.416174188236,[ 0.27672035 -0.13541667],,,2018_Jun_22_1730,59.916841603,sequenceLearningTask,001,088,
min1.png,min2.png,min3.png,min4.png,allBlank.png,"['num_7', 'num_4', 'num_1', 'num_0']",['num_4'],num_4,[2],'num_4',images/min2.png,"[(0.45, 0.79)]",,,,,0,9,9,9,4,3,19,1,,,,,"(-0.75, -0.04)",images/min1.png,10,0.0502998768006,0.600871958617,[ 0.69692533 -0.08333333],,,2018_Jun_22_1730,59.916841603,sequenceLearningTask,001,088,
min1.png,min2.png,min3.png,min4.png,allBlank.png,"['num_7', 'num_4', 'num_1', 'num_0']",['num_4'],num_4,[2],'num_4',images/min2.png,"[(0.45, 0.79)]",,,,,0,9,9,9,4,3,19,1,,,,,"(0.25, -0.04)",images/min3.png,10,0.0525443886982,0.399882502612,[-0.58418741 -0.24479167],,,2018_Jun_22_1730,59.916841603,sequenceLearningTask,001,088,
min1.png,min2.png,min3.png,min4.png,allBlank.png,"['num_7', 'num_4', 'num_1', 'num_0']",['num_4'],num_4,[2],'num_4',images/min2.png,"[(0.45, 0.79)]",,,,,0,9,9,9,4,3,19,1,,,,,"(-0.25, -0.04)",images/min2.png,10,0.0553911567622,0.645119735336,[ 0.3147877  -0.16145833],,,2018_Jun_22_1730,59.916841603,sequenceLearningTask,001,088,
min1.png,min2.png,min3.png,min4.png,allBlank.png,"['num_7', 'num_4', 'num_1', 'num_0']",['num_4'],num_4,[2],'num_4',images/min2.png,"[(0.45, 0.79)]",,,,,0,9,9,9,4,3,19,1,,,,,"(0.75, -0.04)",images/min4.png,10,0.0552118747855,0.646321786126,[-0.16983895 -0.20572917],,,2018_Jun_22_1730,59.916841603,sequenceLearningTask,001,088,
min1.png,min2.png,min3.png,min4.png,allBlank.png,"['num_7', 'num_4', 'num_1', 'num_0']",['num_4'],num_4,[2],'num_4',images/min2.png,"[(0.45, 0.79)]",,,,,0,9,9,9,4,3,19,1,,,,,"(0.75, -0.04)",images/min4.png,10,0.0513402866291,0.532860089083,[ 0.68228404 -0.06510417],,,2018_Jun_22_1730,59.916841603,sequenceLearningTask,001,088,
min1.png,min2.png,min3.png,min4.png,allBlank.png,"['num_7', 'num_4', 'num_1', 'num_0']",['num_4'],num_4,[2],'num_4',images/min2.png,"[(0.45, 0.79)]",,,,,0,9,9,9,4,3,19,1,,,,,"(-0.25, -0.04)",images/min2.png,10,0.0541287983051,0.500014564095,[ 0.73060029 -0.10677083],,,2018_Jun_22_1730,59.916841603,sequenceLearningTask,001,088,
min1.png,min2.png,min3.png,min4.png,allBlank.png,"['num_7', 'num_4', 'num_1', 'num_0']",['num_4'],num_4,[2],'num_4',images/min2.png,"[(0.45, 0.79)]",,,,,0,9,9,9,4,3,19,1,,,,,"(0.25, -0.04)",images/min3.png,10,0.0533566960603,0.546651262912,[-0.18887262 -0.19010417],,,2018_Jun_22_1730,59.916841603,sequenceLearningTask,001,088,
min1.png,min2.png,min3.png,min4.png,allBlank.png,"['num_7', 'num_4', 'num_1', 'num_0']",['num_4'],num_4,[2],'num_4',images/min2.png,"[(0.45, 0.79)]",,,,,0,9,9,9,4,3,19,1,,,,,"(0.75, -0.04)",images/min4.png,10,0.0568467459088,0.427863619338,[ 0.22401171 -0.11197917],,,2018_Jun_22_1730,59.916841603,sequenceLearningTask,001,088,
min1.png,min2.png,min3.png,min4.png,allBlank.png,"['num_7', 'num_4', 'num_1', 'num_0']",['num_4'],num_4,[2],'num_4',images/min2.png,"[(0.45, 0.79)]",,,,,0,9,9,9,4,3,19,1,0,-1,-1,0,,,,,,,,,2018_Jun_22_1730,59.916841603,sequenceLearningTask,001,088,
