pawPatrol1,pawPatrol2,pawPatrol3,pawPatrol4,blank,randomPaw,correctKeyPress,allowableKey,correctKey,correctKeyPressNum,trials.thisRepN,trials.thisTrialN,trials.thisN,trials.thisIndex,trials_3.thisRepN,trials_3.thisTrialN,trials_3.thisN,trials_3.thisIndex,trials_2.thisRepN,trials_2.thisTrialN,trials_2.thisN,trials_2.thisIndex,trials_questions.thisRepN,trials_questions.thisTrialN,trials_questions.thisN,trials_questions.thisIndex,correctKey,repetitionNumber,stimulusPresent.t,trialCorrect,key_resp_9.keys,key_resp_9.corr,key_resp_9.rt,keyRespCorrect,date,frameRate,expName,session,participant,
min1.png,min2.png,min3.png,min4.png,allBlank.png,,,,['num_7'],,,,,,0,0,0,0,,,,,,,,,['num_7'],1,0.038527589757,1,['num_7'],0,[4.648593230755068],,2018_Jun_02_1215,59.9573472748,sequenceLearningTask,001,095,
min1.png,min2.png,min3.png,min4.png,allBlank.png,,,,['num_1'],,,,,,0,0,0,0,,,,,,,,,['num_1'],1,0.0333366153063,1,['num_1'],0,[1.3941628718748689],,2018_Jun_02_1215,59.9573472748,sequenceLearningTask,001,095,
min1.png,min2.png,min3.png,min4.png,allBlank.png,,,,['num_4'],,,,,,0,0,0,0,,,,,,,,,['num_4'],1,0.0291794871446,1,['num_4'],0,[1.0153501537861302],,2018_Jun_02_1215,59.9573472748,sequenceLearningTask,001,095,
min1.png,min2.png,min3.png,min4.png,allBlank.png,,,,['num_0'],,,,,,0,0,0,0,,,,,,,,,['num_0'],1,0.0386990769766,1,['num_0'],0,[1.038878358900547],,2018_Jun_02_1215,59.9573472748,sequenceLearningTask,001,095,
min1.png,min2.png,min3.png,min4.png,allBlank.png,,,,['num_0'],,,,,,0,0,0,0,,,,,,,,,['num_0'],1,0.026463999995,1,['num_0'],0,[0.6839762050658464],,2018_Jun_02_1215,59.9573472748,sequenceLearningTask,001,095,
min1.png,min2.png,min3.png,min4.png,allBlank.png,,,,['num_4'],,,,,,0,0,0,0,,,,,,,,,['num_4'],1,0.0303003076697,1,['num_4'],0,[1.0981846153736115],,2018_Jun_02_1215,59.9573472748,sequenceLearningTask,001,095,
min1.png,min2.png,min3.png,min4.png,allBlank.png,,,,['num_1'],,,,,,0,0,0,0,,,,,,,,,['num_1'],1,0.0523364102701,1,['num_1'],0,[1.2414527179207653],,2018_Jun_02_1215,59.9573472748,sequenceLearningTask,001,095,
min1.png,min2.png,min3.png,min4.png,allBlank.png,,,,['num_0'],,,,,,0,0,0,0,,,,,,,,,['num_0'],1,0.0585661538644,1,['num_0'],0,[0.8522703590570018],,2018_Jun_02_1215,59.9573472748,sequenceLearningTask,001,095,
min1.png,min2.png,min3.png,min4.png,allBlank.png,,,,['num_7'],,,,,,0,1,1,1,,,,,,,,,['num_7'],2,0.0573013332905,1,['num_7'],0,[0.6680209231562912],,2018_Jun_02_1215,59.9573472748,sequenceLearningTask,001,095,
min1.png,min2.png,min3.png,min4.png,allBlank.png,,,,['num_1'],,,,,,0,1,1,1,,,,,,,,,['num_1'],2,0.0700254358817,1,['num_1'],0,[1.1248000001069158],,2018_Jun_02_1215,59.9573472748,sequenceLearningTask,001,095,
min1.png,min2.png,min3.png,min4.png,allBlank.png,,,,['num_4'],,,,,,0,1,1,1,,,,,,,,,['num_4'],2,0.0273739487166,1,['num_4'],0,[1.2349805128760636],,2018_Jun_02_1215,59.9573472748,sequenceLearningTask,001,095,
min1.png,min2.png,min3.png,min4.png,allBlank.png,,,,['num_0'],,,,,,0,1,1,1,,,,,,,,,['num_0'],2,0.0556254358962,1,['num_0'],0,[0.8527991794981062],,2018_Jun_02_1215,59.9573472748,sequenceLearningTask,001,095,
min1.png,min2.png,min3.png,min4.png,allBlank.png,,,,['num_0'],,,,,,0,1,1,1,,,,,,,,,['num_0'],2,0.0567926154472,1,['num_0'],0,[0.9213513846043497],,2018_Jun_02_1215,59.9573472748,sequenceLearningTask,001,095,
min1.png,min2.png,min3.png,min4.png,allBlank.png,,,,['num_4'],,,,,,0,1,1,1,,,,,,,,,['num_4'],2,0.069827692234,1,['num_4'],0,[0.9899454358965158],,2018_Jun_02_1215,59.9573472748,sequenceLearningTask,001,095,
min1.png,min2.png,min3.png,min4.png,allBlank.png,,,,['num_1'],,,,,,0,1,1,1,,,,,,,,,['num_1'],2,0.0405887180241,1,['num_1'],0,[1.2546617436455563],,2018_Jun_02_1215,59.9573472748,sequenceLearningTask,001,095,
min1.png,min2.png,min3.png,min4.png,allBlank.png,,,,['num_0'],,,,,,0,1,1,1,,,,,,,,,['num_0'],2,0.0422223589849,1,['num_0'],0,[0.9849349743453786],,2018_Jun_02_1215,59.9573472748,sequenceLearningTask,001,095,
min1.png,min2.png,min3.png,min4.png,allBlank.png,,,,['num_7'],,,,,,0,2,2,2,,,,,,,,,['num_7'],3,0.054326153826,1,['num_7'],0,[1.272480410290882],,2018_Jun_02_1215,59.9573472748,sequenceLearningTask,001,095,
min1.png,min2.png,min3.png,min4.png,allBlank.png,,,,['num_1'],,,,,,0,2,2,2,,,,,,,,,['num_1'],3,0.0483967179898,1,['num_1'],0,[1.6970395897515118],,2018_Jun_02_1215,59.9573472748,sequenceLearningTask,001,095,
min1.png,min2.png,min3.png,min4.png,allBlank.png,,,,['num_4'],,,,,,0,2,2,2,,,,,,,,,['num_4'],3,0.0638108717976,1,['num_4'],0,[1.7447757949121296],,2018_Jun_02_1215,59.9573472748,sequenceLearningTask,001,095,
min1.png,min2.png,min3.png,min4.png,allBlank.png,,,,['num_0'],,,,,,0,2,2,2,,,,,,,,,['num_0'],3,0.0569013333879,1,['num_0'],0,[1.455398153862916],,2018_Jun_02_1215,59.9573472748,sequenceLearningTask,001,095,
min1.png,min2.png,min3.png,min4.png,allBlank.png,,,,['num_0'],,,,,,0,2,2,2,,,,,,,,,['num_0'],3,0.0640992820263,1,['num_0'],0,[0.9471655384404585],,2018_Jun_02_1215,59.9573472748,sequenceLearningTask,001,095,
min1.png,min2.png,min3.png,min4.png,allBlank.png,,,,['num_4'],,,,,,0,2,2,2,,,,,,,,,['num_4'],3,0.0716640000464,1,['num_4'],0,[1.2728213333757594],,2018_Jun_02_1215,59.9573472748,sequenceLearningTask,001,095,
min1.png,min2.png,min3.png,min4.png,allBlank.png,,,,['num_1'],,,,,,0,2,2,2,,,,,,,,,['num_1'],3,0.0782190769678,1,['num_1'],0,[0.9000574358506128],,2018_Jun_02_1215,59.9573472748,sequenceLearningTask,001,095,
min1.png,min2.png,min3.png,min4.png,allBlank.png,,,,['num_0'],,,,,,0,2,2,2,,,,,,,,,['num_0'],3,0.0709583589341,1,['num_0'],0,[1.6070551794255152],,2018_Jun_02_1215,59.9573472748,sequenceLearningTask,001,095,
min1.png,min2.png,min3.png,min4.png,allBlank.png,,,,['num_7'],,,,,,0,3,3,3,,,,,,,,,['num_7'],4,0.0717723077396,1,['num_7'],0,[1.0375991794280708],,2018_Jun_02_1215,59.9573472748,sequenceLearningTask,001,095,
min1.png,min2.png,min3.png,min4.png,allBlank.png,,,,['num_1'],,,,,,0,3,3,3,,,,,,,,,['num_1'],4,0.0643331281608,1,['num_1'],0,[1.1289698460604995],,2018_Jun_02_1215,59.9573472748,sequenceLearningTask,001,095,
min1.png,min2.png,min3.png,min4.png,allBlank.png,,,,['num_4'],,,,,,0,3,3,3,,,,,,,,,['num_4'],4,0.0624832820613,1,['num_4'],0,[1.6478079999797046],,2018_Jun_02_1215,59.9573472748,sequenceLearningTask,001,095,
min1.png,min2.png,min3.png,min4.png,allBlank.png,,,,['num_0'],,,,,,0,3,3,3,,,,,,,,,['num_0'],4,0.064991589752,1,['num_0'],0,[1.5970248205121607],,2018_Jun_02_1215,59.9573472748,sequenceLearningTask,001,095,
min1.png,min2.png,min3.png,min4.png,allBlank.png,,,,['num_0'],,,,,,0,3,3,3,,,,,,,,,['num_0'],4,0.0583528205752,1,['num_0'],0,[0.7038108718115836],,2018_Jun_02_1215,59.9573472748,sequenceLearningTask,001,095,
min1.png,min2.png,min3.png,min4.png,allBlank.png,,,,['num_4'],,,,,,0,3,3,3,,,,,,,,,['num_4'],4,0.0607638974907,1,['num_4'],0,[1.0502773333573714],,2018_Jun_02_1215,59.9573472748,sequenceLearningTask,001,095,
min1.png,min2.png,min3.png,min4.png,allBlank.png,,,,['num_1'],,,,,,0,3,3,3,,,,,,,,,['num_1'],4,0.0710875897203,1,['num_1'],0,[1.4043807180132717],,2018_Jun_02_1215,59.9573472748,sequenceLearningTask,001,095,
min1.png,min2.png,min3.png,min4.png,allBlank.png,,,,['num_0'],,,,,,0,3,3,3,,,,,,,,,['num_0'],4,0.0730092307786,1,['num_0'],0,[0.8715429743751884],,2018_Jun_02_1215,59.9573472748,sequenceLearningTask,001,095,
min1.png,min2.png,min3.png,min4.png,allBlank.png,,,,['num_7'],,,,,,0,4,4,4,,,,,,,,,['num_7'],5,0.0538391795708,1,['num_7'],0,[0.6727708717808127],,2018_Jun_02_1215,59.9573472748,sequenceLearningTask,001,095,
min1.png,min2.png,min3.png,min4.png,allBlank.png,,,,['num_1'],,,,,,0,4,4,4,,,,,,,,,['num_1'],5,0.0687679999974,1,['num_1'],0,[1.075581128243357],,2018_Jun_02_1215,59.9573472748,sequenceLearningTask,001,095,
min1.png,min2.png,min3.png,min4.png,allBlank.png,,,,['num_4'],,,,,,0,4,4,4,,,,,,,,,['num_4'],5,0.0546038975008,1,['num_4'],0,[1.173191384645179],,2018_Jun_02_1215,59.9573472748,sequenceLearningTask,001,095,
min1.png,min2.png,min3.png,min4.png,allBlank.png,,,,['num_0'],,,,,,0,4,4,4,,,,,,,,,['num_0'],5,0.0547122051939,1,['num_0'],0,[0.9063310768688098],,2018_Jun_02_1215,59.9573472748,sequenceLearningTask,001,095,
min1.png,min2.png,min3.png,min4.png,allBlank.png,,,,['num_0'],,,,,,0,4,4,4,,,,,,,,,['num_0'],5,0.0549973333254,1,['num_0'],0,[0.6235524102812633],,2018_Jun_02_1215,59.9573472748,sequenceLearningTask,001,095,
min1.png,min2.png,min3.png,min4.png,allBlank.png,,,,['num_4'],,,,,,0,4,4,4,,,,,,,,,['num_4'],5,0.0523048205068,1,['num_4'],0,[1.4753727179486305],,2018_Jun_02_1215,59.9573472748,sequenceLearningTask,001,095,
min1.png,min2.png,min3.png,min4.png,allBlank.png,,,,['num_1'],,,,,,0,4,4,4,,,,,,,,,['num_1'],5,0.0494338461431,1,['num_1'],0,[1.2786125127458945],,2018_Jun_02_1215,59.9573472748,sequenceLearningTask,001,095,
min1.png,min2.png,min3.png,min4.png,allBlank.png,,,,['num_0'],,,,,,0,4,4,4,,,,,,,,,['num_0'],5,0.0564377435949,1,['num_0'],0,[0.7717501538572833],,2018_Jun_02_1215,59.9573472748,sequenceLearningTask,001,095,
min1.png,min2.png,min3.png,min4.png,allBlank.png,,,,['num_7'],,,,,,0,5,5,5,,,,,,,,,['num_7'],6,0.0550732308766,1,['num_7'],0,[0.7867273846641183],,2018_Jun_02_1215,59.9573472748,sequenceLearningTask,001,095,
min1.png,min2.png,min3.png,min4.png,allBlank.png,,,,['num_1'],,,,,,0,5,5,5,,,,,,,,,['num_1'],6,0.0489476922667,1,['num_1'],0,[1.0799844103166834],,2018_Jun_02_1215,59.9573472748,sequenceLearningTask,001,095,
min1.png,min2.png,min3.png,min4.png,allBlank.png,,,,['num_4'],,,,,,0,5,5,5,,,,,,,,,['num_4'],6,0.0549780512229,1,['num_4'],0,[1.040233435924165],,2018_Jun_02_1215,59.9573472748,sequenceLearningTask,001,095,
min1.png,min2.png,min3.png,min4.png,allBlank.png,,,,['num_0'],,,,,,0,5,5,5,,,,,,,,,['num_0'],6,0.0601632820908,1,['num_0'],0,[0.7668873845832422],,2018_Jun_02_1215,59.9573472748,sequenceLearningTask,001,095,
min1.png,min2.png,min3.png,min4.png,allBlank.png,,,,['num_0'],,,,,,0,5,5,5,,,,,,,,,['num_0'],6,0.0658051281935,1,['num_0'],0,[0.5773140512173995],,2018_Jun_02_1215,59.9573472748,sequenceLearningTask,001,095,
min1.png,min2.png,min3.png,min4.png,allBlank.png,,,,['num_4'],,,,,,0,5,5,5,,,,,,,,,['num_4'],6,0.0528648204636,1,['num_4'],0,[0.8092877948656678],,2018_Jun_02_1215,59.9573472748,sequenceLearningTask,001,095,
min1.png,min2.png,min3.png,min4.png,allBlank.png,,,,['num_1'],,,,,,0,5,5,5,,,,,,,,,['num_1'],6,0.0467610256746,1,['num_1'],0,[1.279566359007731],,2018_Jun_02_1215,59.9573472748,sequenceLearningTask,001,095,
min1.png,min2.png,min3.png,min4.png,allBlank.png,,,,['num_0'],,,,,,0,5,5,5,,,,,,,,,['num_0'],6,0.0495774359442,1,['num_0'],0,[0.8794125128770247],,2018_Jun_02_1215,59.9573472748,sequenceLearningTask,001,095,
min1.png,min2.png,min3.png,min4.png,allBlank.png,,,,['num_7'],,,,,,0,6,6,6,,,,,,,,,['num_7'],7,0.0500041025225,1,['num_7'],0,[0.8430982563877478],,2018_Jun_02_1215,59.9573472748,sequenceLearningTask,001,095,
min1.png,min2.png,min3.png,min4.png,allBlank.png,,,,['num_1'],,,,,,0,6,6,6,,,,,,,,,['num_1'],7,0.0590268718079,1,['num_1'],0,[1.884585025603883],,2018_Jun_02_1215,59.9573472748,sequenceLearningTask,001,095,
min1.png,min2.png,min3.png,min4.png,allBlank.png,,,,['num_4'],,,,,,0,6,6,6,,,,,,,,,['num_4'],7,0.059417846147,1,['num_4'],0,[1.2010551794664934],,2018_Jun_02_1215,59.9573472748,sequenceLearningTask,001,095,
min1.png,min2.png,min3.png,min4.png,allBlank.png,,,,['num_0'],,,,,,0,6,6,6,,,,,,,,,['num_0'],7,0.0581378461793,1,['num_0'],0,[0.7520746666705236],,2018_Jun_02_1215,59.9573472748,sequenceLearningTask,001,095,
min1.png,min2.png,min3.png,min4.png,allBlank.png,,,,['num_0'],,,,,,0,6,6,6,,,,,,,,,['num_0'],7,0.0557362050749,1,['num_0'],0,[0.8391208205139264],,2018_Jun_02_1215,59.9573472748,sequenceLearningTask,001,095,
min1.png,min2.png,min3.png,min4.png,allBlank.png,,,,['num_4'],,,,,,0,6,6,6,,,,,,,,,['num_4'],7,0.0630449231248,1,['num_4'],0,[1.1798670769203454],,2018_Jun_02_1215,59.9573472748,sequenceLearningTask,001,095,
min1.png,min2.png,min3.png,min4.png,allBlank.png,,,,['num_1'],,,,,,0,6,6,6,,,,,,,,,['num_1'],7,0.0527889231453,1,['num_1'],0,[1.275558564113453],,2018_Jun_02_1215,59.9573472748,sequenceLearningTask,001,095,
min1.png,min2.png,min3.png,min4.png,allBlank.png,,,,['num_0'],,,,,,0,6,6,6,,,,,,,,,['num_0'],7,0.0584927179152,1,['num_0'],0,[1.3013456410262734],,2018_Jun_02_1215,59.9573472748,sequenceLearningTask,001,095,
min1.png,min2.png,min3.png,min4.png,allBlank.png,,,,['num_7'],,,,,,0,7,7,7,,,,,,,,,['num_7'],8,0.0512652307516,1,['num_7'],0,[0.9719241025159135],,2018_Jun_02_1215,59.9573472748,sequenceLearningTask,001,095,
min1.png,min2.png,min3.png,min4.png,allBlank.png,,,,['num_1'],,,,,,0,7,7,7,,,,,,,,,['num_1'],8,0.0475167180412,0,"['num_4', 'num_1']",0,"[0.529709538561292, 2.2130038974573836]",,2018_Jun_02_1215,59.9573472748,sequenceLearningTask,001,095,
min1.png,min2.png,min3.png,min4.png,allBlank.png,,,,['num_4'],,,,,,0,7,7,7,,,,,,,,,['num_4'],8,0.0573255384807,0,"['num_7', 'num_4']",0,"[2.203706256346777, 3.3700463590212166]",,2018_Jun_02_1215,59.9573472748,sequenceLearningTask,001,095,
min1.png,min2.png,min3.png,min4.png,allBlank.png,,,,['num_0'],,,,,,0,7,7,7,,,,,,,,,['num_0'],8,0.0571425640956,1,['num_0'],0,[0.7711105641210452],,2018_Jun_02_1215,59.9573472748,sequenceLearningTask,001,095,
min1.png,min2.png,min3.png,min4.png,allBlank.png,,,,['num_0'],,,,,,0,7,7,7,,,,,,,,,['num_0'],8,0.0536328204907,1,['num_0'],0,[0.6245583589188755],,2018_Jun_02_1215,59.9573472748,sequenceLearningTask,001,095,
min1.png,min2.png,min3.png,min4.png,allBlank.png,,,,['num_4'],,,,,,0,7,7,7,,,,,,,,,['num_4'],8,0.0545390768675,1,['num_4'],0,[1.057019897387363],,2018_Jun_02_1215,59.9573472748,sequenceLearningTask,001,095,
min1.png,min2.png,min3.png,min4.png,allBlank.png,,,,['num_1'],,,,,,0,7,7,7,,,,,,,,,['num_1'],8,0.0602806153474,1,['num_1'],0,[1.0000361026031896],,2018_Jun_02_1215,59.9573472748,sequenceLearningTask,001,095,
min1.png,min2.png,min3.png,min4.png,allBlank.png,,,,['num_0'],,,,,,0,7,7,7,,,,,,,,,['num_0'],8,0.0488947692793,1,['num_0'],0,[0.7964008204871789],,2018_Jun_02_1215,59.9573472748,sequenceLearningTask,001,095,
min1.png,min2.png,min3.png,min4.png,allBlank.png,,,,['num_7'],,,,,,0,8,8,8,,,,,,,,,['num_7'],9,0.0553300512256,1,['num_7'],0,[1.037426461582072],,2018_Jun_02_1215,59.9573472748,sequenceLearningTask,001,095,
min1.png,min2.png,min3.png,min4.png,allBlank.png,,,,['num_1'],,,,,,0,8,8,8,,,,,,,,,['num_1'],9,0.0559926152928,1,['num_1'],0,[1.0382949743652716],,2018_Jun_02_1215,59.9573472748,sequenceLearningTask,001,095,
min1.png,min2.png,min3.png,min4.png,allBlank.png,,,,['num_4'],,,,,,0,8,8,8,,,,,,,,,['num_4'],9,0.0663220512215,1,['num_4'],0,[1.0112549744080752],,2018_Jun_02_1215,59.9573472748,sequenceLearningTask,001,095,
min1.png,min2.png,min3.png,min4.png,allBlank.png,,,,['num_0'],,,,,,0,8,8,8,,,,,,,,,['num_0'],9,0.0524529230315,1,['num_0'],0,[0.9090867692139],,2018_Jun_02_1215,59.9573472748,sequenceLearningTask,001,095,
min1.png,min2.png,min3.png,min4.png,allBlank.png,,,,['num_0'],,,,,,0,8,8,8,,,,,,,,,['num_0'],9,0.0564750769408,1,['num_0'],0,[0.5373275898164138],,2018_Jun_02_1215,59.9573472748,sequenceLearningTask,001,095,
min1.png,min2.png,min3.png,min4.png,allBlank.png,,,,['num_4'],,,,,,0,8,8,8,,,,,,,,,['num_4'],9,0.0585706665879,0,"['num_7', 'num_4']",0,"[1.8690650257049128, 3.5365817436249927]",,2018_Jun_02_1215,59.9573472748,sequenceLearningTask,001,095,
min1.png,min2.png,min3.png,min4.png,allBlank.png,,,,['num_1'],,,,,,0,8,8,8,,,,,,,,,['num_1'],9,0.0516324102646,1,['num_1'],0,[1.6757895384216681],,2018_Jun_02_1215,59.9573472748,sequenceLearningTask,001,095,
min1.png,min2.png,min3.png,min4.png,allBlank.png,,,,['num_0'],,,,,,0,8,8,8,,,,,,,,,['num_0'],9,0.0544918974629,1,['num_0'],0,[0.7229751794366166],,2018_Jun_02_1215,59.9573472748,sequenceLearningTask,001,095,
min1.png,min2.png,min3.png,min4.png,allBlank.png,,,,['num_7'],,,,,,0,9,9,9,,,,,,,,,['num_7'],10,0.0584697437007,1,['num_7'],0,[1.5504295384744182],,2018_Jun_02_1215,59.9573472748,sequenceLearningTask,001,095,
min1.png,min2.png,min3.png,min4.png,allBlank.png,,,,['num_1'],,,,,,0,9,9,9,,,,,,,,,['num_1'],10,0.0534108717693,1,['num_1'],0,[1.2744869743473828],,2018_Jun_02_1215,59.9573472748,sequenceLearningTask,001,095,
min1.png,min2.png,min3.png,min4.png,allBlank.png,,,,['num_4'],,,,,,0,9,9,9,,,,,,,,,['num_4'],10,0.0429833846865,1,['num_4'],0,[1.6362248205114156],,2018_Jun_02_1215,59.9573472748,sequenceLearningTask,001,095,
min1.png,min2.png,min3.png,min4.png,allBlank.png,,,,['num_0'],,,,,,0,9,9,9,,,,,,,,,['num_0'],10,0.0546986666741,1,['num_0'],0,[2.789199589751661],,2018_Jun_02_1215,59.9573472748,sequenceLearningTask,001,095,
min1.png,min2.png,min3.png,min4.png,allBlank.png,,,,['num_0'],,,,,,0,9,9,9,,,,,,,,,['num_0'],10,0.0606346665882,1,['num_0'],0,[1.600285128224641],,2018_Jun_02_1215,59.9573472748,sequenceLearningTask,001,095,
min1.png,min2.png,min3.png,min4.png,allBlank.png,,,,['num_4'],,,,,,0,9,9,9,,,,,,,,,['num_4'],10,0.0491019487381,1,['num_4'],0,[1.7454933333210647],,2018_Jun_02_1215,59.9573472748,sequenceLearningTask,001,095,
min1.png,min2.png,min3.png,min4.png,allBlank.png,,,,['num_1'],,,,,,0,9,9,9,,,,,,,,,['num_1'],10,0.0575573333772,1,['num_1'],0,[1.5532143589807674],,2018_Jun_02_1215,59.9573472748,sequenceLearningTask,001,095,
min1.png,min2.png,min3.png,min4.png,allBlank.png,,,,['num_0'],,,,,,0,9,9,9,,,,,,,,,['num_0'],10,0.0537444102811,1,['num_0'],0,[1.0572656410513446],,2018_Jun_02_1215,59.9573472748,sequenceLearningTask,001,095,
min1.png,min2.png,min3.png,min4.png,allBlank.png,,,,['num_7'],,,,,,0,0,0,0,,,,,,,,,['num_7'],1,0.0646207178943,1,['num_7'],0,[1.1629563076421618],,2018_Jun_02_1215,59.9573472748,sequenceLearningTask,001,095,
min1.png,min2.png,min3.png,min4.png,allBlank.png,,,,['num_1'],,,,,,0,0,0,0,,,,,,,,,['num_1'],1,0.0548492308008,1,['num_1'],0,[1.040121846133843],,2018_Jun_02_1215,59.9573472748,sequenceLearningTask,001,095,
min1.png,min2.png,min3.png,min4.png,allBlank.png,,,,['num_4'],,,,,,0,0,0,0,,,,,,,,,['num_4'],1,0.0549427692313,1,['num_4'],0,[1.2399561025667936],,2018_Jun_02_1215,59.9573472748,sequenceLearningTask,001,095,
min1.png,min2.png,min3.png,min4.png,allBlank.png,,,,['num_0'],,,,,,0,0,0,0,,,,,,,,,['num_0'],1,0.0555507692043,1,['num_0'],0,[0.9394851281540468],,2018_Jun_02_1215,59.9573472748,sequenceLearningTask,001,095,
min1.png,min2.png,min3.png,min4.png,allBlank.png,,,,['num_0'],,,,,,0,0,0,0,,,,,,,,,['num_0'],1,0.0523848205339,1,['num_0'],0,[0.5431130257202312],,2018_Jun_02_1215,59.9573472748,sequenceLearningTask,001,095,
min1.png,min2.png,min3.png,min4.png,allBlank.png,,,,['num_4'],,,,,,0,0,0,0,,,,,,,,,['num_4'],1,0.0552525128005,1,['num_4'],0,[0.8725538462167606],,2018_Jun_02_1215,59.9573472748,sequenceLearningTask,001,095,
min1.png,min2.png,min3.png,min4.png,allBlank.png,,,,['num_1'],,,,,,0,0,0,0,,,,,,,,,['num_1'],1,0.0566937435651,1,['num_1'],0,[1.0719089230988175],,2018_Jun_02_1215,59.9573472748,sequenceLearningTask,001,095,
min1.png,min2.png,min3.png,min4.png,allBlank.png,,,,['num_0'],,,,,,0,0,0,0,,,,,,,,,['num_0'],1,0.0671031795209,1,['num_0'],0,[0.6770892307395115],,2018_Jun_02_1215,59.9573472748,sequenceLearningTask,001,095,
min1.png,min2.png,min3.png,min4.png,allBlank.png,,,,['num_7'],,,,,,0,1,1,1,,,,,,,,,['num_7'],2,0.0532336409669,1,['num_7'],0,[0.8236717948457226],,2018_Jun_02_1215,59.9573472748,sequenceLearningTask,001,095,
min1.png,min2.png,min3.png,min4.png,allBlank.png,,,,['num_1'],,,,,,0,1,1,1,,,,,,,,,['num_1'],2,0.0513813333819,0,"['num_4', 'num_4', 'num_1']",0,"[0.8431277949130163, 2.440858666668646, 3.4922761025372893]",,2018_Jun_02_1215,59.9573472748,sequenceLearningTask,001,095,
min1.png,min2.png,min3.png,min4.png,allBlank.png,,,,['num_4'],,,,,,0,1,1,1,,,,,,,,,['num_4'],2,0.0557657436002,1,['num_4'],0,[1.2724303590366617],,2018_Jun_02_1215,59.9573472748,sequenceLearningTask,001,095,
min1.png,min2.png,min3.png,min4.png,allBlank.png,,,,['num_0'],,,,,,0,1,1,1,,,,,,,,,['num_0'],2,0.0592164101545,1,['num_0'],0,[0.9183737435378134],,2018_Jun_02_1215,59.9573472748,sequenceLearningTask,001,095,
min1.png,min2.png,min3.png,min4.png,allBlank.png,,,,['num_0'],,,,,,0,1,1,1,,,,,,,,,['num_0'],2,0.0460832820972,1,['num_0'],0,[0.8311770256841555],,2018_Jun_02_1215,59.9573472748,sequenceLearningTask,001,095,
min1.png,min2.png,min3.png,min4.png,allBlank.png,,,,['num_4'],,,,,,0,1,1,1,,,,,,,,,['num_4'],2,0.0556086153956,1,['num_4'],0,[2.6389948717551306],,2018_Jun_02_1215,59.9573472748,sequenceLearningTask,001,095,
min1.png,min2.png,min3.png,min4.png,allBlank.png,,,,['num_1'],,,,,,0,1,1,1,,,,,,,,,['num_1'],2,0.0465755896876,1,['num_1'],0,[1.1143667692085728],,2018_Jun_02_1215,59.9573472748,sequenceLearningTask,001,095,
min1.png,min2.png,min3.png,min4.png,allBlank.png,,,,['num_0'],,,,,,0,1,1,1,,,,,,,,,['num_0'],2,0.0501969229663,1,['num_0'],0,[1.527464205166325],,2018_Jun_02_1215,59.9573472748,sequenceLearningTask,001,095,
min1.png,min2.png,min3.png,min4.png,allBlank.png,,,,['num_7'],,,,,,0,2,2,2,,,,,,,,,['num_7'],3,0.0486104615266,1,['num_7'],0,[0.8116873846156523],,2018_Jun_02_1215,59.9573472748,sequenceLearningTask,001,095,
min1.png,min2.png,min3.png,min4.png,allBlank.png,,,,['num_1'],,,,,,0,2,2,2,,,,,,,,,['num_1'],3,0.0550781538477,1,['num_1'],0,[1.105939692351967],,2018_Jun_02_1215,59.9573472748,sequenceLearningTask,001,095,
min1.png,min2.png,min3.png,min4.png,allBlank.png,,,,['num_4'],,,,,,0,2,2,2,,,,,,,,,['num_4'],3,0.0528000000631,1,['num_4'],0,[1.1243995897239074],,2018_Jun_02_1215,59.9573472748,sequenceLearningTask,001,095,
min1.png,min2.png,min3.png,min4.png,allBlank.png,,,,['num_0'],,,,,,0,2,2,2,,,,,,,,,['num_0'],3,0.0605304614874,1,['num_0'],0,[0.9833345641382039],,2018_Jun_02_1215,59.9573472748,sequenceLearningTask,001,095,
min1.png,min2.png,min3.png,min4.png,allBlank.png,,,,['num_0'],,,,,,0,2,2,2,,,,,,,,,['num_0'],3,0.0569456410594,1,['num_0'],0,[0.4709181538783014],,2018_Jun_02_1215,59.9573472748,sequenceLearningTask,001,095,
min1.png,min2.png,min3.png,min4.png,allBlank.png,,,,['num_4'],,,,,,0,2,2,2,,,,,,,,,['num_4'],3,0.0582601025235,1,['num_4'],0,[1.3189874871168286],,2018_Jun_02_1215,59.9573472748,sequenceLearningTask,001,095,
min1.png,min2.png,min3.png,min4.png,allBlank.png,,,,['num_1'],,,,,,0,2,2,2,,,,,,,,,['num_1'],3,0.057172923116,1,['num_1'],0,[1.871115897432901],,2018_Jun_02_1215,59.9573472748,sequenceLearningTask,001,095,
min1.png,min2.png,min3.png,min4.png,allBlank.png,,,,['num_0'],,,,,,0,2,2,2,,,,,,,,,['num_0'],3,0.0556086153956,1,['num_0'],0,[1.1541981537593529],,2018_Jun_02_1215,59.9573472748,sequenceLearningTask,001,095,
min1.png,min2.png,min3.png,min4.png,allBlank.png,,,,['num_7'],,,,,,0,3,3,3,,,,,,,,,['num_7'],4,0.0487897436833,1,['num_7'],0,[1.2613739487715065],,2018_Jun_02_1215,59.9573472748,sequenceLearningTask,001,095,
min1.png,min2.png,min3.png,min4.png,allBlank.png,,,,['num_1'],,,,,,0,3,3,3,,,,,,,,,['num_1'],4,0.0557259487687,1,['num_1'],0,[1.7891249230597168],,2018_Jun_02_1215,59.9573472748,sequenceLearningTask,001,095,
min1.png,min2.png,min3.png,min4.png,allBlank.png,,,,['num_4'],,,,,,0,3,3,3,,,,,,,,,['num_4'],4,0.0534055385506,1,['num_4'],0,[2.9743392820237204],,2018_Jun_02_1215,59.9573472748,sequenceLearningTask,001,095,
min1.png,min2.png,min3.png,min4.png,allBlank.png,,,,['num_0'],,,,,,0,3,3,3,,,,,,,,,['num_0'],4,0.0556738461601,1,['num_0'],0,[2.1717616410460323],,2018_Jun_02_1215,59.9573472748,sequenceLearningTask,001,095,
min1.png,min2.png,min3.png,min4.png,allBlank.png,,,,['num_0'],,,,,,0,3,3,3,,,,,,,,,['num_0'],4,0.0504258461297,1,['num_0'],0,[1.677332102553919],,2018_Jun_02_1215,59.9573472748,sequenceLearningTask,001,095,
min1.png,min2.png,min3.png,min4.png,allBlank.png,,,,['num_4'],,,,,,0,3,3,3,,,,,,,,,['num_4'],4,0.0546441025799,1,['num_4'],0,[2.089445333345793],,2018_Jun_02_1215,59.9573472748,sequenceLearningTask,001,095,
min1.png,min2.png,min3.png,min4.png,allBlank.png,,,,['num_1'],,,,,,0,3,3,3,,,,,,,,,['num_1'],4,0.0558211281896,1,['num_1'],0,[1.069391589728184],,2018_Jun_02_1215,59.9573472748,sequenceLearningTask,001,095,
min1.png,min2.png,min3.png,min4.png,allBlank.png,,,,['num_0'],,,,,,0,3,3,3,,,,,,,,,['num_0'],4,0.0516307692742,1,['num_0'],0,[1.47632738458924],,2018_Jun_02_1215,59.9573472748,sequenceLearningTask,001,095,
min1.png,min2.png,min3.png,min4.png,allBlank.png,,,,['num_7'],,,,,,0,4,4,4,,,,,,,,,['num_7'],5,0.0411688204622,1,['num_7'],0,[2.1156467692926526],,2018_Jun_02_1215,59.9573472748,sequenceLearningTask,001,095,
min1.png,min2.png,min3.png,min4.png,allBlank.png,,,,['num_1'],,,,,,0,4,4,4,,,,,,,,,['num_1'],5,0.0564274871722,1,['num_1'],0,[1.537714461563155],,2018_Jun_02_1215,59.9573472748,sequenceLearningTask,001,095,
min1.png,min2.png,min3.png,min4.png,allBlank.png,,,,['num_4'],,,,,,0,4,4,4,,,,,,,,,['num_4'],5,0.0558441025205,1,['num_4'],0,[3.08845661545638],,2018_Jun_02_1215,59.9573472748,sequenceLearningTask,001,095,
min1.png,min2.png,min3.png,min4.png,allBlank.png,,,,['num_0'],,,,,,0,4,4,4,,,,,,,,,['num_0'],5,0.0575380512746,1,['num_0'],0,[1.3870174358598888],,2018_Jun_02_1215,59.9573472748,sequenceLearningTask,001,095,
min1.png,min2.png,min3.png,min4.png,allBlank.png,,,,['num_0'],,,,,,0,4,4,4,,,,,,,,,['num_0'],5,0.057769025676,1,['num_0'],0,[2.185992615413852],,2018_Jun_02_1215,59.9573472748,sequenceLearningTask,001,095,
min1.png,min2.png,min3.png,min4.png,allBlank.png,,,,['num_4'],,,,,,0,4,4,4,,,,,,,,,['num_4'],5,0.0525587692391,1,['num_4'],0,[3.624944820534438],,2018_Jun_02_1215,59.9573472748,sequenceLearningTask,001,095,
min1.png,min2.png,min3.png,min4.png,allBlank.png,,,,['num_1'],,,,,,0,4,4,4,,,,,,,,,['num_1'],5,0.0514342564857,1,['num_1'],0,[1.3764705640496686],,2018_Jun_02_1215,59.9573472748,sequenceLearningTask,001,095,
min1.png,min2.png,min3.png,min4.png,allBlank.png,,,,['num_0'],,,,,,0,4,4,4,,,,,,,,,['num_0'],5,0.0620853333967,1,['num_0'],0,[0.8483228717232123],,2018_Jun_02_1215,59.9573472748,sequenceLearningTask,001,095,
min1.png,min2.png,min3.png,min4.png,allBlank.png,,,,['num_7'],,,,,,0,5,5,5,,,,,,,,,['num_7'],6,0.0557476923568,1,['num_7'],0,[1.2725694358814508],,2018_Jun_02_1215,59.9573472748,sequenceLearningTask,001,095,
min1.png,min2.png,min3.png,min4.png,allBlank.png,,,,['num_1'],,,,,,0,5,5,5,,,,,,,,,['num_1'],6,0.0589415384457,1,['num_1'],0,[3.018869743682444],,2018_Jun_02_1215,59.9573472748,sequenceLearningTask,001,095,
min1.png,min2.png,min3.png,min4.png,allBlank.png,,,,['num_4'],,,,,,0,5,5,5,,,,,,,,,['num_4'],6,0.0627511794446,1,['num_4'],0,[1.2640959999989718],,2018_Jun_02_1215,59.9573472748,sequenceLearningTask,001,095,
min1.png,min2.png,min3.png,min4.png,allBlank.png,,,,['num_0'],,,,,,0,5,5,5,,,,,,,,,['num_0'],6,0.066909128218,1,['num_0'],0,[1.8270404102513567],,2018_Jun_02_1215,59.9573472748,sequenceLearningTask,001,095,
min1.png,min2.png,min3.png,min4.png,allBlank.png,,,,['num_0'],,,,,,0,5,5,5,,,,,,,,,['num_0'],6,0.0642153846566,1,['num_0'],0,[1.4306498462101445],,2018_Jun_02_1215,59.9573472748,sequenceLearningTask,001,095,
min1.png,min2.png,min3.png,min4.png,allBlank.png,,,,['num_4'],,,,,,0,5,5,5,,,,,,,,,['num_4'],6,0.0570744615979,1,['num_4'],0,[2.251823179423809],,2018_Jun_02_1215,59.9573472748,sequenceLearningTask,001,095,
min1.png,min2.png,min3.png,min4.png,allBlank.png,,,,['num_1'],,,,,,0,5,5,5,,,,,,,,,['num_1'],6,0.0549284102162,1,['num_1'],0,[1.706034461618401],,2018_Jun_02_1215,59.9573472748,sequenceLearningTask,001,095,
min1.png,min2.png,min3.png,min4.png,allBlank.png,,,,['num_0'],,,,,,0,5,5,5,,,,,,,,,['num_0'],6,0.0545062563615,0,"['num_1', 'num_0']",0,"[2.52364635898266, 2.57351753837429]",,2018_Jun_02_1215,59.9573472748,sequenceLearningTask,001,095,
min1.png,min2.png,min3.png,min4.png,allBlank.png,,,,['num_7'],,,,,,0,6,6,6,,,,,,,,,['num_7'],7,0.0504841025686,1,['num_7'],0,[1.025942153763026],,2018_Jun_02_1215,59.9573472748,sequenceLearningTask,001,095,
min1.png,min2.png,min3.png,min4.png,allBlank.png,,,,['num_1'],,,,,,0,6,6,6,,,,,,,,,['num_1'],7,0.0601070770063,1,['num_1'],0,[1.4163917949190363],,2018_Jun_02_1215,59.9573472748,sequenceLearningTask,001,095,
min1.png,min2.png,min3.png,min4.png,allBlank.png,,,,['num_4'],,,,,,0,6,6,6,,,,,,,,,['num_4'],7,0.0590596923139,1,['num_4'],0,[1.468262564158067],,2018_Jun_02_1215,59.9573472748,sequenceLearningTask,001,095,
min1.png,min2.png,min3.png,min4.png,allBlank.png,,,,['num_0'],,,,,,0,6,6,6,,,,,,,,,['num_0'],7,0.0589095384348,1,['num_0'],0,[0.9521997948177159],,2018_Jun_02_1215,59.9573472748,sequenceLearningTask,001,095,
min1.png,min2.png,min3.png,min4.png,allBlank.png,,,,['num_0'],,,,,,0,6,6,6,,,,,,,,,['num_0'],7,0.0636315897573,0,"['num_1', 'num_0', 'num_0']",0,"[0.6301444101845846, 1.4308681025868282]",,2018_Jun_02_1215,59.9573472748,sequenceLearningTask,001,095,
min1.png,min2.png,min3.png,min4.png,allBlank.png,,,,['num_4'],,,,,,0,6,6,6,,,,,,,,,['num_4'],7,0.0570867692586,1,['num_4'],0,[2.1036931282142177],,2018_Jun_02_1215,59.9573472748,sequenceLearningTask,001,095,
min1.png,min2.png,min3.png,min4.png,allBlank.png,,,,['num_1'],,,,,,0,6,6,6,,,,,,,,,['num_1'],7,0.0521103589563,1,['num_1'],0,[2.00848246156238],,2018_Jun_02_1215,59.9573472748,sequenceLearningTask,001,095,
min1.png,min2.png,min3.png,min4.png,allBlank.png,,,,['num_0'],,,,,,0,6,6,6,,,,,,,,,['num_0'],7,0.0546568204882,1,['num_0'],0,[1.7214916922384873],,2018_Jun_02_1215,59.9573472748,sequenceLearningTask,001,095,
min1.png,min2.png,min3.png,min4.png,allBlank.png,,,,['num_7'],,,,,,0,7,7,7,,,,,,,,,['num_7'],8,0.0568664615275,1,['num_7'],0,[0.9196947691962123],,2018_Jun_02_1215,59.9573472748,sequenceLearningTask,001,095,
min1.png,min2.png,min3.png,min4.png,allBlank.png,,,,['num_1'],,,,,,0,7,7,7,,,,,,,,,['num_1'],8,0.0510830768617,1,['num_1'],0,[2.2445189744466916],,2018_Jun_02_1215,59.9573472748,sequenceLearningTask,001,095,
min1.png,min2.png,min3.png,min4.png,allBlank.png,,,,['num_4'],,,,,,0,7,7,7,,,,,,,,,['num_4'],8,0.0536635897588,1,['num_4'],0,[2.2754449230851606],,2018_Jun_02_1215,59.9573472748,sequenceLearningTask,001,095,
min1.png,min2.png,min3.png,min4.png,allBlank.png,,,,['num_0'],,,,,,0,7,7,7,,,,,,,,,['num_0'],8,0.0523372307653,1,['num_0'],0,[3.5081230769865215],,2018_Jun_02_1215,59.9573472748,sequenceLearningTask,001,095,
min1.png,min2.png,min3.png,min4.png,allBlank.png,,,,['num_0'],,,,,,0,7,7,7,,,,,,,,,['num_0'],8,0.0499232820002,1,['num_0'],0,[3.3774921025615185],,2018_Jun_02_1215,59.9573472748,sequenceLearningTask,001,095,
min1.png,min2.png,min3.png,min4.png,allBlank.png,,,,['num_4'],,,,,,0,7,7,7,,,,,,,,,['num_4'],8,0.0563097435515,1,['num_4'],0,[3.721418666653335],,2018_Jun_02_1215,59.9573472748,sequenceLearningTask,001,095,
min1.png,min2.png,min3.png,min4.png,allBlank.png,,,,['num_1'],,,,,,0,7,7,7,,,,,,,,,['num_1'],8,0.0578613333637,1,['num_1'],0,[1.4359142563771456],,2018_Jun_02_1215,59.9573472748,sequenceLearningTask,001,095,
min1.png,min2.png,min3.png,min4.png,allBlank.png,,,,['num_0'],,,,,,0,7,7,7,,,,,,,,,['num_0'],8,0.0631958974991,1,['num_0'],0,[1.230597333284095],,2018_Jun_02_1215,59.9573472748,sequenceLearningTask,001,095,
min1.png,min2.png,min3.png,min4.png,allBlank.png,,,,['num_7'],,,,,,0,8,8,8,,,,,,,,,['num_7'],9,0.0514884102158,1,['num_7'],0,[1.857889640959911],,2018_Jun_02_1215,59.9573472748,sequenceLearningTask,001,095,
min1.png,min2.png,min3.png,min4.png,allBlank.png,,,,['num_1'],,,,,,0,8,8,8,,,,,,,,,['num_1'],9,0.0620693333913,1,['num_1'],0,[1.6319228718057275],,2018_Jun_02_1215,59.9573472748,sequenceLearningTask,001,095,
min1.png,min2.png,min3.png,min4.png,allBlank.png,,,,['num_4'],,,,,,0,8,8,8,,,,,,,,,['num_4'],9,0.0555520000635,1,['num_4'],0,[1.9719602051191032],,2018_Jun_02_1215,59.9573472748,sequenceLearningTask,001,095,
min1.png,min2.png,min3.png,min4.png,allBlank.png,,,,['num_0'],,,,,,0,8,8,8,,,,,,,,,['num_0'],9,0.0553476923378,1,['num_0'],0,[1.5062539487844333],,2018_Jun_02_1215,59.9573472748,sequenceLearningTask,001,095,
min1.png,min2.png,min3.png,min4.png,allBlank.png,,,,['num_0'],,,,,,0,8,8,8,,,,,,,,,['num_0'],9,0.0505066667683,1,['num_0'],0,[1.1268808204913512],,2018_Jun_02_1215,59.9573472748,sequenceLearningTask,001,095,
min1.png,min2.png,min3.png,min4.png,allBlank.png,,,,['num_4'],,,,,,0,8,8,8,,,,,,,,,['num_4'],9,0.0573103589704,1,['num_4'],0,[1.70399671792984],,2018_Jun_02_1215,59.9573472748,sequenceLearningTask,001,095,
min1.png,min2.png,min3.png,min4.png,allBlank.png,,,,['num_1'],,,,,,0,8,8,8,,,,,,,,,['num_1'],9,0.0541850256268,1,['num_1'],0,[1.073532307636924],,2018_Jun_02_1215,59.9573472748,sequenceLearningTask,001,095,
min1.png,min2.png,min3.png,min4.png,allBlank.png,,,,['num_0'],,,,,,0,8,8,8,,,,,,,,,['num_0'],9,0.0474674871657,1,['num_0'],0,[1.0308496410725638],,2018_Jun_02_1215,59.9573472748,sequenceLearningTask,001,095,
min1.png,min2.png,min3.png,min4.png,allBlank.png,,,,['num_7'],,,,,,0,9,9,9,,,,,,,,,['num_7'],10,0.0597321025562,1,['num_7'],0,[1.1158289230661467],,2018_Jun_02_1215,59.9573472748,sequenceLearningTask,001,095,
min1.png,min2.png,min3.png,min4.png,allBlank.png,,,,['num_1'],,,,,,0,9,9,9,,,,,,,,,['num_1'],10,0.0523154871771,1,['num_1'],0,[1.1929497435921803],,2018_Jun_02_1215,59.9573472748,sequenceLearningTask,001,095,
min1.png,min2.png,min3.png,min4.png,allBlank.png,,,,['num_4'],,,,,,0,9,9,9,,,,,,,,,['num_4'],10,0.0509891281836,1,['num_4'],0,[1.3268767179688439],,2018_Jun_02_1215,59.9573472748,sequenceLearningTask,001,095,
min1.png,min2.png,min3.png,min4.png,allBlank.png,,,,['num_0'],,,,,,0,9,9,9,,,,,,,,,['num_0'],10,0.0584914871724,1,['num_0'],0,[1.2360582563560456],,2018_Jun_02_1215,59.9573472748,sequenceLearningTask,001,095,
min1.png,min2.png,min3.png,min4.png,allBlank.png,,,,['num_0'],,,,,,0,9,9,9,,,,,,,,,['num_0'],10,0.0539134358987,1,['num_0'],0,[0.5571626666933298],,2018_Jun_02_1215,59.9573472748,sequenceLearningTask,001,095,
min1.png,min2.png,min3.png,min4.png,allBlank.png,,,,['num_4'],,,,,,0,9,9,9,,,,,,,,,['num_4'],10,0.0568808205426,1,['num_4'],0,[1.5367224615765736],,2018_Jun_02_1215,59.9573472748,sequenceLearningTask,001,095,
min1.png,min2.png,min3.png,min4.png,allBlank.png,,,,['num_1'],,,,,,0,9,9,9,,,,,,,,,['num_1'],10,0.057507282123,1,['num_1'],0,[1.153448615456],,2018_Jun_02_1215,59.9573472748,sequenceLearningTask,001,095,
min1.png,min2.png,min3.png,min4.png,allBlank.png,,,,['num_0'],,,,,,0,9,9,9,,,,,,,,,['num_0'],10,0.0579983589705,1,['num_0'],0,[0.8860467692138627],,2018_Jun_02_1215,59.9573472748,sequenceLearningTask,001,095,
min1.png,min2.png,min3.png,min4.png,images/allBlank.png,images/min1.png,'num_7',"['num_7', 'num_4', 'num_1', 'num_0']",['num_7'],num_7,,,,,0,9,9,9,0,0,0,0,,,,,['num_7'],,0.112062769243,1,['num_7'],0,[1.8218752819811925],1,2018_Jun_02_1215,59.9573472748,sequenceLearningTask,001,095,
min1.png,min2.png,min3.png,min4.png,images/allBlank.png,images/min2.png,'num_4',"['num_7', 'num_4', 'num_1', 'num_0']",['num_4'],num_4,,,,,0,9,9,9,0,1,1,1,,,,,['num_4'],,0.0588344614953,1,['num_4'],0,[1.0339983589947224],1,2018_Jun_02_1215,59.9573472748,sequenceLearningTask,001,095,
min1.png,min2.png,min3.png,min4.png,images/allBlank.png,images/min3.png,'num_1',"['num_7', 'num_4', 'num_1', 'num_0']",['num_1'],num_1,,,,,0,9,9,9,0,2,2,2,,,,,['num_1'],,0.0556348718237,1,['num_1'],0,[0.9887606153497472],1,2018_Jun_02_1215,59.9573472748,sequenceLearningTask,001,095,
min1.png,min2.png,min3.png,min4.png,images/allBlank.png,images/min4.png,'num_0',"['num_7', 'num_4', 'num_1', 'num_0']",['num_0'],num_0,,,,,0,9,9,9,0,3,3,3,,,,,['num_0'],,0.0628192820586,1,['num_0'],0,[0.8294182564131916],1,2018_Jun_02_1215,59.9573472748,sequenceLearningTask,001,095,
min1.png,min2.png,min3.png,min4.png,images/allBlank.png,images/min1.png,'num_7',"['num_7', 'num_4', 'num_1', 'num_0']",['num_7'],num_7,,,,,0,9,9,9,1,0,4,0,,,,,['num_7'],,0.054859487107,1,['num_7'],0,[1.0211310769664124],1,2018_Jun_02_1215,59.9573472748,sequenceLearningTask,001,095,
min1.png,min2.png,min3.png,min4.png,images/allBlank.png,images/min3.png,'num_1',"['num_7', 'num_4', 'num_1', 'num_0']",['num_1'],num_1,,,,,0,9,9,9,1,1,5,2,,,,,['num_1'],,0.0563967179041,1,['num_1'],0,[1.7203487179940566],1,2018_Jun_02_1215,59.9573472748,sequenceLearningTask,001,095,
min1.png,min2.png,min3.png,min4.png,images/allBlank.png,images/min4.png,'num_0',"['num_7', 'num_4', 'num_1', 'num_0']",['num_0'],num_0,,,,,0,9,9,9,1,2,6,3,,,,,['num_0'],,0.05620225647,1,['num_0'],0,[1.2522773332893848],1,2018_Jun_02_1215,59.9573472748,sequenceLearningTask,001,095,
min1.png,min2.png,min3.png,min4.png,images/allBlank.png,images/min2.png,'num_4',"['num_7', 'num_4', 'num_1', 'num_0']",['num_4'],num_4,,,,,0,9,9,9,1,3,7,1,,,,,['num_4'],,0.0557300512446,1,['num_4'],0,[2.636767589719966],1,2018_Jun_02_1215,59.9573472748,sequenceLearningTask,001,095,
min1.png,min2.png,min3.png,min4.png,images/allBlank.png,images/min3.png,'num_1',"['num_7', 'num_4', 'num_1', 'num_0']",['num_1'],num_1,,,,,0,9,9,9,2,0,8,2,,,,,['num_1'],,0.0505485128378,1,['num_1'],0,[3.108326564077288],1,2018_Jun_02_1215,59.9573472748,sequenceLearningTask,001,095,
min1.png,min2.png,min3.png,min4.png,images/allBlank.png,images/min2.png,'num_4',"['num_7', 'num_4', 'num_1', 'num_0']",['num_4'],num_4,,,,,0,9,9,9,2,1,9,1,,,,,['num_4'],,0.0555323077133,1,['num_4'],0,[1.4205924102570862],1,2018_Jun_02_1215,59.9573472748,sequenceLearningTask,001,095,
min1.png,min2.png,min3.png,min4.png,images/allBlank.png,images/min1.png,'num_7',"['num_7', 'num_4', 'num_1', 'num_0']",['num_7'],num_7,,,,,0,9,9,9,2,2,10,0,,,,,['num_7'],,0.055292307632,1,['num_7'],0,[1.1366609231336042],1,2018_Jun_02_1215,59.9573472748,sequenceLearningTask,001,095,
min1.png,min2.png,min3.png,min4.png,images/allBlank.png,images/min4.png,'num_0',"['num_7', 'num_4', 'num_1', 'num_0']",['num_0'],num_0,,,,,0,9,9,9,2,3,11,3,,,,,['num_0'],,0.0496767179575,1,['num_0'],0,[1.6932082050479949],1,2018_Jun_02_1215,59.9573472748,sequenceLearningTask,001,095,
min1.png,min2.png,min3.png,min4.png,images/allBlank.png,images/min4.png,'num_0',"['num_7', 'num_4', 'num_1', 'num_0']",['num_0'],num_0,,,,,0,9,9,9,3,0,12,3,,,,,['num_0'],,0.059203282115,1,['num_0'],0,[0.8659766154596582],1,2018_Jun_02_1215,59.9573472748,sequenceLearningTask,001,095,
min1.png,min2.png,min3.png,min4.png,images/allBlank.png,images/min2.png,'num_4',"['num_7', 'num_4', 'num_1', 'num_0']",['num_4'],num_4,,,,,0,9,9,9,3,1,13,1,,,,,['num_4'],,0.0596652308013,1,['num_4'],0,[2.1668533332413062],1,2018_Jun_02_1215,59.9573472748,sequenceLearningTask,001,095,
min1.png,min2.png,min3.png,min4.png,images/allBlank.png,images/min3.png,'num_1',"['num_7', 'num_4', 'num_1', 'num_0']",['num_1'],num_1,,,,,0,9,9,9,3,2,14,2,,,,,['num_1'],,0.054707692354,1,['num_1'],0,[2.321349333389662],1,2018_Jun_02_1215,59.9573472748,sequenceLearningTask,001,095,
min1.png,min2.png,min3.png,min4.png,images/allBlank.png,images/min1.png,'num_7',"['num_7', 'num_4', 'num_1', 'num_0']",['num_7'],num_7,,,,,0,9,9,9,3,3,15,0,,,,,['num_7'],,0.0574580512475,1,['num_7'],0,[1.2347823589807376],1,2018_Jun_02_1215,59.9573472748,sequenceLearningTask,001,095,
min1.png,min2.png,min3.png,min4.png,images/allBlank.png,images/min2.png,'num_4',"['num_7', 'num_4', 'num_1', 'num_0']",['num_4'],num_4,,,,,0,9,9,9,4,0,16,1,,,,,['num_4'],,0.0606104615144,1,['num_4'],0,[1.881498666596599],1,2018_Jun_02_1215,59.9573472748,sequenceLearningTask,001,095,
min1.png,min2.png,min3.png,min4.png,images/allBlank.png,images/min1.png,'num_7',"['num_7', 'num_4', 'num_1', 'num_0']",['num_7'],num_7,,,,,0,9,9,9,4,1,17,0,,,,,['num_7'],,0.0587655385025,1,['num_7'],0,[1.19976984616369],1,2018_Jun_02_1215,59.9573472748,sequenceLearningTask,001,095,
min1.png,min2.png,min3.png,min4.png,images/allBlank.png,images/min4.png,'num_0',"['num_7', 'num_4', 'num_1', 'num_0']",['num_0'],num_0,,,,,0,9,9,9,4,2,18,3,,,,,['num_0'],,0.0497583589749,1,['num_0'],0,[2.759385435958393],1,2018_Jun_02_1215,59.9573472748,sequenceLearningTask,001,095,
min1.png,min2.png,min3.png,min4.png,images/allBlank.png,images/min3.png,'num_1',"['num_7', 'num_4', 'num_1', 'num_0']",['num_1'],num_1,,,,,0,9,9,9,4,3,19,2,,,,,['num_1'],,0.0482666665921,1,['num_1'],0,[4.127903179498389],1,2018_Jun_02_1215,59.9573472748,sequenceLearningTask,001,095,
min1.png,min2.png,min3.png,min4.png,images/allBlank.png,images/min3.png,'num_1',"['num_7', 'num_4', 'num_1', 'num_0']",['num_1'],num_1,,,,,0,9,9,9,5,0,20,2,,,,,['num_1'],,0.0620586666046,1,['num_1'],0,[0.8464713846333325],1,2018_Jun_02_1215,59.9573472748,sequenceLearningTask,001,095,
min1.png,min2.png,min3.png,min4.png,images/allBlank.png,images/min4.png,'num_0',"['num_7', 'num_4', 'num_1', 'num_0']",['num_0'],num_0,,,,,0,9,9,9,5,1,21,3,,,,,['num_0'],,0.0534662563587,1,['num_0'],0,[1.1905645127408206],1,2018_Jun_02_1215,59.9573472748,sequenceLearningTask,001,095,
min1.png,min2.png,min3.png,min4.png,images/allBlank.png,images/min2.png,'num_4',"['num_7', 'num_4', 'num_1', 'num_0']",['num_4'],num_4,,,,,0,9,9,9,5,2,22,1,,,,,['num_4'],,0.051959384582,1,['num_4'],0,[1.7068877948913723],1,2018_Jun_02_1215,59.9573472748,sequenceLearningTask,001,095,
min1.png,min2.png,min3.png,min4.png,images/allBlank.png,images/min1.png,'num_7',"['num_7', 'num_4', 'num_1', 'num_0']",['num_7'],num_7,,,,,0,9,9,9,5,3,23,0,,,,,['num_7'],,0.0555187691934,1,['num_7'],0,[1.071771897491999],1,2018_Jun_02_1215,59.9573472748,sequenceLearningTask,001,095,
min1.png,min2.png,min3.png,min4.png,images/allBlank.png,images/min2.png,'num_4',"['num_7', 'num_4', 'num_1', 'num_0']",['num_4'],num_4,,,,,0,9,9,9,6,0,24,1,,,,,['num_4'],,0.0539597948082,1,['num_4'],0,[2.2049600000027567],1,2018_Jun_02_1215,59.9573472748,sequenceLearningTask,001,095,
min1.png,min2.png,min3.png,min4.png,images/allBlank.png,images/min1.png,'num_7',"['num_7', 'num_4', 'num_1', 'num_0']",['num_7'],num_7,,,,,0,9,9,9,6,1,25,0,,,,,['num_7'],,0.0537296410184,1,['num_7'],0,[1.0383946666261181],1,2018_Jun_02_1215,59.9573472748,sequenceLearningTask,001,095,
min1.png,min2.png,min3.png,min4.png,images/allBlank.png,images/min3.png,'num_1',"['num_7', 'num_4', 'num_1', 'num_0']",['num_1'],num_1,,,,,0,9,9,9,6,2,26,2,,,,,['num_1'],,0.0533427691553,1,['num_1'],0,[1.1558149743359536],1,2018_Jun_02_1215,59.9573472748,sequenceLearningTask,001,095,
min1.png,min2.png,min3.png,min4.png,images/allBlank.png,images/min4.png,'num_0',"['num_7', 'num_4', 'num_1', 'num_0']",['num_0'],num_0,,,,,0,9,9,9,6,3,27,3,,,,,['num_0'],,0.0553033845499,1,['num_0'],0,[0.8202625641133636],1,2018_Jun_02_1215,59.9573472748,sequenceLearningTask,001,095,
min1.png,min2.png,min3.png,min4.png,images/allBlank.png,images/min1.png,'num_7',"['num_7', 'num_4', 'num_1', 'num_0']",['num_7'],num_7,,,,,0,9,9,9,7,0,28,0,,,,,['num_7'],,0.0462281026412,1,['num_7'],0,[1.4464611281873658],1,2018_Jun_02_1215,59.9573472748,sequenceLearningTask,001,095,
min1.png,min2.png,min3.png,min4.png,images/allBlank.png,images/min3.png,'num_1',"['num_7', 'num_4', 'num_1', 'num_0']",['num_1'],num_1,,,,,0,9,9,9,7,1,29,2,,,,,['num_1'],,0.0573755897349,1,['num_1'],0,[1.101894564111717],1,2018_Jun_02_1215,59.9573472748,sequenceLearningTask,001,095,
min1.png,min2.png,min3.png,min4.png,images/allBlank.png,images/min4.png,'num_0',"['num_7', 'num_4', 'num_1', 'num_0']",['num_0'],num_0,,,,,0,9,9,9,7,2,30,3,,,,,['num_0'],,0.0590129230404,1,['num_0'],0,[1.099433435825631],1,2018_Jun_02_1215,59.9573472748,sequenceLearningTask,001,095,
min1.png,min2.png,min3.png,min4.png,images/allBlank.png,images/min2.png,'num_4',"['num_7', 'num_4', 'num_1', 'num_0']",['num_4'],num_4,,,,,0,9,9,9,7,3,31,1,,,,,['num_4'],,0.0627360000508,1,['num_4'],0,[2.0966748718637973],1,2018_Jun_02_1215,59.9573472748,sequenceLearningTask,001,095,
min1.png,min2.png,min3.png,min4.png,images/allBlank.png,images/min2.png,'num_4',"['num_7', 'num_4', 'num_1', 'num_0']",['num_4'],num_4,,,,,0,9,9,9,8,0,32,1,,,,,['num_4'],,0.0547163076699,1,['num_4'],0,[2.7043339487863705],1,2018_Jun_02_1215,59.9573472748,sequenceLearningTask,001,095,
min1.png,min2.png,min3.png,min4.png,images/allBlank.png,images/min4.png,'num_0',"['num_7', 'num_4', 'num_1', 'num_0']",['num_0'],num_0,,,,,0,9,9,9,8,1,33,3,,,,,['num_0'],,0.0621501537971,1,['num_0'],0,[0.9464172307634726],1,2018_Jun_02_1215,59.9573472748,sequenceLearningTask,001,095,
min1.png,min2.png,min3.png,min4.png,images/allBlank.png,images/min1.png,'num_7',"['num_7', 'num_4', 'num_1', 'num_0']",['num_7'],num_7,,,,,0,9,9,9,8,2,34,0,,,,,['num_7'],,0.0538075896911,1,['num_7'],0,[2.2725501538952813],1,2018_Jun_02_1215,59.9573472748,sequenceLearningTask,001,095,
min1.png,min2.png,min3.png,min4.png,images/allBlank.png,images/min3.png,'num_1',"['num_7', 'num_4', 'num_1', 'num_0']",['num_1'],num_1,,,,,0,9,9,9,8,3,35,2,,,,,['num_1'],,0.0633907691808,1,['num_1'],0,[3.340944410301745],1,2018_Jun_02_1215,59.9573472748,sequenceLearningTask,001,095,
min1.png,min2.png,min3.png,min4.png,images/allBlank.png,images/min1.png,'num_7',"['num_7', 'num_4', 'num_1', 'num_0']",['num_7'],num_7,,,,,0,9,9,9,9,0,36,0,,,,,['num_7'],,0.0524890256347,1,['num_7'],0,[1.6744869743706658],1,2018_Jun_02_1215,59.9573472748,sequenceLearningTask,001,095,
min1.png,min2.png,min3.png,min4.png,images/allBlank.png,images/min4.png,'num_0',"['num_7', 'num_4', 'num_1', 'num_0']",['num_0'],num_0,,,,,0,9,9,9,9,1,37,3,,,,,['num_0'],,0.0513288205257,1,['num_0'],0,[1.17627200006973],1,2018_Jun_02_1215,59.9573472748,sequenceLearningTask,001,095,
min1.png,min2.png,min3.png,min4.png,images/allBlank.png,images/min2.png,'num_4',"['num_7', 'num_4', 'num_1', 'num_0']",['num_4'],num_4,,,,,0,9,9,9,9,2,38,1,,,,,['num_4'],,0.061499487143,1,['num_4'],0,[3.4127134358277544],1,2018_Jun_02_1215,59.9573472748,sequenceLearningTask,001,095,
min1.png,min2.png,min3.png,min4.png,images/allBlank.png,images/min3.png,'num_1',"['num_7', 'num_4', 'num_1', 'num_0']",['num_1'],num_1,,,,,0,9,9,9,9,3,39,2,,,,,['num_1'],,0.0572278974578,1,['num_1'],0,[0.9179704615380615],1,2018_Jun_02_1215,59.9573472748,sequenceLearningTask,001,095,
min1.png,min2.png,min3.png,min4.png,images/allBlank.png,images/min4.png,'num_0',"['num_7', 'num_4', 'num_1', 'num_0']",['num_0'],num_0,,,,,0,9,9,9,10,0,40,3,,,,,['num_0'],,0.0495458460646,1,['num_0'],0,[2.4597993846982718],1,2018_Jun_02_1215,59.9573472748,sequenceLearningTask,001,095,
min1.png,min2.png,min3.png,min4.png,images/allBlank.png,images/min2.png,'num_4',"['num_7', 'num_4', 'num_1', 'num_0']",['num_4'],num_4,,,,,0,9,9,9,10,1,41,1,,,,,['num_4'],,0.056162461522,1,['num_4'],0,[1.319630769197829],1,2018_Jun_02_1215,59.9573472748,sequenceLearningTask,001,095,
min1.png,min2.png,min3.png,min4.png,images/allBlank.png,images/min3.png,'num_1',"['num_7', 'num_4', 'num_1', 'num_0']",['num_1'],num_1,,,,,0,9,9,9,10,2,42,2,,,,,['num_1'],,0.048308923142,1,['num_1'],0,[4.01151589746587],1,2018_Jun_02_1215,59.9573472748,sequenceLearningTask,001,095,
min1.png,min2.png,min3.png,min4.png,images/allBlank.png,images/min1.png,'num_7',"['num_7', 'num_4', 'num_1', 'num_0']",['num_7'],num_7,,,,,0,9,9,9,10,3,43,0,,,,,['num_7'],,0.0544849231374,1,['num_7'],0,[1.3221965128323063],1,2018_Jun_02_1215,59.9573472748,sequenceLearningTask,001,095,
min1.png,min2.png,min3.png,min4.png,images/allBlank.png,images/min4.png,'num_0',"['num_7', 'num_4', 'num_1', 'num_0']",['num_0'],num_0,,,,,0,9,9,9,11,0,44,3,,,,,['num_0'],,0.0549891281407,1,['num_0'],0,[2.304846358951181],1,2018_Jun_02_1215,59.9573472748,sequenceLearningTask,001,095,
min1.png,min2.png,min3.png,min4.png,images/allBlank.png,images/min1.png,'num_7',"['num_7', 'num_4', 'num_1', 'num_0']",['num_7'],num_7,,,,,0,9,9,9,11,1,45,0,,,,,['num_7'],,0.0603524103062,1,['num_7'],0,[2.9817911795107648],1,2018_Jun_02_1215,59.9573472748,sequenceLearningTask,001,095,
min1.png,min2.png,min3.png,min4.png,images/allBlank.png,images/min2.png,'num_4',"['num_7', 'num_4', 'num_1', 'num_0']",['num_4'],num_4,,,,,0,9,9,9,11,2,46,1,,,,,['num_4'],,0.062629333348,1,['num_4'],0,[1.4292541538598016],1,2018_Jun_02_1215,59.9573472748,sequenceLearningTask,001,095,
min1.png,min2.png,min3.png,min4.png,images/allBlank.png,images/min3.png,'num_1',"['num_7', 'num_4', 'num_1', 'num_0']",['num_1'],num_1,,,,,0,9,9,9,11,3,47,2,,,,,['num_1'],,0.051491692313,1,['num_1'],0,[2.140679794945754],1,2018_Jun_02_1215,59.9573472748,sequenceLearningTask,001,095,
min1.png,min2.png,min3.png,min4.png,images/allBlank.png,images/min3.png,'num_1',"['num_7', 'num_4', 'num_1', 'num_0']",['num_1'],num_1,,,,,0,9,9,9,12,0,48,2,,,,,['num_1'],,0.048883692245,1,['num_1'],0,[1.9944521025754511],1,2018_Jun_02_1215,59.9573472748,sequenceLearningTask,001,095,
min1.png,min2.png,min3.png,min4.png,images/allBlank.png,images/min4.png,'num_0',"['num_7', 'num_4', 'num_1', 'num_0']",['num_0'],num_0,,,,,0,9,9,9,12,1,49,3,,,,,['num_0'],,0.0523507691687,1,['num_0'],0,[1.0579146665986627],1,2018_Jun_02_1215,59.9573472748,sequenceLearningTask,001,095,
min1.png,min2.png,min3.png,min4.png,images/allBlank.png,images/min1.png,'num_7',"['num_7', 'num_4', 'num_1', 'num_0']",['num_7'],num_7,,,,,0,9,9,9,12,2,50,0,,,,,['num_7'],,0.0536406153115,1,['num_7'],0,[1.4210810256190598],1,2018_Jun_02_1215,59.9573472748,sequenceLearningTask,001,095,
min1.png,min2.png,min3.png,min4.png,images/allBlank.png,images/min2.png,'num_4',"['num_7', 'num_4', 'num_1', 'num_0']",['num_4'],num_4,,,,,0,9,9,9,12,3,51,1,,,,,['num_4'],,0.0541292307898,1,['num_4'],0,[3.756242871750146],1,2018_Jun_02_1215,59.9573472748,sequenceLearningTask,001,095,
min1.png,min2.png,min3.png,min4.png,images/allBlank.png,images/min3.png,'num_1',"['num_7', 'num_4', 'num_1', 'num_0']",['num_1'],num_1,,,,,0,9,9,9,13,0,52,2,,,,,['num_1'],,0.0617788718082,1,['num_1'],0,[2.6301669742679223],1,2018_Jun_02_1215,59.9573472748,sequenceLearningTask,001,095,
min1.png,min2.png,min3.png,min4.png,images/allBlank.png,images/min1.png,'num_7',"['num_7', 'num_4', 'num_1', 'num_0']",['num_7'],num_7,,,,,0,9,9,9,13,1,53,0,,,,,['num_7'],,0.0625952819828,1,['num_7'],0,[1.513281230814755],1,2018_Jun_02_1215,59.9573472748,sequenceLearningTask,001,095,
min1.png,min2.png,min3.png,min4.png,images/allBlank.png,images/min2.png,'num_4',"['num_7', 'num_4', 'num_1', 'num_0']",['num_4'],num_4,,,,,0,9,9,9,13,2,54,1,,,,,['num_4'],,0.0569866667502,1,['num_4'],0,[1.7364849231671542],1,2018_Jun_02_1215,59.9573472748,sequenceLearningTask,001,095,
min1.png,min2.png,min3.png,min4.png,images/allBlank.png,images/min4.png,'num_0',"['num_7', 'num_4', 'num_1', 'num_0']",['num_0'],num_0,,,,,0,9,9,9,13,3,55,3,,,,,['num_0'],,0.055402256432,1,['num_0'],0,[1.5529263589996845],1,2018_Jun_02_1215,59.9573472748,sequenceLearningTask,001,095,
min1.png,min2.png,min3.png,min4.png,images/allBlank.png,images/min2.png,'num_4',"['num_7', 'num_4', 'num_1', 'num_0']",['num_4'],num_4,,,,,0,9,9,9,14,0,56,1,,,,,['num_4'],,0.0591585640796,1,['num_4'],0,[1.6840278974268585],1,2018_Jun_02_1215,59.9573472748,sequenceLearningTask,001,095,
min1.png,min2.png,min3.png,min4.png,images/allBlank.png,images/min4.png,'num_0',"['num_7', 'num_4', 'num_1', 'num_0']",['num_0'],num_0,,,,,0,9,9,9,14,1,57,3,,,,,['num_0'],,0.0511815383798,1,['num_0'],0,[1.0577050256542861],1,2018_Jun_02_1215,59.9573472748,sequenceLearningTask,001,095,
min1.png,min2.png,min3.png,min4.png,images/allBlank.png,images/min1.png,'num_7',"['num_7', 'num_4', 'num_1', 'num_0']",['num_7'],num_7,,,,,0,9,9,9,14,2,58,0,,,,,['num_7'],,0.051140923053,1,['num_7'],0,[0.9414728204719722],1,2018_Jun_02_1215,59.9573472748,sequenceLearningTask,001,095,
min1.png,min2.png,min3.png,min4.png,images/allBlank.png,images/min3.png,'num_1',"['num_7', 'num_4', 'num_1', 'num_0']",['num_1'],num_1,,,,,0,9,9,9,14,3,59,2,,,,,['num_1'],,0.0527294358471,1,['num_1'],0,[1.2066982564283535],1,2018_Jun_02_1215,59.9573472748,sequenceLearningTask,001,095,
min1.png,min2.png,min3.png,min4.png,images/allBlank.png,images/min3.png,'num_1',"['num_7', 'num_4', 'num_1', 'num_0']",['num_1'],num_1,,,,,0,9,9,9,15,0,60,2,,,,,['num_1'],,0.0564307691529,1,['num_1'],0,[0.9191848204936832],1,2018_Jun_02_1215,59.9573472748,sequenceLearningTask,001,095,
min1.png,min2.png,min3.png,min4.png,images/allBlank.png,images/min2.png,'num_4',"['num_7', 'num_4', 'num_1', 'num_0']",['num_4'],num_4,,,,,0,9,9,9,15,1,61,1,,,,,['num_4'],,0.0493764103157,1,['num_4'],0,[1.8270186666632071],1,2018_Jun_02_1215,59.9573472748,sequenceLearningTask,001,095,
min1.png,min2.png,min3.png,min4.png,images/allBlank.png,images/min1.png,'num_7',"['num_7', 'num_4', 'num_1', 'num_0']",['num_7'],num_7,,,,,0,9,9,9,15,2,62,0,,,,,['num_7'],,0.0613997948822,1,['num_7'],0,[1.012637128122151],1,2018_Jun_02_1215,59.9573472748,sequenceLearningTask,001,095,
min1.png,min2.png,min3.png,min4.png,images/allBlank.png,images/min4.png,'num_0',"['num_7', 'num_4', 'num_1', 'num_0']",['num_0'],num_0,,,,,0,9,9,9,15,3,63,3,,,,,['num_0'],,0.049246769282,1,['num_0'],0,[1.459558564121835],1,2018_Jun_02_1215,59.9573472748,sequenceLearningTask,001,095,
min1.png,min2.png,min3.png,min4.png,images/allBlank.png,images/min4.png,'num_0',"['num_7', 'num_4', 'num_1', 'num_0']",['num_0'],num_0,,,,,0,9,9,9,16,0,64,3,,,,,['num_0'],,0.0585136410082,1,['num_0'],0,[0.6830223590368405],1,2018_Jun_02_1215,59.9573472748,sequenceLearningTask,001,095,
min1.png,min2.png,min3.png,min4.png,images/allBlank.png,images/min2.png,'num_4',"['num_7', 'num_4', 'num_1', 'num_0']",['num_4'],num_4,,,,,0,9,9,9,16,1,65,1,,,,,['num_4'],,0.0497874872526,1,['num_4'],0,[1.5771688205422834],1,2018_Jun_02_1215,59.9573472748,sequenceLearningTask,001,095,
min1.png,min2.png,min3.png,min4.png,images/allBlank.png,images/min3.png,'num_1',"['num_7', 'num_4', 'num_1', 'num_0']",['num_1'],num_1,,,,,0,9,9,9,16,2,66,2,,,,,['num_1'],,0.0542084103217,1,['num_1'],0,[1.0879577435553074],1,2018_Jun_02_1215,59.9573472748,sequenceLearningTask,001,095,
min1.png,min2.png,min3.png,min4.png,images/allBlank.png,images/min1.png,'num_7',"['num_7', 'num_4', 'num_1', 'num_0']",['num_7'],num_7,,,,,0,9,9,9,16,3,67,0,,,,,['num_7'],,0.0493624615483,1,['num_7'],0,[1.7099409230286255],1,2018_Jun_02_1215,59.9573472748,sequenceLearningTask,001,095,
min1.png,min2.png,min3.png,min4.png,images/allBlank.png,images/min4.png,'num_0',"['num_7', 'num_4', 'num_1', 'num_0']",['num_0'],num_0,,,,,0,9,9,9,17,0,68,3,,,,,['num_0'],,0.0511097435374,1,['num_0'],0,[1.8588816410629079],1,2018_Jun_02_1215,59.9573472748,sequenceLearningTask,001,095,
min1.png,min2.png,min3.png,min4.png,images/allBlank.png,images/min2.png,'num_4',"['num_7', 'num_4', 'num_1', 'num_0']",['num_4'],num_4,,,,,0,9,9,9,17,1,69,1,,,,,['num_4'],,0.0581891281763,1,['num_4'],0,[2.3669997948454693],1,2018_Jun_02_1215,59.9573472748,sequenceLearningTask,001,095,
min1.png,min2.png,min3.png,min4.png,images/allBlank.png,images/min1.png,'num_7',"['num_7', 'num_4', 'num_1', 'num_0']",['num_7'],num_7,,,,,0,9,9,9,17,2,70,0,,,,,['num_7'],,0.0493952820543,1,['num_7'],0,[2.308667076868005],1,2018_Jun_02_1215,59.9573472748,sequenceLearningTask,001,095,
min1.png,min2.png,min3.png,min4.png,images/allBlank.png,images/min3.png,'num_1',"['num_7', 'num_4', 'num_1', 'num_0']",['num_1'],num_1,,,,,0,9,9,9,17,3,71,2,,,,,['num_1'],,0.0570038974984,1,['num_1'],0,[1.7850235897349194],1,2018_Jun_02_1215,59.9573472748,sequenceLearningTask,001,095,
min1.png,min2.png,min3.png,min4.png,images/allBlank.png,images/min3.png,'num_1',"['num_7', 'num_4', 'num_1', 'num_0']",['num_1'],num_1,,,,,0,9,9,9,18,0,72,2,,,,,['num_1'],,0.049615589669,1,['num_1'],0,[1.1614219488110393],1,2018_Jun_02_1215,59.9573472748,sequenceLearningTask,001,095,
min1.png,min2.png,min3.png,min4.png,images/allBlank.png,images/min2.png,'num_4',"['num_7', 'num_4', 'num_1', 'num_0']",['num_4'],num_4,,,,,0,9,9,9,18,1,73,1,,,,,['num_4'],,0.0513054359471,1,['num_4'],0,[1.4906617435626686],1,2018_Jun_02_1215,59.9573472748,sequenceLearningTask,001,095,
min1.png,min2.png,min3.png,min4.png,images/allBlank.png,images/min4.png,'num_0',"['num_7', 'num_4', 'num_1', 'num_0']",['num_0'],num_0,,,,,0,9,9,9,18,2,74,3,,,,,['num_0'],,0.0531856410671,1,['num_0'],0,[1.2226166153559461],1,2018_Jun_02_1215,59.9573472748,sequenceLearningTask,001,095,
min1.png,min2.png,min3.png,min4.png,images/allBlank.png,images/min1.png,'num_7',"['num_7', 'num_4', 'num_1', 'num_0']",['num_7'],num_7,,,,,0,9,9,9,18,3,75,0,,,,,['num_7'],,0.054967384669,1,['num_7'],0,[0.9710966153070331],1,2018_Jun_02_1215,59.9573472748,sequenceLearningTask,001,095,
min1.png,min2.png,min3.png,min4.png,images/allBlank.png,images/min2.png,'num_4',"['num_7', 'num_4', 'num_1', 'num_0']",['num_4'],num_4,,,,,0,9,9,9,19,0,76,1,,,,,['num_4'],,0.0576578461332,1,['num_4'],0,[1.4682748718187213],1,2018_Jun_02_1215,59.9573472748,sequenceLearningTask,001,095,
min1.png,min2.png,min3.png,min4.png,images/allBlank.png,images/min3.png,'num_1',"['num_7', 'num_4', 'num_1', 'num_0']",['num_1'],num_1,,,,,0,9,9,9,19,1,77,2,,,,,['num_1'],,0.0554059487768,1,['num_1'],0,[1.4698272820096463],1,2018_Jun_02_1215,59.9573472748,sequenceLearningTask,001,095,
min1.png,min2.png,min3.png,min4.png,images/allBlank.png,images/min1.png,'num_7',"['num_7', 'num_4', 'num_1', 'num_0']",['num_7'],num_7,,,,,0,9,9,9,19,2,78,0,,,,,['num_7'],,0.0628623589873,1,['num_7'],0,[0.7950375383952633],1,2018_Jun_02_1215,59.9573472748,sequenceLearningTask,001,095,
min1.png,min2.png,min3.png,min4.png,images/allBlank.png,images/min4.png,'num_0',"['num_7', 'num_4', 'num_1', 'num_0']",['num_0'],num_0,,,,,0,9,9,9,19,3,79,3,,,,,['num_0'],,0.0524931281107,1,['num_0'],0,[2.655695589724928],1,2018_Jun_02_1215,59.9573472748,sequenceLearningTask,001,095,
min1.png,min2.png,min3.png,min4.png,allBlank.png,,,,['num_7'],,,,,,0,0,0,0,,,,,,,,,['num_7'],1,0.0468336410122,1,['num_7'],0,[1.415501538431272],,2018_Jun_02_1215,59.9573472748,sequenceLearningTask,001,095,
min1.png,min2.png,min3.png,min4.png,allBlank.png,,,,['num_1'],,,,,,0,0,0,0,,,,,,,,,['num_1'],1,0.0511294358876,1,['num_1'],0,[1.3099232820095494],,2018_Jun_02_1215,59.9573472748,sequenceLearningTask,001,095,
min1.png,min2.png,min3.png,min4.png,allBlank.png,,,,['num_4'],,,,,,0,0,0,0,,,,,,,,,['num_4'],1,0.0520619486924,1,['num_4'],0,[1.110310564050451],,2018_Jun_02_1215,59.9573472748,sequenceLearningTask,001,095,
min1.png,min2.png,min3.png,min4.png,allBlank.png,,,,['num_0'],,,,,,0,0,0,0,,,,,,,,,['num_0'],1,0.0577628718456,1,['num_0'],0,[1.2706572307506576],,2018_Jun_02_1215,59.9573472748,sequenceLearningTask,001,095,
min1.png,min2.png,min3.png,min4.png,allBlank.png,,,,['num_0'],,,,,,0,0,0,0,,,,,,,,,['num_0'],1,0.0561284102732,1,['num_0'],0,[0.6536512820748612],,2018_Jun_02_1215,59.9573472748,sequenceLearningTask,001,095,
min1.png,min2.png,min3.png,min4.png,allBlank.png,,,,['num_4'],,,,,,0,0,0,0,,,,,,,,,['num_4'],1,0.0606145641068,1,['num_4'],0,[1.1001460512634367],,2018_Jun_02_1215,59.9573472748,sequenceLearningTask,001,095,
min1.png,min2.png,min3.png,min4.png,allBlank.png,,,,['num_1'],,,,,,0,0,0,0,,,,,,,,,['num_1'],1,0.049442871823,1,['num_1'],0,[1.0453706666594371],,2018_Jun_02_1215,59.9573472748,sequenceLearningTask,001,095,
min1.png,min2.png,min3.png,min4.png,allBlank.png,,,,['num_0'],,,,,,0,0,0,0,,,,,,,,,['num_0'],1,0.0530966153601,1,['num_0'],0,[1.0255306666949764],,2018_Jun_02_1215,59.9573472748,sequenceLearningTask,001,095,
min1.png,min2.png,min3.png,min4.png,allBlank.png,,,,['num_7'],,,,,,0,1,1,1,,,,,,,,,['num_7'],2,0.0558387691854,1,['num_7'],0,[0.8864841025788337],,2018_Jun_02_1215,59.9573472748,sequenceLearningTask,001,095,
min1.png,min2.png,min3.png,min4.png,allBlank.png,,,,['num_1'],,,,,,0,1,1,1,,,,,,,,,['num_1'],2,0.0527823589509,1,['num_1'],0,[1.9080036922823638],,2018_Jun_02_1215,59.9573472748,sequenceLearningTask,001,095,
min1.png,min2.png,min3.png,min4.png,allBlank.png,,,,['num_4'],,,,,,0,1,1,1,,,,,,,,,['num_4'],2,0.0570047178771,1,['num_4'],0,[1.1370818461291492],,2018_Jun_02_1215,59.9573472748,sequenceLearningTask,001,095,
min1.png,min2.png,min3.png,min4.png,allBlank.png,,,,['num_0'],,,,,,0,1,1,1,,,,,,,,,['num_0'],2,0.0558026665822,1,['num_0'],0,[1.0554252307629213],,2018_Jun_02_1215,59.9573472748,sequenceLearningTask,001,095,
min1.png,min2.png,min3.png,min4.png,allBlank.png,,,,['num_0'],,,,,,0,1,1,1,,,,,,,,,['num_0'],2,0.051019487204,1,['num_0'],0,[1.326931692310609],,2018_Jun_02_1215,59.9573472748,sequenceLearningTask,001,095,
min1.png,min2.png,min3.png,min4.png,allBlank.png,,,,['num_4'],,,,,,0,1,1,1,,,,,,,,,['num_4'],2,0.0583930256544,1,['num_4'],0,[2.5029124101856723],,2018_Jun_02_1215,59.9573472748,sequenceLearningTask,001,095,
min1.png,min2.png,min3.png,min4.png,allBlank.png,,,,['num_1'],,,,,,0,1,1,1,,,,,,,,,['num_1'],2,0.0535741538042,1,['num_1'],0,[2.456779897445813],,2018_Jun_02_1215,59.9573472748,sequenceLearningTask,001,095,
min1.png,min2.png,min3.png,min4.png,allBlank.png,,,,['num_0'],,,,,,0,1,1,1,,,,,,,,,['num_0'],2,0.0528931281297,1,['num_0'],0,[0.9747987692244351],,2018_Jun_02_1215,59.9573472748,sequenceLearningTask,001,095,
min1.png,min2.png,min3.png,min4.png,allBlank.png,,,,['num_7'],,,,,,0,2,2,2,,,,,,,,,['num_7'],3,0.0465665641241,1,['num_7'],0,[0.9791684101801366],,2018_Jun_02_1215,59.9573472748,sequenceLearningTask,001,095,
min1.png,min2.png,min3.png,min4.png,allBlank.png,,,,['num_1'],,,,,,0,2,2,2,,,,,,,,,['num_1'],3,0.0542814359069,1,['num_1'],0,[1.040432000067085],,2018_Jun_02_1215,59.9573472748,sequenceLearningTask,001,095,
min1.png,min2.png,min3.png,min4.png,allBlank.png,,,,['num_4'],,,,,,0,2,2,2,,,,,,,,,['num_4'],3,0.120563282049,1,['num_4'],0,[1.1579659486887977],,2018_Jun_02_1215,59.9573472748,sequenceLearningTask,001,095,
min1.png,min2.png,min3.png,min4.png,allBlank.png,,,,['num_0'],,,,,,0,2,2,2,,,,,,,,,['num_0'],3,0.0547277948353,1,['num_0'],0,[0.8892352820839733],,2018_Jun_02_1215,59.9573472748,sequenceLearningTask,001,095,
min1.png,min2.png,min3.png,min4.png,allBlank.png,,,,['num_0'],,,,,,0,2,2,2,,,,,,,,,['num_0'],3,0.0624968204647,1,['num_0'],0,[0.8811807179590687],,2018_Jun_02_1215,59.9573472748,sequenceLearningTask,001,095,
min1.png,min2.png,min3.png,min4.png,allBlank.png,,,,['num_4'],,,,,,0,2,2,2,,,,,,,,,['num_4'],3,0.0569140512962,1,['num_4'],0,[1.1874207179062068],,2018_Jun_02_1215,59.9573472748,sequenceLearningTask,001,095,
min1.png,min2.png,min3.png,min4.png,allBlank.png,,,,['num_1'],,,,,,0,2,2,2,,,,,,,,,['num_1'],3,0.0550752819981,1,['num_1'],0,[3.0057329231640324],,2018_Jun_02_1215,59.9573472748,sequenceLearningTask,001,095,
min1.png,min2.png,min3.png,min4.png,allBlank.png,,,,['num_0'],,,,,,0,2,2,2,,,,,,,,,['num_0'],3,0.055297230836,1,['num_0'],0,[1.205839179456234],,2018_Jun_02_1215,59.9573472748,sequenceLearningTask,001,095,
min1.png,min2.png,min3.png,min4.png,allBlank.png,,,,['num_7'],,,,,,0,3,3,3,,,,,,,,,['num_7'],4,0.0570806154283,1,['num_7'],0,[1.702176000108011],,2018_Jun_02_1215,59.9573472748,sequenceLearningTask,001,095,
min1.png,min2.png,min3.png,min4.png,allBlank.png,,,,['num_1'],,,,,,0,3,3,3,,,,,,,,,['num_1'],4,0.0538198974682,1,['num_1'],0,[2.290760615374893],,2018_Jun_02_1215,59.9573472748,sequenceLearningTask,001,095,
min1.png,min2.png,min3.png,min4.png,allBlank.png,,,,['num_4'],,,,,,0,3,3,3,,,,,,,,,['num_4'],4,0.04859405139,1,['num_4'],0,[1.1459532306762412],,2018_Jun_02_1215,59.9573472748,sequenceLearningTask,001,095,
min1.png,min2.png,min3.png,min4.png,allBlank.png,,,,['num_0'],,,,,,0,3,3,3,,,,,,,,,['num_0'],4,0.0541952820495,1,['num_0'],0,[1.7739364103181288],,2018_Jun_02_1215,59.9573472748,sequenceLearningTask,001,095,
min1.png,min2.png,min3.png,min4.png,allBlank.png,,,,['num_0'],,,,,,0,3,3,3,,,,,,,,,['num_0'],4,0.0533932307735,1,['num_0'],0,[0.6079314871458337],,2018_Jun_02_1215,59.9573472748,sequenceLearningTask,001,095,
min1.png,min2.png,min3.png,min4.png,allBlank.png,,,,['num_4'],,,,,,0,3,3,3,,,,,,,,,['num_4'],4,0.0560722051887,1,['num_4'],0,[1.5719388717552647],,2018_Jun_02_1215,59.9573472748,sequenceLearningTask,001,095,
min1.png,min2.png,min3.png,min4.png,allBlank.png,,,,['num_1'],,,,,,0,3,3,3,,,,,,,,,['num_1'],4,0.0590186667396,1,['num_1'],0,[0.7674424615688622],,2018_Jun_02_1215,59.9573472748,sequenceLearningTask,001,095,
min1.png,min2.png,min3.png,min4.png,allBlank.png,,,,['num_0'],,,,,,0,3,3,3,,,,,,,,,['num_0'],4,0.0446494359057,1,['num_0'],0,[1.1842834871495143],,2018_Jun_02_1215,59.9573472748,sequenceLearningTask,001,095,
min1.png,min2.png,min3.png,min4.png,allBlank.png,,,,['num_7'],,,,,,0,4,4,4,,,,,,,,,['num_7'],5,0.0529866666766,1,['num_7'],0,[1.3558272819500417],,2018_Jun_02_1215,59.9573472748,sequenceLearningTask,001,095,
min1.png,min2.png,min3.png,min4.png,allBlank.png,,,,['num_1'],,,,,,0,4,4,4,,,,,,,,,['num_1'],5,0.0565300512826,1,['num_1'],0,[3.3053415385074914],,2018_Jun_02_1215,59.9573472748,sequenceLearningTask,001,095,
min1.png,min2.png,min3.png,min4.png,allBlank.png,,,,['num_4'],,,,,,0,4,4,4,,,,,,,,,['num_4'],5,0.054894769215,1,['num_4'],0,[2.2390420513693243],,2018_Jun_02_1215,59.9573472748,sequenceLearningTask,001,095,
min1.png,min2.png,min3.png,min4.png,allBlank.png,,,,['num_0'],,,,,,0,4,4,4,,,,,,,,,['num_0'],5,0.0513965128921,1,['num_0'],0,[1.9753932306775823],,2018_Jun_02_1215,59.9573472748,sequenceLearningTask,001,095,
min1.png,min2.png,min3.png,min4.png,allBlank.png,,,,['num_0'],,,,,,0,4,4,4,,,,,,,,,['num_0'],5,0.0504824615782,1,['num_0'],0,[0.5604402051540092],,2018_Jun_02_1215,59.9573472748,sequenceLearningTask,001,095,
min1.png,min2.png,min3.png,min4.png,allBlank.png,,,,['num_4'],,,,,,0,4,4,4,,,,,,,,,['num_4'],5,0.0567499487661,0,"['num_0', 'num_4']",0,"[0.5887199999997392, 2.3883950769668445]",,2018_Jun_02_1215,59.9573472748,sequenceLearningTask,001,095,
min1.png,min2.png,min3.png,min4.png,allBlank.png,,,,['num_1'],,,,,,0,4,4,4,,,,,,,,,['num_1'],5,0.0643003076548,1,['num_1'],0,[1.494544000015594],,2018_Jun_02_1215,59.9573472748,sequenceLearningTask,001,095,
min1.png,min2.png,min3.png,min4.png,allBlank.png,,,,['num_0'],,,,,,0,4,4,4,,,,,,,,,['num_0'],5,0.0514781539096,1,['num_0'],0,[1.1430326154222712],,2018_Jun_02_1215,59.9573472748,sequenceLearningTask,001,095,
min1.png,min2.png,min3.png,min4.png,allBlank.png,,,,['num_7'],,,,,,0,5,5,5,,,,,,,,,['num_7'],6,0.04831097438,1,['num_7'],0,[1.177752205170691],,2018_Jun_02_1215,59.9573472748,sequenceLearningTask,001,095,
min1.png,min2.png,min3.png,min4.png,allBlank.png,,,,['num_1'],,,,,,0,5,5,5,,,,,,,,,['num_1'],6,0.0621062564896,1,['num_1'],0,[1.181943794945255],,2018_Jun_02_1215,59.9573472748,sequenceLearningTask,001,095,
min1.png,min2.png,min3.png,min4.png,allBlank.png,,,,['num_4'],,,,,,0,5,5,5,,,,,,,,,['num_4'],6,0.0588471795199,1,['num_4'],0,[1.351945846225135],,2018_Jun_02_1215,59.9573472748,sequenceLearningTask,001,095,
min1.png,min2.png,min3.png,min4.png,allBlank.png,,,,['num_0'],,,,,,0,5,5,5,,,,,,,,,['num_0'],6,0.0586937436601,1,['num_0'],0,[2.4189144615083933],,2018_Jun_02_1215,59.9573472748,sequenceLearningTask,001,095,
min1.png,min2.png,min3.png,min4.png,allBlank.png,,,,['num_0'],,,,,,0,5,5,5,,,,,,,,,['num_0'],6,0.0564877949655,1,['num_0'],0,[0.721000615390949],,2018_Jun_02_1215,59.9573472748,sequenceLearningTask,001,095,
min1.png,min2.png,min3.png,min4.png,allBlank.png,,,,['num_4'],,,,,,0,5,5,5,,,,,,,,,['num_4'],6,0.0477046153974,1,['num_4'],0,[1.430531281977892],,2018_Jun_02_1215,59.9573472748,sequenceLearningTask,001,095,
min1.png,min2.png,min3.png,min4.png,allBlank.png,,,,['num_1'],,,,,,0,5,5,5,,,,,,,,,['num_1'],6,0.0574375384022,1,['num_1'],0,[1.0874904615338892],,2018_Jun_02_1215,59.9573472748,sequenceLearningTask,001,095,
min1.png,min2.png,min3.png,min4.png,allBlank.png,,,,['num_0'],,,,,,0,5,5,5,,,,,,,,,['num_0'],6,0.0513066665735,1,['num_0'],0,[1.0767388718668371],,2018_Jun_02_1215,59.9573472748,sequenceLearningTask,001,095,
min1.png,min2.png,min3.png,min4.png,allBlank.png,,,,['num_7'],,,,,,0,6,6,6,,,,,,,,,['num_7'],7,0.0549932307331,1,['num_7'],0,[3.1875610256101936],,2018_Jun_02_1215,59.9573472748,sequenceLearningTask,001,095,
min1.png,min2.png,min3.png,min4.png,allBlank.png,,,,['num_1'],,,,,,0,6,6,6,,,,,,,,,['num_1'],7,0.0624077947577,1,['num_1'],0,[3.5473099487135187],,2018_Jun_02_1215,59.9573472748,sequenceLearningTask,001,095,
min1.png,min2.png,min3.png,min4.png,allBlank.png,,,,['num_4'],,,,,,0,6,6,6,,,,,,,,,['num_4'],7,0.0560443077702,1,['num_4'],0,[2.6717858461197466],,2018_Jun_02_1215,59.9573472748,sequenceLearningTask,001,095,
min1.png,min2.png,min3.png,min4.png,allBlank.png,,,,['num_0'],,,,,,0,6,6,6,,,,,,,,,['num_0'],7,0.0546547692502,1,['num_0'],0,[1.1889017436187714],,2018_Jun_02_1215,59.9573472748,sequenceLearningTask,001,095,
min1.png,min2.png,min3.png,min4.png,allBlank.png,,,,['num_0'],,,,,,0,6,6,6,,,,,,,,,['num_0'],7,0.0609316922491,1,['num_0'],0,[0.5169210255844519],,2018_Jun_02_1215,59.9573472748,sequenceLearningTask,001,095,
min1.png,min2.png,min3.png,min4.png,allBlank.png,,,,['num_4'],,,,,,0,6,6,6,,,,,,,,,['num_4'],7,0.0501973333303,1,['num_4'],0,[1.677285333396867],,2018_Jun_02_1215,59.9573472748,sequenceLearningTask,001,095,
min1.png,min2.png,min3.png,min4.png,allBlank.png,,,,['num_1'],,,,,,0,6,6,6,,,,,,,,,['num_1'],7,0.0548205127707,1,['num_1'],0,[1.0729435896500945],,2018_Jun_02_1215,59.9573472748,sequenceLearningTask,001,095,
min1.png,min2.png,min3.png,min4.png,allBlank.png,,,,['num_0'],,,,,,0,6,6,6,,,,,,,,,['num_0'],7,0.0490670769941,1,['num_0'],0,[1.4448077948763967],,2018_Jun_02_1215,59.9573472748,sequenceLearningTask,001,095,
min1.png,min2.png,min3.png,min4.png,allBlank.png,,,,['num_7'],,,,,,0,7,7,7,,,,,,,,,['num_7'],8,0.0544414359611,1,['num_7'],0,[1.1050736410543323],,2018_Jun_02_1215,59.9573472748,sequenceLearningTask,001,095,
min1.png,min2.png,min3.png,min4.png,allBlank.png,,,,['num_1'],,,,,,0,7,7,7,,,,,,,,,['num_1'],8,0.0609132307582,1,['num_1'],0,[1.1011659486684948],,2018_Jun_02_1215,59.9573472748,sequenceLearningTask,001,095,
min1.png,min2.png,min3.png,min4.png,allBlank.png,,,,['num_4'],,,,,,0,7,7,7,,,,,,,,,['num_4'],8,0.0577952819876,1,['num_4'],0,[2.236868512816727],,2018_Jun_02_1215,59.9573472748,sequenceLearningTask,001,095,
min1.png,min2.png,min3.png,min4.png,allBlank.png,,,,['num_0'],,,,,,0,7,7,7,,,,,,,,,['num_0'],8,0.0507700511953,1,['num_0'],0,[1.409718153765425],,2018_Jun_02_1215,59.9573472748,sequenceLearningTask,001,095,
min1.png,min2.png,min3.png,min4.png,allBlank.png,,,,['num_0'],,,,,,0,7,7,7,,,,,,,,,['num_0'],8,0.0592065640958,1,['num_0'],0,[0.6507934358669445],,2018_Jun_02_1215,59.9573472748,sequenceLearningTask,001,095,
min1.png,min2.png,min3.png,min4.png,allBlank.png,,,,['num_4'],,,,,,0,7,7,7,,,,,,,,,['num_4'],8,0.049576205085,0,"['num_7', 'num_4']",0,"[1.2157115896698087, 1.8517829743213952]",,2018_Jun_02_1215,59.9573472748,sequenceLearningTask,001,095,
min1.png,min2.png,min3.png,min4.png,allBlank.png,,,,['num_1'],,,,,,0,7,7,7,,,,,,,,,['num_1'],8,0.0550715897698,1,['num_1'],0,[1.1566190768498927],,2018_Jun_02_1215,59.9573472748,sequenceLearningTask,001,095,
min1.png,min2.png,min3.png,min4.png,allBlank.png,,,,['num_0'],,,,,,0,7,7,7,,,,,,,,,['num_0'],8,0.0508529230719,1,['num_0'],0,[0.7616254359018058],,2018_Jun_02_1215,59.9573472748,sequenceLearningTask,001,095,
min1.png,min2.png,min3.png,min4.png,allBlank.png,,,,['num_7'],,,,,,0,8,8,8,,,,,,,,,['num_7'],9,0.0504131282214,1,['num_7'],0,[1.0265214359387755],,2018_Jun_02_1215,59.9573472748,sequenceLearningTask,001,095,
min1.png,min2.png,min3.png,min4.png,allBlank.png,,,,['num_1'],,,,,,0,8,8,8,,,,,,,,,['num_1'],9,0.0600057436386,1,['num_1'],0,[1.4844582565128803],,2018_Jun_02_1215,59.9573472748,sequenceLearningTask,001,095,
min1.png,min2.png,min3.png,min4.png,allBlank.png,,,,['num_4'],,,,,,0,8,8,8,,,,,,,,,['num_4'],9,0.0555499487091,1,['num_4'],0,[2.1042769229970872],,2018_Jun_02_1215,59.9573472748,sequenceLearningTask,001,095,
min1.png,min2.png,min3.png,min4.png,allBlank.png,,,,['num_0'],,,,,,0,8,8,8,,,,,,,,,['num_0'],9,0.0597628718242,1,['num_0'],0,[1.4676049230620265],,2018_Jun_02_1215,59.9573472748,sequenceLearningTask,001,095,
min1.png,min2.png,min3.png,min4.png,allBlank.png,,,,['num_0'],,,,,,0,8,8,8,,,,,,,,,['num_0'],9,0.0511327179847,1,['num_0'],0,[1.0109686153009534],,2018_Jun_02_1215,59.9573472748,sequenceLearningTask,001,095,
min1.png,min2.png,min3.png,min4.png,allBlank.png,,,,['num_4'],,,,,,0,8,8,8,,,,,,,,,['num_4'],9,0.0526071793865,1,['num_4'],0,[3.2247474872274324],,2018_Jun_02_1215,59.9573472748,sequenceLearningTask,001,095,
min1.png,min2.png,min3.png,min4.png,allBlank.png,,,,['num_1'],,,,,,0,8,8,8,,,,,,,,,['num_1'],9,0.0578436922515,1,['num_1'],0,[2.502683897386305],,2018_Jun_02_1215,59.9573472748,sequenceLearningTask,001,095,
min1.png,min2.png,min3.png,min4.png,allBlank.png,,,,['num_0'],,,,,,0,8,8,8,,,,,,,,,['num_0'],9,0.0515753845684,1,['num_0'],0,[1.5758535384666175],,2018_Jun_02_1215,59.9573472748,sequenceLearningTask,001,095,
min1.png,min2.png,min3.png,min4.png,allBlank.png,,,,['num_7'],,,,,,0,9,9,9,,,,,,,,,['num_7'],10,0.0500004102942,1,['num_7'],0,[0.6760434871539474],,2018_Jun_02_1215,59.9573472748,sequenceLearningTask,001,095,
min1.png,min2.png,min3.png,min4.png,allBlank.png,,,,['num_1'],,,,,,0,9,9,9,,,,,,,,,['num_1'],10,0.0530346666928,1,['num_1'],0,[1.3580020512454212],,2018_Jun_02_1215,59.9573472748,sequenceLearningTask,001,095,
min1.png,min2.png,min3.png,min4.png,allBlank.png,,,,['num_4'],,,,,,0,9,9,9,,,,,,,,,['num_4'],10,0.0478654358303,1,['num_4'],0,[1.3639454358490184],,2018_Jun_02_1215,59.9573472748,sequenceLearningTask,001,095,
min1.png,min2.png,min3.png,min4.png,allBlank.png,,,,['num_0'],,,,,,0,9,9,9,,,,,,,,,['num_0'],10,0.0549005129142,1,['num_0'],0,[0.9558330256259069],,2018_Jun_02_1215,59.9573472748,sequenceLearningTask,001,095,
min1.png,min2.png,min3.png,min4.png,allBlank.png,,,,['num_0'],,,,,,0,9,9,9,,,,,,,,,['num_0'],10,0.0527585640084,1,['num_0'],0,[0.758150564157404],,2018_Jun_02_1215,59.9573472748,sequenceLearningTask,001,095,
min1.png,min2.png,min3.png,min4.png,allBlank.png,,,,['num_4'],,,,,,0,9,9,9,,,,,,,,,['num_4'],10,0.0548771282192,1,['num_4'],0,[1.52367015380878],,2018_Jun_02_1215,59.9573472748,sequenceLearningTask,001,095,
min1.png,min2.png,min3.png,min4.png,allBlank.png,,,,['num_1'],,,,,,0,9,9,9,,,,,,,,,['num_1'],10,0.0517538461136,1,['num_1'],0,[0.9428492307197303],,2018_Jun_02_1215,59.9573472748,sequenceLearningTask,001,095,
min1.png,min2.png,min3.png,min4.png,allBlank.png,,,,['num_0'],,,,,,0,9,9,9,,,,,,,,,['num_0'],10,0.060998974368,1,['num_0'],0,[0.832345025613904],,2018_Jun_02_1215,59.9573472748,sequenceLearningTask,001,095,
min1.png,min2.png,min3.png,min4.png,allBlank.png,,,,,,,,,,0,9,9,9,,,,,0,-1,-1,0,,,,,,,,,2018_Jun_02_1215,59.9573472748,sequenceLearningTask,001,095,
