pawPatrol1,pawPatrol2,pawPatrol3,pawPatrol4,blank,randomPaw,correctKeyPress,allowableKey,correctKey,correctKeyPressNum,trials.thisRepN,trials.thisTrialN,trials.thisN,trials.thisIndex,trials_3.thisRepN,trials_3.thisTrialN,trials_3.thisN,trials_3.thisIndex,trials_2.thisRepN,trials_2.thisTrialN,trials_2.thisN,trials_2.thisIndex,trials_questions.thisRepN,trials_questions.thisTrialN,trials_questions.thisN,trials_questions.thisIndex,trials_test.thisRepN,trials_test.thisTrialN,trials_test.thisN,trials_test.thisIndex,trials_recogtest.thisRepN,trials_recogtest.thisTrialN,trials_recogtest.thisN,trials_recogtest.thisIndex,correctKey,repetitionNumber,stimulusPresent.t,trialCorrect,key_resp_9.keys,key_resp_9.corr,key_resp_9.rt,keyRespCorrect,questionsResponses,AnswerFinished.keys,AnswerFinished.rt,RecordAnswer.keys,RecordAnswer.rt,recallResponse,recallResponseTime,date,frameRate,expName,session,participant,
min1.png,min2.png,min3.png,min4.png,allBlank.png,,,,['num_7'],,,,,,0,0,0,0,,,,,,,,,,,,,,,,,['num_7'],1,0.0564942895435,0,"['num_7', 'num_7']",0,"[0.0002986663021147251, 0.3390100442338735]",,,,,,,,,2018_May_12_1415,59.8564183962,sequenceLearningTask,001,096,
min1.png,min2.png,min3.png,min4.png,allBlank.png,,,,['num_1'],,,,,,0,0,0,0,,,,,,,,,,,,,,,,,['num_1'],1,0.0584881331306,0,"['num_4', 'num_1']",0,"[0.40255335066467524, 1.469272447982803]",,,,,,,,,2018_May_12_1415,59.8564183962,sequenceLearningTask,001,096,
min1.png,min2.png,min3.png,min4.png,allBlank.png,,,,['num_4'],,,,,,0,0,0,0,,,,,,,,,,,,,,,,,['num_4'],1,0.0524233200122,1,['num_4'],0,[1.1425893630366772],,,,,,,,,2018_May_12_1415,59.8564183962,sequenceLearningTask,001,096,
min1.png,min2.png,min3.png,min4.png,allBlank.png,,,,['num_0'],,,,,,0,0,0,0,,,,,,,,,,,,,,,,,['num_0'],1,0.0552384960465,1,['num_0'],0,[0.690349099226296],,,,,,,,,2018_May_12_1415,59.8564183962,sequenceLearningTask,001,096,
min1.png,min2.png,min3.png,min4.png,allBlank.png,,,,['num_0'],,,,,,0,0,0,0,,,,,,,,,,,,,,,,,['num_0'],1,0.0705648362637,0,"['num_7', 'num_1', 'num_0']",0,"[0.3737271297723055, 0.7564503510948271, 1.1393233155831695]",,,,,,,,,2018_May_12_1415,59.8564183962,sequenceLearningTask,001,096,
min1.png,min2.png,min3.png,min4.png,allBlank.png,,,,['num_4'],,,,,,0,0,0,0,,,,,,,,,,,,,,,,,['num_4'],1,0.0570046477951,1,['num_4'],0,[1.2873485693708062],,,,,,,,,2018_May_12_1415,59.8564183962,sequenceLearningTask,001,096,
min1.png,min2.png,min3.png,min4.png,allBlank.png,,,,['num_1'],,,,,,0,0,0,0,,,,,,,,,,,,,,,,,['num_1'],1,0.0529574733227,1,['num_1'],0,[0.9239057349041104],,,,,,,,,2018_May_12_1415,59.8564183962,sequenceLearningTask,001,096,
min1.png,min2.png,min3.png,min4.png,allBlank.png,,,,['num_0'],,,,,,0,0,0,0,,,,,,,,,,,,,,,,,['num_0'],1,0.0458087639417,1,['num_0'],0,[0.6657776420470327],,,,,,,,,2018_May_12_1415,59.8564183962,sequenceLearningTask,001,096,
min1.png,min2.png,min3.png,min4.png,allBlank.png,,,,['num_7'],,,,,,0,1,1,1,,,,,,,,,,,,,,,,,['num_7'],2,0.0526300889906,1,['num_7'],0,[1.0378141074907035],,,,,,,,,2018_May_12_1415,59.8564183962,sequenceLearningTask,001,096,
min1.png,min2.png,min3.png,min4.png,allBlank.png,,,,['num_1'],,,,,,0,1,1,1,,,,,,,,,,,,,,,,,['num_1'],2,0.0515256801154,1,['num_1'],0,[1.3270178539678454],,,,,,,,,2018_May_12_1415,59.8564183962,sequenceLearningTask,001,096,
min1.png,min2.png,min3.png,min4.png,allBlank.png,,,,['num_4'],,,,,,0,1,1,1,,,,,,,,,,,,,,,,,['num_4'],2,0.0538038313389,0,"['num_7', 'num_4']",0,"[2.6246970773208886, 3.675256604794413]",,,,,,,,,2018_May_12_1415,59.8564183962,sequenceLearningTask,001,096,
min1.png,min2.png,min3.png,min4.png,allBlank.png,,,,['num_0'],,,,,,0,1,1,1,,,,,,,,,,,,,,,,,['num_0'],2,0.0545952150133,1,['num_0'],0,[1.6062995614483953],,,,,,,,,2018_May_12_1415,59.8564183962,sequenceLearningTask,001,096,
min1.png,min2.png,min3.png,min4.png,allBlank.png,,,,['num_0'],,,,,,0,1,1,1,,,,,,,,,,,,,,,,,['num_0'],2,0.0507429118734,1,['num_0'],0,[1.1933367878664285],,,,,,,,,2018_May_12_1415,59.8564183962,sequenceLearningTask,001,096,
min1.png,min2.png,min3.png,min4.png,allBlank.png,,,,['num_4'],,,,,,0,1,1,1,,,,,,,,,,,,,,,,,['num_4'],2,0.0562846485991,1,['num_4'],0,[3.355060486122966],,,,,,,,,2018_May_12_1415,59.8564183962,sequenceLearningTask,001,096,
min1.png,min2.png,min3.png,min4.png,allBlank.png,,,,['num_1'],,,,,,0,1,1,1,,,,,,,,,,,,,,,,,['num_1'],2,0.0518785002641,1,['num_1'],0,[3.7778214015997946],,,,,,,,,2018_May_12_1415,59.8564183962,sequenceLearningTask,001,096,
min1.png,min2.png,min3.png,min4.png,allBlank.png,,,,['num_0'],,,,,,0,1,1,1,,,,,,,,,,,,,,,,,['num_0'],2,0.0593816703185,1,['num_0'],0,[0.8016519364900887],,,,,,,,,2018_May_12_1415,59.8564183962,sequenceLearningTask,001,096,
min1.png,min2.png,min3.png,min4.png,allBlank.png,,,,['num_7'],,,,,,0,2,2,2,,,,,,,,,,,,,,,,,['num_7'],3,0.0533681395464,1,['num_7'],0,[0.8721650803927332],,,,,,,,,2018_May_12_1415,59.8564183962,sequenceLearningTask,001,096,
min1.png,min2.png,min3.png,min4.png,allBlank.png,,,,['num_1'],,,,,,0,2,2,2,,,,,,,,,,,,,,,,,['num_1'],3,0.0538423953112,0,"['num_7', 'num_4', 'num_1', 'num_1']",0,"[0.0002761022187769413, 0.9261966035701334, 1.9421723787672818]",,,,,,,,,2018_May_12_1415,59.8564183962,sequenceLearningTask,001,096,
min1.png,min2.png,min3.png,min4.png,allBlank.png,,,,['num_4'],,,,,,0,2,2,2,,,,,,,,,,,,,,,,,['num_4'],3,0.0526366531849,0,"['num_1', 'num_1', 'num_1', 'num_1', 'num_1', 'num_4']",0,"[0.00031220470555126667, 0.023326330352574587, 0.2916886666789651, 0.5420731790363789, 0.7093029220122844]",,,,,,,,,2018_May_12_1415,59.8564183962,sequenceLearningTask,001,096,
min1.png,min2.png,min3.png,min4.png,allBlank.png,,,,['num_0'],,,,,,0,2,2,2,,,,,,,,,,,,,,,,,['num_0'],3,0.0503388098441,0,"['num_4', 'num_4', 'num_1', 'num_0', 'num_0']",0,"[0.0003101534675806761, 0.11073053046129644, 0.9293559845536947, 1.1119067340623587]",,,,,,,,,2018_May_12_1415,59.8564183962,sequenceLearningTask,001,096,
min1.png,min2.png,min3.png,min4.png,allBlank.png,,,,['num_0'],,,,,,0,2,2,2,,,,,,,,,,,,,,,,,['num_0'],3,0.0525049609132,1,['num_0'],0,[0.6934933003503829],,,,,,,,,2018_May_12_1415,59.8564183962,sequenceLearningTask,001,096,
min1.png,min2.png,min3.png,min4.png,allBlank.png,,,,['num_4'],,,,,,0,2,2,2,,,,,,,,,,,,,,,,,['num_4'],3,0.0557148032822,1,['num_4'],0,[0.9058093468192965],,,,,,,,,2018_May_12_1415,59.8564183962,sequenceLearningTask,001,096,
min1.png,min2.png,min3.png,min4.png,allBlank.png,,,,['num_1'],,,,,,0,2,2,2,,,,,,,,,,,,,,,,,['num_1'],3,0.0548069067299,0,"['num_0', 'num_1']",0,"[0.5730298587586731, 1.090708811301738]",,,,,,,,,2018_May_12_1415,59.8564183962,sequenceLearningTask,001,096,
min1.png,min2.png,min3.png,min4.png,allBlank.png,,,,['num_0'],,,,,,0,2,2,2,,,,,,,,,,,,,,,,,['num_0'],3,0.0600064902101,1,['num_0'],0,[0.6847991570830345],,,,,,,,,2018_May_12_1415,59.8564183962,sequenceLearningTask,001,096,
min1.png,min2.png,min3.png,min4.png,allBlank.png,,,,['num_7'],,,,,,0,3,3,3,,,,,,,,,,,,,,,,,['num_7'],4,0.054049984552,1,['num_7'],0,[0.9902494479902089],,,,,,,,,2018_May_12_1415,59.8564183962,sequenceLearningTask,001,096,
min1.png,min2.png,min3.png,min4.png,allBlank.png,,,,['num_1'],,,,,,0,3,3,3,,,,,,,,,,,,,,,,,['num_1'],4,0.0560647514649,0,"['num_4', 'num_1']",0,"[0.9553588239941746, 1.8375759946648031]",,,,,,,,,2018_May_12_1415,59.8564183962,sequenceLearningTask,001,096,
min1.png,min2.png,min3.png,min4.png,allBlank.png,,,,['num_4'],,,,,,0,3,3,3,,,,,,,,,,,,,,,,,['num_4'],4,0.0544676252175,1,['num_4'],0,[1.0411453852429986],,,,,,,,,2018_May_12_1415,59.8564183962,sequenceLearningTask,001,096,
min1.png,min2.png,min3.png,min4.png,allBlank.png,,,,['num_0'],,,,,,0,3,3,3,,,,,,,,,,,,,,,,,['num_0'],4,0.05322824209,1,['num_0'],0,[1.2077486673370004],,,,,,,,,2018_May_12_1415,59.8564183962,sequenceLearningTask,001,096,
min1.png,min2.png,min3.png,min4.png,allBlank.png,,,,['num_0'],,,,,,0,3,3,3,,,,,,,,,,,,,,,,,['num_0'],4,0.0541230104864,1,['num_0'],0,[1.0749078050721437],,,,,,,,,2018_May_12_1415,59.8564183962,sequenceLearningTask,001,096,
min1.png,min2.png,min3.png,min4.png,allBlank.png,,,,['num_4'],,,,,,0,3,3,3,,,,,,,,,,,,,,,,,['num_4'],4,0.0542694716714,1,['num_4'],0,[0.9391110492870212],,,,,,,,,2018_May_12_1415,59.8564183962,sequenceLearningTask,001,096,
min1.png,min2.png,min3.png,min4.png,allBlank.png,,,,['num_1'],,,,,,0,3,3,3,,,,,,,,,,,,,,,,,['num_1'],4,0.0500705025624,0,"['num_1', 'num_0', 'num_0', 'num_0', 'num_1']",0,"[0.844575370894745, 1.3781258936505765, 1.7941557406447828, 4.061010386561975]",,,,,,,,,2018_May_12_1415,59.8564183962,sequenceLearningTask,001,096,
min1.png,min2.png,min3.png,min4.png,allBlank.png,,,,['num_0'],,,,,,0,3,3,3,,,,,,,,,,,,,,,,,['num_0'],4,0.0518362440635,1,['num_0'],0,[0.9421567891258746],,,,,,,,,2018_May_12_1415,59.8564183962,sequenceLearningTask,001,096,
min1.png,min2.png,min3.png,min4.png,allBlank.png,,,,['num_7'],,,,,,0,4,4,4,,,,,,,,,,,,,,,,,['num_7'],5,0.0557923417073,0,"['num_4', 'num_7']",0,"[0.23761160485446453, 0.8032708060927689]",,,,,,,,,2018_May_12_1415,59.8564183962,sequenceLearningTask,001,096,
min1.png,min2.png,min3.png,min4.png,allBlank.png,,,,['num_1'],,,,,,0,4,4,4,,,,,,,,,,,,,,,,,['num_1'],5,0.0625443332829,1,['num_1'],0,[3.3136726394295692],,,,,,,,,2018_May_12_1415,59.8564183962,sequenceLearningTask,001,096,
min1.png,min2.png,min3.png,min4.png,allBlank.png,,,,['num_4'],,,,,,0,4,4,4,,,,,,,,,,,,,,,,,['num_4'],5,0.0512171678711,0,"['num_7', 'num_4']",0,"[1.660848007304594, 2.259625526610762]",,,,,,,,,2018_May_12_1415,59.8564183962,sequenceLearningTask,001,096,
min1.png,min2.png,min3.png,min4.png,allBlank.png,,,,['num_0'],,,,,,0,4,4,4,,,,,,,,,,,,,,,,,['num_0'],5,0.0644672026392,0,"['num_4', 'num_4', 'num_4', 'num_1', 'num_0']",0,"[0.00029538432136178017, 0.06359910126775503, 0.34676265018060803, 0.6462991021107882, 0.8967828962486237]",,,,,,,,,2018_May_12_1415,59.8564183962,sequenceLearningTask,001,096,
min1.png,min2.png,min3.png,min4.png,allBlank.png,,,,['num_0'],,,,,,0,4,4,4,,,,,,,,,,,,,,,,,['num_0'],5,0.0541344976518,0,"['num_1', 'num_1', 'num_0']",0,"[0.0003171276766806841, 0.10705422726459801, 0.6068989452905953]",,,,,,,,,2018_May_12_1415,59.8564183962,sequenceLearningTask,001,096,
min1.png,min2.png,min3.png,min4.png,allBlank.png,,,,['num_4'],,,,,,0,4,4,4,,,,,,,,,,,,,,,,,['num_4'],5,0.0518879361916,0,"['num_4', 'num_1', 'num_4']",0,"[0.8107953097205609, 1.2771516588982195]",,,,,,,,,2018_May_12_1415,59.8564183962,sequenceLearningTask,001,096,
min1.png,min2.png,min3.png,min4.png,allBlank.png,,,,['num_1'],,,,,,0,4,4,4,,,,,,,,,,,,,,,,,['num_1'],5,0.0546337789856,0,"['num_4', 'num_1']",0,"[0.0002986663021147251, 0.6558445261325687]",,,,,,,,,2018_May_12_1415,59.8564183962,sequenceLearningTask,001,096,
min1.png,min2.png,min3.png,min4.png,allBlank.png,,,,['num_0'],,,,,,0,4,4,4,,,,,,,,,,,,,,,,,['num_0'],5,0.04791296646,0,"['num_0', 'num_0']",0,"[0.00031425594352185726, 0.6293961484916508]",,,,,,,,,2018_May_12_1415,59.8564183962,sequenceLearningTask,001,096,
min1.png,min2.png,min3.png,min4.png,allBlank.png,,,,['num_7'],,,,,,0,5,5,5,,,,,,,,,,,,,,,,,['num_7'],6,0.0517993208487,1,['num_7'],0,[0.9431775058619678],,,,,,,,,2018_May_12_1415,59.8564183962,sequenceLearningTask,001,096,
min1.png,min2.png,min3.png,min4.png,allBlank.png,,,,['num_1'],,,,,,0,5,5,5,,,,,,,,,,,,,,,,,['num_1'],6,0.0541504975408,1,['num_1'],0,[0.6741082984954119],,,,,,,,,2018_May_12_1415,59.8564183962,sequenceLearningTask,001,096,
min1.png,min2.png,min3.png,min4.png,allBlank.png,,,,['num_4'],,,,,,0,5,5,5,,,,,,,,,,,,,,,,,['num_4'],6,0.0523244482465,0,"['num_7', 'num_4', 'num_7', 'num_4', 'num_4']",0,"[0.8262873932253569, 1.5938343461602926, 2.325731291435659]",,,,,,,,,2018_May_12_1415,59.8564183962,sequenceLearningTask,001,096,
min1.png,min2.png,min3.png,min4.png,allBlank.png,,,,['num_0'],,,,,,0,5,5,5,,,,,,,,,,,,,,,,,['num_0'],6,0.0582050564699,0,"['num_4', 'num_4', 'num_0']",0,"[0.0003602046053856611, 1.7018674439750612, 2.652431607246399]",,,,,,,,,2018_May_12_1415,59.8564183962,sequenceLearningTask,001,096,
min1.png,min2.png,min3.png,min4.png,allBlank.png,,,,['num_0'],,,,,,0,5,5,5,,,,,,,,,,,,,,,,,['num_0'],6,0.0503831175156,1,['num_0'],0,[1.0441332790069282],,,,,,,,,2018_May_12_1415,59.8564183962,sequenceLearningTask,001,096,
min1.png,min2.png,min3.png,min4.png,allBlank.png,,,,['num_4'],,,,,,0,5,5,5,,,,,,,,,,,,,,,,,['num_4'],6,0.0581037234515,0,"['num_0', 'num_7', 'num_4']",0,"[0.00032410211861133575, 0.7873783130198717, 1.9701103956904262]",,,,,,,,,2018_May_12_1415,59.8564183962,sequenceLearningTask,001,096,
min1.png,min2.png,min3.png,min4.png,allBlank.png,,,,['num_1'],,,,,,0,5,5,5,,,,,,,,,,,,,,,,,['num_1'],6,0.0515117314644,0,"['num_7', 'num_4', 'num_4', 'num_1']",0,"[1.6602843154687434, 2.1759288092143834, 5.158511804882437, 5.426013014046475]",,,,,,,,,2018_May_12_1415,59.8564183962,sequenceLearningTask,001,096,
min1.png,min2.png,min3.png,min4.png,allBlank.png,,,,['num_0'],,,,,,0,5,5,5,,,,,,,,,,,,,,,,,['num_0'],6,0.0574432113208,0,"['num_0', 'num_4', 'num_1', 'num_0']",0,"[0.00126276770606637, 0.584718459751457, 0.984601454809308, 1.3848565518856049]",,,,,,,,,2018_May_12_1415,59.8564183962,sequenceLearningTask,001,096,
min1.png,min2.png,min3.png,min4.png,allBlank.png,,,,['num_7'],,,,,,0,6,6,6,,,,,,,,,,,,,,,,,['num_7'],7,0.0635330500081,1,['num_7'],0,[0.5623344874475151],,,,,,,,,2018_May_12_1415,59.8564183962,sequenceLearningTask,001,096,
min1.png,min2.png,min3.png,min4.png,allBlank.png,,,,['num_1'],,,,,,0,6,6,6,,,,,,,,,,,,,,,,,['num_1'],7,0.0580647489987,0,"['num_4', 'num_1']",0,"[0.00027076900005340576, 0.20249821222387254]",,,,,,,,,2018_May_12_1415,59.8564183962,sequenceLearningTask,001,096,
min1.png,min2.png,min3.png,min4.png,allBlank.png,,,,['num_4'],,,,,,0,6,6,6,,,,,,,,,,,,,,,,,['num_4'],7,0.054132446181,1,['num_4'],0,[2.60602263873443],,,,,,,,,2018_May_12_1415,59.8564183962,sequenceLearningTask,001,096,
min1.png,min2.png,min3.png,min4.png,allBlank.png,,,,['num_0'],,,,,,0,6,6,6,,,,,,,,,,,,,,,,,['num_0'],7,0.0520266026724,1,['num_0'],0,[1.559246491175145],,,,,,,,,2018_May_12_1415,59.8564183962,sequenceLearningTask,001,096,
min1.png,min2.png,min3.png,min4.png,allBlank.png,,,,['num_0'],,,,,,0,6,6,6,,,,,,,,,,,,,,,,,['num_0'],7,0.0528471143916,1,['num_0'],0,[0.8745474363677204],,,,,,,,,2018_May_12_1415,59.8564183962,sequenceLearningTask,001,096,
min1.png,min2.png,min3.png,min4.png,allBlank.png,,,,['num_4'],,,,,,0,6,6,6,,,,,,,,,,,,,,,,,['num_4'],7,0.0546313172672,1,['num_4'],0,[1.2896353360265493],,,,,,,,,2018_May_12_1415,59.8564183962,sequenceLearningTask,001,096,
min1.png,min2.png,min3.png,min4.png,allBlank.png,,,,['num_1'],,,,,,0,6,6,6,,,,,,,,,,,,,,,,,['num_1'],7,0.0646395101212,1,['num_1'],0,[1.230124844936654],,,,,,,,,2018_May_12_1415,59.8564183962,sequenceLearningTask,001,096,
min1.png,min2.png,min3.png,min4.png,allBlank.png,,,,['num_0'],,,,,,0,6,6,6,,,,,,,,,,,,,,,,,['num_0'],7,0.0592893629801,1,['num_0'],0,[0.7519182539545],,,,,,,,,2018_May_12_1415,59.8564183962,sequenceLearningTask,001,096,
min1.png,min2.png,min3.png,min4.png,allBlank.png,,,,['num_7'],,,,,,0,7,7,7,,,,,,,,,,,,,,,,,['num_7'],8,0.0497882463969,1,['num_7'],0,[1.1434390030335635],,,,,,,,,2018_May_12_1415,59.8564183962,sequenceLearningTask,001,096,
min1.png,min2.png,min3.png,min4.png,allBlank.png,,,,['num_1'],,,,,,0,7,7,7,,,,,,,,,,,,,,,,,['num_1'],8,0.0528360374738,1,['num_1'],0,[2.7589943478815258],,,,,,,,,2018_May_12_1415,59.8564183962,sequenceLearningTask,001,096,
min1.png,min2.png,min3.png,min4.png,allBlank.png,,,,['num_4'],,,,,,0,7,7,7,,,,,,,,,,,,,,,,,['num_4'],8,0.0588918249123,1,['num_4'],0,[3.2686925923917443],,,,,,,,,2018_May_12_1415,59.8564183962,sequenceLearningTask,001,096,
min1.png,min2.png,min3.png,min4.png,allBlank.png,,,,['num_0'],,,,,,0,7,7,7,,,,,,,,,,,,,,,,,['num_0'],8,0.0576245444827,1,['num_0'],0,[1.3549501274246722],,,,,,,,,2018_May_12_1415,59.8564183962,sequenceLearningTask,001,096,
min1.png,min2.png,min3.png,min4.png,allBlank.png,,,,['num_0'],,,,,,0,7,7,7,,,,,,,,,,,,,,,,,['num_0'],8,0.0525287559722,1,['num_0'],0,[0.6588135482743382],,,,,,,,,2018_May_12_1415,59.8564183962,sequenceLearningTask,001,096,
min1.png,min2.png,min3.png,min4.png,allBlank.png,,,,['num_4'],,,,,,0,7,7,7,,,,,,,,,,,,,,,,,['num_4'],8,0.0535363443196,0,"['num_7', 'num_7', 'num_7', 'num_4']",0,"[1.2256124401465058, 2.457847641548142, 3.740438883425668, 15.556854289025068]",,,,,,,,,2018_May_12_1415,59.8564183962,sequenceLearningTask,001,096,
min1.png,min2.png,min3.png,min4.png,allBlank.png,,,,['num_1'],,,,,,0,7,7,7,,,,,,,,,,,,,,,,,['num_1'],8,0.0548315222841,1,['num_1'],0,[2.755741018569097],,,,,,,,,2018_May_12_1415,59.8564183962,sequenceLearningTask,001,096,
min1.png,min2.png,min3.png,min4.png,allBlank.png,,,,['num_0'],,,,,,0,7,7,7,,,,,,,,,,,,,,,,,['num_0'],8,0.0602489516605,1,['num_0'],0,[1.1832436718977988],,,,,,,,,2018_May_12_1415,59.8564183962,sequenceLearningTask,001,096,
min1.png,min2.png,min3.png,min4.png,allBlank.png,,,,['num_7'],,,,,,0,8,8,8,,,,,,,,,,,,,,,,,['num_7'],9,0.0555991108995,1,['num_7'],0,[1.4198682012502104],,,,,,,,,2018_May_12_1415,59.8564183962,sequenceLearningTask,001,096,
min1.png,min2.png,min3.png,min4.png,allBlank.png,,,,['num_1'],,,,,,0,8,8,8,,,,,,,,,,,,,,,,,['num_1'],9,0.0537849594839,1,['num_1'],0,[1.7243625957053155],,,,,,,,,2018_May_12_1415,59.8564183962,sequenceLearningTask,001,096,
min1.png,min2.png,min3.png,min4.png,allBlank.png,,,,['num_4'],,,,,,0,8,8,8,,,,,,,,,,,,,,,,,['num_4'],9,0.0538300874177,0,"['num_7', 'num_4']",0,"[1.8748038462363183, 3.5899049148429185]",,,,,,,,,2018_May_12_1415,59.8564183962,sequenceLearningTask,001,096,
min1.png,min2.png,min3.png,min4.png,allBlank.png,,,,['num_0'],,,,,,0,8,8,8,,,,,,,,,,,,,,,,,['num_0'],9,0.0508483478334,0,"['num_1', 'num_0']",0,"[4.210373074281961, 6.477208438329399]",,,,,,,,,2018_May_12_1415,59.8564183962,sequenceLearningTask,001,096,
min1.png,min2.png,min3.png,min4.png,allBlank.png,,,,['num_0'],,,,,,0,8,8,8,,,,,,,,,,,,,,,,,['num_0'],9,0.0555338803679,1,['num_0'],0,[1.4550111321732402],,,,,,,,,2018_May_12_1415,59.8564183962,sequenceLearningTask,001,096,
min1.png,min2.png,min3.png,min4.png,allBlank.png,,,,['num_4'],,,,,,0,8,8,8,,,,,,,,,,,,,,,,,['num_4'],9,0.0547892660834,1,['num_4'],0,[3.539944361196831],,,,,,,,,2018_May_12_1415,59.8564183962,sequenceLearningTask,001,096,
min1.png,min2.png,min3.png,min4.png,allBlank.png,,,,['num_1'],,,,,,0,8,8,8,,,,,,,,,,,,,,,,,['num_1'],9,0.0601911053527,1,['num_1'],0,[1.3836253741756082],,,,,,,,,2018_May_12_1415,59.8564183962,sequenceLearningTask,001,096,
min1.png,min2.png,min3.png,min4.png,allBlank.png,,,,['num_0'],,,,,,0,8,8,8,,,,,,,,,,,,,,,,,['num_0'],9,0.0589336710982,1,['num_0'],0,[1.1674918965436518],,,,,,,,,2018_May_12_1415,59.8564183962,sequenceLearningTask,001,096,
min1.png,min2.png,min3.png,min4.png,allBlank.png,,,,['num_7'],,,,,,0,9,9,9,,,,,,,,,,,,,,,,,['num_7'],10,0.0612877195235,1,['num_7'],0,[1.530088373227045],,,,,,,,,2018_May_12_1415,59.8564183962,sequenceLearningTask,001,096,
min1.png,min2.png,min3.png,min4.png,allBlank.png,,,,['num_1'],,,,,,0,9,9,9,,,,,,,,,,,,,,,,,['num_1'],10,0.0507347066887,1,['num_1'],0,[1.2602294234093279],,,,,,,,,2018_May_12_1415,59.8564183962,sequenceLearningTask,001,096,
min1.png,min2.png,min3.png,min4.png,allBlank.png,,,,['num_4'],,,,,,0,9,9,9,,,,,,,,,,,,,,,,,['num_4'],10,0.053790703183,1,['num_4'],0,[0.7570066580083221],,,,,,,,,2018_May_12_1415,59.8564183962,sequenceLearningTask,001,096,
min1.png,min2.png,min3.png,min4.png,allBlank.png,,,,['num_0'],,,,,,0,9,9,9,,,,,,,,,,,,,,,,,['num_0'],10,0.0540549077559,1,['num_0'],0,[0.9246195799205452],,,,,,,,,2018_May_12_1415,59.8564183962,sequenceLearningTask,001,096,
min1.png,min2.png,min3.png,min4.png,allBlank.png,,,,['num_0'],,,,,,0,9,9,9,,,,,,,,,,,,,,,,,['num_0'],10,0.0512085524388,0,"['num_7', 'num_0']",0,"[0.1933495057746768, 1.6926034553907812]",,,,,,,,,2018_May_12_1415,59.8564183962,sequenceLearningTask,001,096,
min1.png,min2.png,min3.png,min4.png,allBlank.png,,,,['num_4'],,,,,,0,9,9,9,,,,,,,,,,,,,,,,,['num_4'],10,0.0505033226218,1,['num_4'],0,[1.9937579564284533],,,,,,,,,2018_May_12_1415,59.8564183962,sequenceLearningTask,001,096,
min1.png,min2.png,min3.png,min4.png,allBlank.png,,,,['num_1'],,,,,,0,9,9,9,,,,,,,,,,,,,,,,,['num_1'],10,0.0519929616712,0,"['num_4', 'num_1']",0,"[1.5084543486591429, 2.7087535893078893]",,,,,,,,,2018_May_12_1415,59.8564183962,sequenceLearningTask,001,096,
min1.png,min2.png,min3.png,min4.png,allBlank.png,,,,['num_0'],,,,,,0,9,9,9,,,,,,,,,,,,,,,,,['num_0'],10,0.0531744987238,1,['num_0'],0,[0.424505733884871],,,,,,,,,2018_May_12_1415,59.8564183962,sequenceLearningTask,001,096,
min1.png,min2.png,min3.png,min4.png,allBlank.png,,,,['num_7'],,,,,,0,0,0,0,,,,,,,,,,,,,,,,,['num_7'],1,0.0526875250507,0,"['num_0', 'num_7']",0,"[0.00029497407376766205, 1.8281007243786007]",,,,,,,,,2018_May_12_1415,59.8564183962,sequenceLearningTask,001,096,
min1.png,min2.png,min3.png,min4.png,allBlank.png,,,,['num_1'],,,,,,0,0,0,0,,,,,,,,,,,,,,,,,['num_1'],1,0.0561952129938,1,['num_1'],0,[1.686225206591189],,,,,,,,,2018_May_12_1415,59.8564183962,sequenceLearningTask,001,096,
min1.png,min2.png,min3.png,min4.png,allBlank.png,,,,['num_4'],,,,,,0,0,0,0,,,,,,,,,,,,,,,,,['num_4'],1,0.0523269099649,1,['num_4'],0,[1.6090211991686374],,,,,,,,,2018_May_12_1415,59.8564183962,sequenceLearningTask,001,096,
min1.png,min2.png,min3.png,min4.png,allBlank.png,,,,['num_0'],,,,,,0,0,0,0,,,,,,,,,,,,,,,,,['num_0'],1,0.0502518354915,1,['num_0'],0,[0.8789515334647149],,,,,,,,,2018_May_12_1415,59.8564183962,sequenceLearningTask,001,096,
min1.png,min2.png,min3.png,min4.png,allBlank.png,,,,['num_0'],,,,,,0,0,0,0,,,,,,,,,,,,,,,,,['num_0'],1,0.0550062912516,1,['num_0'],0,[1.106556176673621],,,,,,,,,2018_May_12_1415,59.8564183962,sequenceLearningTask,001,096,
min1.png,min2.png,min3.png,min4.png,allBlank.png,,,,['num_4'],,,,,,0,0,0,0,,,,,,,,,,,,,,,,,['num_4'],1,0.0607351048384,1,['num_4'],0,[1.0004635893274099],,,,,,,,,2018_May_12_1415,59.8564183962,sequenceLearningTask,001,096,
min1.png,min2.png,min3.png,min4.png,allBlank.png,,,,['num_1'],,,,,,0,0,0,0,,,,,,,,,,,,,,,,,['num_1'],1,0.0595281317364,1,['num_1'],0,[0.7013808805495501],,,,,,,,,2018_May_12_1415,59.8564183962,sequenceLearningTask,001,096,
min1.png,min2.png,min3.png,min4.png,allBlank.png,,,,['num_0'],,,,,,0,0,0,0,,,,,,,,,,,,,,,,,['num_0'],1,0.0542780871037,1,['num_0'],0,[0.8402127092704177],,,,,,,,,2018_May_12_1415,59.8564183962,sequenceLearningTask,001,096,
min1.png,min2.png,min3.png,min4.png,allBlank.png,,,,['num_7'],,,,,,0,1,1,1,,,,,,,,,,,,,,,,,['num_7'],2,0.0479876333848,1,['num_7'],0,[0.5624050514306873],,,,,,,,,2018_May_12_1415,59.8564183962,sequenceLearningTask,001,096,
min1.png,min2.png,min3.png,min4.png,allBlank.png,,,,['num_1'],,,,,,0,1,1,1,,,,,,,,,,,,,,,,,['num_1'],2,0.0527818836272,1,['num_1'],0,[0.5920066561084241],,,,,,,,,2018_May_12_1415,59.8564183962,sequenceLearningTask,001,096,
min1.png,min2.png,min3.png,min4.png,allBlank.png,,,,['num_4'],,,,,,0,1,1,1,,,,,,,,,,,,,,,,,['num_4'],2,0.051784141222,1,['num_4'],0,[0.8936423873528838],,,,,,,,,2018_May_12_1415,59.8564183962,sequenceLearningTask,001,096,
min1.png,min2.png,min3.png,min4.png,allBlank.png,,,,['num_0'],,,,,,0,1,1,1,,,,,,,,,,,,,,,,,['num_0'],2,0.0491617857479,1,['num_0'],0,[0.6452295649796724],,,,,,,,,2018_May_12_1415,59.8564183962,sequenceLearningTask,001,096,
min1.png,min2.png,min3.png,min4.png,allBlank.png,,,,['num_0'],,,,,,0,1,1,1,,,,,,,,,,,,,,,,,['num_0'],2,0.0508204502985,1,['num_0'],0,[0.8102939771488309],,,,,,,,,2018_May_12_1415,59.8564183962,sequenceLearningTask,001,096,
min1.png,min2.png,min3.png,min4.png,allBlank.png,,,,['num_4'],,,,,,0,1,1,1,,,,,,,,,,,,,,,,,['num_4'],2,0.0550440347288,0,"['num_7', 'num_7', 'num_7', 'num_7', 'num_4']",0,"[5.505438557360321, 8.13962649484165, 8.805263008922338, 9.521511563332751, 10.071555604226887]",,,,,,,,,2018_May_12_1415,59.8564183962,sequenceLearningTask,001,096,
min1.png,min2.png,min3.png,min4.png,allBlank.png,,,,['num_1'],,,,,,0,1,1,1,,,,,,,,,,,,,,,,,['num_1'],2,0.0498378872871,1,['num_1'],0,[1.1943435554858297],,,,,,,,,2018_May_12_1415,59.8564183962,sequenceLearningTask,001,096,
min1.png,min2.png,min3.png,min4.png,allBlank.png,,,,['num_0'],,,,,,0,1,1,1,,,,,,,,,,,,,,,,,['num_0'],2,0.0550645475741,1,['num_0'],0,[1.0894776335917413],,,,,,,,,2018_May_12_1415,59.8564183962,sequenceLearningTask,001,096,
min1.png,min2.png,min3.png,min4.png,allBlank.png,,,,['num_7'],,,,,,0,2,2,2,,,,,,,,,,,,,,,,,['num_7'],3,0.0637763317209,1,['num_7'],0,[0.7460236973129213],,,,,,,,,2018_May_12_1415,59.8564183962,sequenceLearningTask,001,096,
min1.png,min2.png,min3.png,min4.png,allBlank.png,,,,['num_1'],,,,,,0,2,2,2,,,,,,,,,,,,,,,,,['num_1'],3,0.058078287635,1,['num_1'],0,[1.2872886720579118],,,,,,,,,2018_May_12_1415,59.8564183962,sequenceLearningTask,001,096,
min1.png,min2.png,min3.png,min4.png,allBlank.png,,,,['num_4'],,,,,,0,2,2,2,,,,,,,,,,,,,,,,,['num_4'],3,0.0512438344304,1,['num_4'],0,[1.2257826966233552],,,,,,,,,2018_May_12_1415,59.8564183962,sequenceLearningTask,001,096,
min1.png,min2.png,min3.png,min4.png,allBlank.png,,,,['num_0'],,,,,,0,2,2,2,,,,,,,,,,,,,,,,,['num_0'],3,0.0562641359866,1,['num_0'],0,[0.8544641791377217],,,,,,,,,2018_May_12_1415,59.8564183962,sequenceLearningTask,001,096,
min1.png,min2.png,min3.png,min4.png,allBlank.png,,,,['num_0'],,,,,,0,2,2,2,,,,,,,,,,,,,,,,,['num_0'],3,0.0551396245137,1,['num_0'],0,[0.723231109790504],,,,,,,,,2018_May_12_1415,59.8564183962,sequenceLearningTask,001,096,
min1.png,min2.png,min3.png,min4.png,allBlank.png,,,,['num_4'],,,,,,0,2,2,2,,,,,,,,,,,,,,,,,['num_4'],3,0.0568737762515,1,['num_4'],0,[1.338404506444931],,,,,,,,,2018_May_12_1415,59.8564183962,sequenceLearningTask,001,096,
min1.png,min2.png,min3.png,min4.png,allBlank.png,,,,['num_1'],,,,,,0,2,2,2,,,,,,,,,,,,,,,,,['num_1'],3,0.0529488578904,1,['num_1'],0,[1.2423730350565165],,,,,,,,,2018_May_12_1415,59.8564183962,sequenceLearningTask,001,096,
min1.png,min2.png,min3.png,min4.png,allBlank.png,,,,['num_0'],,,,,,0,2,2,2,,,,,,,,,,,,,,,,,['num_0'],3,0.054204240907,1,['num_0'],0,[0.6743651188444346],,,,,,,,,2018_May_12_1415,59.8564183962,sequenceLearningTask,001,096,
min1.png,min2.png,min3.png,min4.png,allBlank.png,,,,['num_7'],,,,,,0,3,3,3,,,,,,,,,,,,,,,,,['num_7'],4,0.0529820886441,1,['num_7'],0,[0.7386899625416845],,,,,,,,,2018_May_12_1415,59.8564183962,sequenceLearningTask,001,096,
min1.png,min2.png,min3.png,min4.png,allBlank.png,,,,['num_1'],,,,,,0,3,3,3,,,,,,,,,,,,,,,,,['num_1'],4,0.0568516224157,0,"['num_0', 'num_0', 'num_1']",0,"[0.8051973681431264, 1.3880741891916841, 1.42145917378366]",,,,,,,,,2018_May_12_1415,59.8564183962,sequenceLearningTask,001,096,
min1.png,min2.png,min3.png,min4.png,allBlank.png,,,,['num_4'],,,,,,0,3,3,3,,,,,,,,,,,,,,,,,['num_4'],4,0.0578981852159,0,"['num_1', 'num_1', 'num_4']",0,"[0.00029456382617354393, 1.0197091039735824, 1.8176149937789887]",,,,,,,,,2018_May_12_1415,59.8564183962,sequenceLearningTask,001,096,
min1.png,min2.png,min3.png,min4.png,allBlank.png,,,,['num_0'],,,,,,0,3,3,3,,,,,,,,,,,,,,,,,['num_0'],4,0.0525533712935,0,"['num_1', 'num_1', 'num_0']",0,"[0.692268276354298, 1.37555440957658, 2.592107579112053]",,,,,,,,,2018_May_12_1415,59.8564183962,sequenceLearningTask,001,096,
min1.png,min2.png,min3.png,min4.png,allBlank.png,,,,['num_0'],,,,,,0,3,3,3,,,,,,,,,,,,,,,,,['num_0'],4,0.0540499847848,1,['num_0'],0,[1.190064586699009],,,,,,,,,2018_May_12_1415,59.8564183962,sequenceLearningTask,001,096,
min1.png,min2.png,min3.png,min4.png,allBlank.png,,,,['num_4'],,,,,,0,3,3,3,,,,,,,,,,,,,,,,,['num_4'],4,0.0505509120412,1,['num_4'],0,[2.127652355702594],,,,,,,,,2018_May_12_1415,59.8564183962,sequenceLearningTask,001,096,
min1.png,min2.png,min3.png,min4.png,allBlank.png,,,,['num_1'],,,,,,0,3,3,3,,,,,,,,,,,,,,,,,['num_1'],4,0.0550448554568,1,['num_1'],0,[2.906791088869795],,,,,,,,,2018_May_12_1415,59.8564183962,sequenceLearningTask,001,096,
min1.png,min2.png,min3.png,min4.png,allBlank.png,,,,['num_0'],,,,,,0,3,3,3,,,,,,,,,,,,,,,,,['num_0'],4,0.052623525029,1,['num_0'],0,[2.341709528118372],,,,,,,,,2018_May_12_1415,59.8564183962,sequenceLearningTask,001,096,
min1.png,min2.png,min3.png,min4.png,allBlank.png,,,,['num_7'],,,,,,0,4,4,4,,,,,,,,,,,,,,,,,['num_7'],5,0.0521952176932,1,['num_7'],0,[0.8566438686102629],,,,,,,,,2018_May_12_1415,59.8564183962,sequenceLearningTask,001,096,
min1.png,min2.png,min3.png,min4.png,allBlank.png,,,,['num_1'],,,,,,0,4,4,4,,,,,,,,,,,,,,,,,['num_1'],5,0.0545275227632,0,"['num_0', 'num_1']",0,"[0.5397408741991967, 1.0401304122060537]",,,,,,,,,2018_May_12_1415,59.8564183962,sequenceLearningTask,001,096,
min1.png,min2.png,min3.png,min4.png,allBlank.png,,,,['num_4'],,,,,,0,4,4,4,,,,,,,,,,,,,,,,,['num_4'],5,0.057840339141,1,['num_4'],0,[0.7867050829809159],,,,,,,,,2018_May_12_1415,59.8564183962,sequenceLearningTask,001,096,
min1.png,min2.png,min3.png,min4.png,allBlank.png,,,,['num_0'],,,,,,0,4,4,4,,,,,,,,,,,,,,,,,['num_0'],5,0.0611026941333,1,['num_0'],0,[0.4992071804590523],,,,,,,,,2018_May_12_1415,59.8564183962,sequenceLearningTask,001,096,
min1.png,min2.png,min3.png,min4.png,allBlank.png,,,,['num_0'],,,,,,0,4,4,4,,,,,,,,,,,,,,,,,['num_0'],5,0.0532434217166,0,"['num_1', 'num_0']",0,"[0.5240875601302832, 0.8574754574801773]",,,,,,,,,2018_May_12_1415,59.8564183962,sequenceLearningTask,001,096,
min1.png,min2.png,min3.png,min4.png,allBlank.png,,,,['num_4'],,,,,,0,4,4,4,,,,,,,,,,,,,,,,,['num_4'],5,0.0527605502866,1,['num_4'],0,[1.0250116616953164],,,,,,,,,2018_May_12_1415,59.8564183962,sequenceLearningTask,001,096,
min1.png,min2.png,min3.png,min4.png,allBlank.png,,,,['num_1'],,,,,,0,4,4,4,,,,,,,,,,,,,,,,,['num_1'],5,0.0710534509271,0,"['num_0', 'num_1']",0,"[0.6380098813679069, 1.2049741067457944]",,,,,,,,,2018_May_12_1415,59.8564183962,sequenceLearningTask,001,096,
min1.png,min2.png,min3.png,min4.png,allBlank.png,,,,['num_0'],,,,,,0,4,4,4,,,,,,,,,,,,,,,,,['num_0'],5,0.0638559213839,0,"['num_4', 'num_0']",0,"[0.0005842044483870268, 0.7792536050546914]",,,,,,,,,2018_May_12_1415,59.8564183962,sequenceLearningTask,001,096,
min1.png,min2.png,min3.png,min4.png,allBlank.png,,,,['num_7'],,,,,,0,5,5,5,,,,,,,,,,,,,,,,,['num_7'],6,0.058175928425,1,['num_7'],0,[0.6340853734873235],,,,,,,,,2018_May_12_1415,59.8564183962,sequenceLearningTask,001,096,
min1.png,min2.png,min3.png,min4.png,allBlank.png,,,,['num_1'],,,,,,0,5,5,5,,,,,,,,,,,,,,,,,['num_1'],6,0.0571843399666,1,['num_1'],0,[1.0547880351077765],,,,,,,,,2018_May_12_1415,59.8564183962,sequenceLearningTask,001,096,
min1.png,min2.png,min3.png,min4.png,allBlank.png,,,,['num_4'],,,,,,0,5,5,5,,,,,,,,,,,,,,,,,['num_4'],6,0.0617804368958,0,"['num_7', 'num_4']",0,"[0.9321752628311515, 1.581502873916179]",,,,,,,,,2018_May_12_1415,59.8564183962,sequenceLearningTask,001,096,
min1.png,min2.png,min3.png,min4.png,allBlank.png,,,,['num_0'],,,,,,0,5,5,5,,,,,,,,,,,,,,,,,['num_0'],6,0.0542395228986,0,"['num_1', 'num_0']",0,"[0.6226913363207132, 1.1060679720249027]",,,,,,,,,2018_May_12_1415,59.8564183962,sequenceLearningTask,001,096,
min1.png,min2.png,min3.png,min4.png,allBlank.png,,,,['num_0'],,,,,,0,5,5,5,,,,,,,,,,,,,,,,,['num_0'],6,0.0590854657348,1,['num_0'],0,[0.8016359363682568],,,,,,,,,2018_May_12_1415,59.8564183962,sequenceLearningTask,001,096,
min1.png,min2.png,min3.png,min4.png,allBlank.png,,,,['num_4'],,,,,,0,5,5,5,,,,,,,,,,,,,,,,,['num_4'],6,0.0640479212161,1,['num_4'],0,[1.6148004739079624],,,,,,,,,2018_May_12_1415,59.8564183962,sequenceLearningTask,001,096,
min1.png,min2.png,min3.png,min4.png,allBlank.png,,,,['num_1'],,,,,,0,5,5,5,,,,,,,,,,,,,,,,,['num_1'],6,0.0554661881179,1,['num_1'],0,[1.0896265564952046],,,,,,,,,2018_May_12_1415,59.8564183962,sequenceLearningTask,001,096,
min1.png,min2.png,min3.png,min4.png,allBlank.png,,,,['num_0'],,,,,,0,5,5,5,,,,,,,,,,,,,,,,,['num_0'],6,0.0607359251007,1,['num_0'],0,[0.6501091485843062],,,,,,,,,2018_May_12_1415,59.8564183962,sequenceLearningTask,001,096,
min1.png,min2.png,min3.png,min4.png,allBlank.png,,,,['num_7'],,,,,,0,6,6,6,,,,,,,,,,,,,,,,,['num_7'],7,0.0499265026301,1,['num_7'],0,[0.49309190595522523],,,,,,,,,2018_May_12_1415,59.8564183962,sequenceLearningTask,001,096,
min1.png,min2.png,min3.png,min4.png,allBlank.png,,,,['num_1'],,,,,,0,6,6,6,,,,,,,,,,,,,,,,,['num_1'],7,0.0485574787017,0,"['num_4', 'num_1']",0,"[0.629719840362668, 1.2467057476751506]",,,,,,,,,2018_May_12_1415,59.8564183962,sequenceLearningTask,001,096,
min1.png,min2.png,min3.png,min4.png,allBlank.png,,,,['num_4'],,,,,,0,6,6,6,,,,,,,,,,,,,,,,,['num_4'],7,0.0572602371685,1,['num_4'],0,[1.737652835668996],,,,,,,,,2018_May_12_1415,59.8564183962,sequenceLearningTask,001,096,
min1.png,min2.png,min3.png,min4.png,allBlank.png,,,,['num_0'],,,,,,0,6,6,6,,,,,,,,,,,,,,,,,['num_0'],7,0.0527318327222,1,['num_0'],0,[0.8079772619530559],,,,,,,,,2018_May_12_1415,59.8564183962,sequenceLearningTask,001,096,
min1.png,min2.png,min3.png,min4.png,allBlank.png,,,,['num_0'],,,,,,0,6,6,6,,,,,,,,,,,,,,,,,['num_0'],7,0.0570977758616,0,"['num_1', 'num_0']",0,"[0.9865542729385197, 1.5707832975313067]",,,,,,,,,2018_May_12_1415,59.8564183962,sequenceLearningTask,001,096,
min1.png,min2.png,min3.png,min4.png,allBlank.png,,,,['num_4'],,,,,,0,6,6,6,,,,,,,,,,,,,,,,,['num_4'],7,0.0551371630281,1,['num_4'],0,[1.1393959308043122],,,,,,,,,2018_May_12_1415,59.8564183962,sequenceLearningTask,001,096,
min1.png,min2.png,min3.png,min4.png,allBlank.png,,,,['num_1'],,,,,,0,6,6,6,,,,,,,,,,,,,,,,,['num_1'],7,0.0506953222211,1,['num_1'],0,[2.059101465623826],,,,,,,,,2018_May_12_1415,59.8564183962,sequenceLearningTask,001,096,
min1.png,min2.png,min3.png,min4.png,allBlank.png,,,,['num_0'],,,,,,0,6,6,6,,,,,,,,,,,,,,,,,['num_0'],7,0.0586140817031,1,['num_0'],0,[1.4172716916073114],,,,,,,,,2018_May_12_1415,59.8564183962,sequenceLearningTask,001,096,
min1.png,min2.png,min3.png,min4.png,allBlank.png,,,,['num_7'],,,,,,0,7,7,7,,,,,,,,,,,,,,,,,['num_7'],8,0.056822494138,1,['num_7'],0,[1.5854807153809816],,,,,,,,,2018_May_12_1415,59.8564183962,sequenceLearningTask,001,096,
min1.png,min2.png,min3.png,min4.png,allBlank.png,,,,['num_1'],,,,,,0,7,7,7,,,,,,,,,,,,,,,,,['num_1'],8,0.0538411645684,1,['num_1'],0,[1.173614145256579],,,,,,,,,2018_May_12_1415,59.8564183962,sequenceLearningTask,001,096,
min1.png,min2.png,min3.png,min4.png,allBlank.png,,,,['num_4'],,,,,,0,7,7,7,,,,,,,,,,,,,,,,,['num_4'],8,0.0519909104332,1,['num_4'],0,[1.0758337527513504],,,,,,,,,2018_May_12_1415,59.8564183962,sequenceLearningTask,001,096,
min1.png,min2.png,min3.png,min4.png,allBlank.png,,,,['num_0'],,,,,,0,7,7,7,,,,,,,,,,,,,,,,,['num_0'],8,0.0571031090803,1,['num_0'],0,[1.4863813500851393],,,,,,,,,2018_May_12_1415,59.8564183962,sequenceLearningTask,001,096,
min1.png,min2.png,min3.png,min4.png,allBlank.png,,,,['num_0'],,,,,,0,7,7,7,,,,,,,,,,,,,,,,,['num_0'],8,0.0552828039508,1,['num_0'],0,[0.8889322392642498],,,,,,,,,2018_May_12_1415,59.8564183962,sequenceLearningTask,001,096,
min1.png,min2.png,min3.png,min4.png,allBlank.png,,,,['num_4'],,,,,,0,7,7,7,,,,,,,,,,,,,,,,,['num_4'],8,0.0524930635002,1,['num_4'],0,[5.758130759233609],,,,,,,,,2018_May_12_1415,59.8564183962,sequenceLearningTask,001,096,
min1.png,min2.png,min3.png,min4.png,allBlank.png,,,,['num_1'],,,,,,0,7,7,7,,,,,,,,,,,,,,,,,['num_1'],8,0.0550838296767,1,['num_1'],0,[1.1738488115370274],,,,,,,,,2018_May_12_1415,59.8564183962,sequenceLearningTask,001,096,
min1.png,min2.png,min3.png,min4.png,allBlank.png,,,,['num_0'],,,,,,0,7,7,7,,,,,,,,,,,,,,,,,['num_0'],8,0.0582678257488,1,['num_0'],0,[0.43477484956383705],,,,,,,,,2018_May_12_1415,59.8564183962,sequenceLearningTask,001,096,
min1.png,min2.png,min3.png,min4.png,allBlank.png,,,,['num_7'],,,,,,0,8,8,8,,,,,,,,,,,,,,,,,['num_7'],9,0.0544183945749,1,['num_7'],0,[0.5378975942730904],,,,,,,,,2018_May_12_1415,59.8564183962,sequenceLearningTask,001,096,
min1.png,min2.png,min3.png,min4.png,allBlank.png,,,,['num_1'],,,,,,0,8,8,8,,,,,,,,,,,,,,,,,['num_1'],9,0.0590575684328,1,['num_1'],0,[1.6687643053010106],,,,,,,,,2018_May_12_1415,59.8564183962,sequenceLearningTask,001,096,
min1.png,min2.png,min3.png,min4.png,allBlank.png,,,,['num_4'],,,,,,0,8,8,8,,,,,,,,,,,,,,,,,['num_4'],9,0.0532754217274,1,['num_4'],0,[1.2245371595490724],,,,,,,,,2018_May_12_1415,59.8564183962,sequenceLearningTask,001,096,
min1.png,min2.png,min3.png,min4.png,allBlank.png,,,,['num_0'],,,,,,0,8,8,8,,,,,,,,,,,,,,,,,['num_0'],9,0.0603900796268,1,['num_0'],0,[0.8673010864295065],,,,,,,,,2018_May_12_1415,59.8564183962,sequenceLearningTask,001,096,
min1.png,min2.png,min3.png,min4.png,allBlank.png,,,,['num_0'],,,,,,0,8,8,8,,,,,,,,,,,,,,,,,['num_0'],9,0.0490288627334,1,['num_0'],0,[0.5287562722805887],,,,,,,,,2018_May_12_1415,59.8564183962,sequenceLearningTask,001,096,
min1.png,min2.png,min3.png,min4.png,allBlank.png,,,,['num_4'],,,,,,0,8,8,8,,,,,,,,,,,,,,,,,['num_4'],9,0.0490883500315,1,['num_4'],0,[1.012381523149088],,,,,,,,,2018_May_12_1415,59.8564183962,sequenceLearningTask,001,096,
min1.png,min2.png,min3.png,min4.png,allBlank.png,,,,['num_1'],,,,,,0,8,8,8,,,,,,,,,,,,,,,,,['num_1'],9,0.0585504919291,1,['num_1'],0,[0.5029548681341112],,,,,,,,,2018_May_12_1415,59.8564183962,sequenceLearningTask,001,096,
min1.png,min2.png,min3.png,min4.png,allBlank.png,,,,['num_0'],,,,,,0,8,8,8,,,,,,,,,,,,,,,,,['num_0'],9,0.0519950129092,1,['num_0'],0,[0.7090563580859452],,,,,,,,,2018_May_12_1415,59.8564183962,sequenceLearningTask,001,096,
min1.png,min2.png,min3.png,min4.png,allBlank.png,,,,['num_7'],,,,,,0,9,9,9,,,,,,,,,,,,,,,,,['num_7'],10,0.0474928645417,1,['num_7'],0,[5.0122014209628105],,,,,,,,,2018_May_12_1415,59.8564183962,sequenceLearningTask,001,096,
min1.png,min2.png,min3.png,min4.png,allBlank.png,,,,['num_1'],,,,,,0,9,9,9,,,,,,,,,,,,,,,,,['num_1'],10,0.0543359331787,0,"['num_4', 'num_4', 'num_1']",0,"[0.9730958279687911, 2.040178412105888, 2.656721242936328]",,,,,,,,,2018_May_12_1415,59.8564183962,sequenceLearningTask,001,096,
min1.png,min2.png,min3.png,min4.png,allBlank.png,,,,['num_4'],,,,,,0,9,9,9,,,,,,,,,,,,,,,,,['num_4'],10,0.0532606523484,1,['num_4'],0,[1.6913234568201005],,,,,,,,,2018_May_12_1415,59.8564183962,sequenceLearningTask,001,096,
min1.png,min2.png,min3.png,min4.png,allBlank.png,,,,['num_0'],,,,,,0,9,9,9,,,,,,,,,,,,,,,,,['num_0'],10,0.0527929607779,1,['num_0'],0,[1.906998268328607],,,,,,,,,2018_May_12_1415,59.8564183962,sequenceLearningTask,001,096,
min1.png,min2.png,min3.png,min4.png,allBlank.png,,,,['num_0'],,,,,,0,9,9,9,,,,,,,,,,,,,,,,,['num_0'],10,0.0496495799161,1,['num_0'],0,[1.8774557407014072],,,,,,,,,2018_May_12_1415,59.8564183962,sequenceLearningTask,001,096,
min1.png,min2.png,min3.png,min4.png,allBlank.png,,,,['num_4'],,,,,,0,9,9,9,,,,,,,,,,,,,,,,,['num_4'],10,0.0543921382632,0,"['num_7', 'num_4']",0,"[1.423210145905614, 2.3236734478268772]",,,,,,,,,2018_May_12_1415,59.8564183962,sequenceLearningTask,001,096,
min1.png,min2.png,min3.png,min4.png,allBlank.png,,,,['num_1'],,,,,,0,9,9,9,,,,,,,,,,,,,,,,,['num_1'],10,0.0594419781119,1,['num_1'],0,[1.7180922443512827],,,,,,,,,2018_May_12_1415,59.8564183962,sequenceLearningTask,001,096,
min1.png,min2.png,min3.png,min4.png,allBlank.png,,,,['num_0'],,,,,,0,9,9,9,,,,,,,,,,,,,,,,,['num_0'],10,0.057816544082,1,['num_0'],0,[0.9198245089501143],,,,,,,,,2018_May_12_1415,59.8564183962,sequenceLearningTask,001,096,
min1.png,min2.png,min3.png,min4.png,images/allBlank.png,images/min1.png,'num_7',"['num_7', 'num_4', 'num_1', 'num_0']",['num_7'],num_7,,,,,0,9,9,9,0,0,0,0,,,,,,,,,,,,,['num_7'],,0.0494850673713,1,['num_7'],0,[1.7179207575973123],1,,,,,,,,2018_May_12_1415,59.8564183962,sequenceLearningTask,001,096,
min1.png,min2.png,min3.png,min4.png,images/allBlank.png,images/min4.png,'num_0',"['num_7', 'num_4', 'num_1', 'num_0']",['num_0'],num_0,,,,,0,9,9,9,0,1,1,3,,,,,,,,,,,,,['num_0'],,0.0581488516182,1,['num_0'],0,[1.0681102750822902],1,,,,,,,,2018_May_12_1415,59.8564183962,sequenceLearningTask,001,096,
min1.png,min2.png,min3.png,min4.png,images/allBlank.png,images/min3.png,'num_1',"['num_7', 'num_4', 'num_1', 'num_0']",['num_1'],num_1,,,,,0,9,9,9,0,2,2,2,,,,,,,,,,,,,['num_1'],,0.0598903878126,1,['num_1'],0,[1.38157983799465],1,,,,,,,,2018_May_12_1415,59.8564183962,sequenceLearningTask,001,096,
min1.png,min2.png,min3.png,min4.png,images/allBlank.png,images/min2.png,'num_4',"['num_7', 'num_4', 'num_1', 'num_0']",['num_4'],num_4,,,,,0,9,9,9,0,3,3,1,,,,,,,,,,,,,['num_4'],,0.0543125486001,1,['num_4'],0,[1.0034112778957933],1,,,,,,,,2018_May_12_1415,59.8564183962,sequenceLearningTask,001,096,
min1.png,min2.png,min3.png,min4.png,images/allBlank.png,images/min4.png,'num_0',"['num_7', 'num_4', 'num_1', 'num_0']",['num_0'],num_0,,,,,0,9,9,9,1,0,4,3,,,,,,,,,,,,,['num_0'],,0.0506633222103,1,['num_0'],0,[0.6089621223509312],1,,,,,,,,2018_May_12_1415,59.8564183962,sequenceLearningTask,001,096,
min1.png,min2.png,min3.png,min4.png,images/allBlank.png,images/min1.png,'num_7',"['num_7', 'num_4', 'num_1', 'num_0']",['num_7'],num_7,,,,,0,9,9,9,1,1,5,0,,,,,,,,,,,,,['num_7'],,0.0528614735231,1,['num_7'],0,[1.1395366487558931],1,,,,,,,,2018_May_12_1415,59.8564183962,sequenceLearningTask,001,096,
min1.png,min2.png,min3.png,min4.png,images/allBlank.png,images/min3.png,'num_1',"['num_7', 'num_4', 'num_1', 'num_0']",['num_1'],num_1,,,,,0,9,9,9,1,2,6,2,,,,,,,,,,,,,['num_1'],,0.0561344949529,0,"['num_4', 'num_1']",0,"[1.0192126943729818, 1.56905488925986]",0,,,,,,,,2018_May_12_1415,59.8564183962,sequenceLearningTask,001,096,
min1.png,min2.png,min3.png,min4.png,images/allBlank.png,images/min2.png,'num_4',"['num_7', 'num_4', 'num_1', 'num_0']",['num_4'],num_4,,,,,0,9,9,9,1,3,7,1,,,,,,,,,,,,,['num_4'],,0.0563322384842,1,['num_4'],0,[1.4023859661538154],1,,,,,,,,2018_May_12_1415,59.8564183962,sequenceLearningTask,001,096,
min1.png,min2.png,min3.png,min4.png,images/allBlank.png,images/min4.png,'num_0',"['num_7', 'num_4', 'num_1', 'num_0']",['num_0'],num_0,,,,,0,9,9,9,2,0,8,3,,,,,,,,,,,,,['num_0'],,0.0508938862476,1,['num_0'],0,[0.8907911088317633],1,,,,,,,,2018_May_12_1415,59.8564183962,sequenceLearningTask,001,096,
min1.png,min2.png,min3.png,min4.png,images/allBlank.png,images/min1.png,'num_7',"['num_7', 'num_4', 'num_1', 'num_0']",['num_7'],num_7,,,,,0,9,9,9,2,1,9,0,,,,,,,,,,,,,['num_7'],,0.0565829046536,1,['num_7'],0,[1.3524397714063525],1,,,,,,,,2018_May_12_1415,59.8564183962,sequenceLearningTask,001,096,
min1.png,min2.png,min3.png,min4.png,images/allBlank.png,images/min3.png,'num_1',"['num_7', 'num_4', 'num_1', 'num_0']",['num_1'],num_1,,,,,0,9,9,9,2,2,10,2,,,,,,,,,,,,,['num_1'],,0.0569349043071,1,['num_1'],0,[1.035320161608979],1,,,,,,,,2018_May_12_1415,59.8564183962,sequenceLearningTask,001,096,
min1.png,min2.png,min3.png,min4.png,images/allBlank.png,images/min2.png,'num_4',"['num_7', 'num_4', 'num_1', 'num_0']",['num_4'],num_4,,,,,0,9,9,9,2,3,11,1,,,,,,,,,,,,,['num_4'],,0.0550251631066,1,['num_4'],0,[0.6378059843555093],1,,,,,,,,2018_May_12_1415,59.8564183962,sequenceLearningTask,001,096,
min1.png,min2.png,min3.png,min4.png,images/allBlank.png,images/min3.png,'num_1',"['num_7', 'num_4', 'num_1', 'num_0']",['num_1'],num_1,,,,,0,9,9,9,3,0,12,2,,,,,,,,,,,,,['num_1'],,0.0605463872198,1,['num_1'],0,[1.1636047216597944],1,,,,,,,,2018_May_12_1415,59.8564183962,sequenceLearningTask,001,096,
min1.png,min2.png,min3.png,min4.png,images/allBlank.png,images/min2.png,'num_4',"['num_7', 'num_4', 'num_1', 'num_0']",['num_4'],num_4,,,,,0,9,9,9,3,1,13,1,,,,,,,,,,,,,['num_4'],,0.0596298752353,1,['num_4'],0,[1.0473267110064626],1,,,,,,,,2018_May_12_1415,59.8564183962,sequenceLearningTask,001,096,
min1.png,min2.png,min3.png,min4.png,images/allBlank.png,images/min4.png,'num_0',"['num_7', 'num_4', 'num_1', 'num_0']",['num_0'],num_0,,,,,0,9,9,9,3,2,14,3,,,,,,,,,,,,,['num_0'],,0.058832337847,1,['num_0'],0,[1.0346198547631502],1,,,,,,,,2018_May_12_1415,59.8564183962,sequenceLearningTask,001,096,
min1.png,min2.png,min3.png,min4.png,images/allBlank.png,images/min1.png,'num_7',"['num_7', 'num_4', 'num_1', 'num_0']",['num_7'],num_7,,,,,0,9,9,9,3,3,15,0,,,,,,,,,,,,,['num_7'],,0.0544360356871,1,['num_7'],0,[1.0880864555947483],1,,,,,,,,2018_May_12_1415,59.8564183962,sequenceLearningTask,001,096,
min1.png,min2.png,min3.png,min4.png,images/allBlank.png,images/min4.png,'num_0',"['num_7', 'num_4', 'num_1', 'num_0']",['num_0'],num_0,,,,,0,9,9,9,4,0,16,3,,,,,,,,,,,,,['num_0'],,0.0533262933604,1,['num_0'],0,[0.9897645253222436],1,,,,,,,,2018_May_12_1415,59.8564183962,sequenceLearningTask,001,096,
min1.png,min2.png,min3.png,min4.png,images/allBlank.png,images/min2.png,'num_4',"['num_7', 'num_4', 'num_1', 'num_0']",['num_4'],num_4,,,,,0,9,9,9,4,1,17,1,,,,,,,,,,,,,['num_4'],,0.0570825964678,1,['num_4'],0,[5.267258748179302],1,,,,,,,,2018_May_12_1415,59.8564183962,sequenceLearningTask,001,096,
min1.png,min2.png,min3.png,min4.png,images/allBlank.png,images/min3.png,'num_1',"['num_7', 'num_4', 'num_1', 'num_0']",['num_1'],num_1,,,,,0,9,9,9,4,2,18,2,,,,,,,,,,,,,['num_1'],,0.0515695775393,1,['num_1'],0,[0.9413662261795253],1,,,,,,,,2018_May_12_1415,59.8564183962,sequenceLearningTask,001,096,
min1.png,min2.png,min3.png,min4.png,images/allBlank.png,images/min1.png,'num_7',"['num_7', 'num_4', 'num_1', 'num_0']",['num_7'],num_7,,,,,0,9,9,9,4,3,19,0,,,,,,,,,,,,,['num_7'],,0.0531786011998,1,['num_7'],0,[1.8542336153332144],1,,,,,,,,2018_May_12_1415,59.8564183962,sequenceLearningTask,001,096,
min1.png,min2.png,min3.png,min4.png,images/allBlank.png,images/min4.png,'num_0',"['num_7', 'num_4', 'num_1', 'num_0']",['num_0'],num_0,,,,,0,9,9,9,5,0,20,3,,,,,,,,,,,,,['num_0'],,0.0671757122036,1,['num_0'],0,[1.7395958076231182],1,,,,,,,,2018_May_12_1415,59.8564183962,sequenceLearningTask,001,096,
min1.png,min2.png,min3.png,min4.png,images/allBlank.png,images/min1.png,'num_7',"['num_7', 'num_4', 'num_1', 'num_0']",['num_7'],num_7,,,,,0,9,9,9,5,1,21,0,,,,,,,,,,,,,['num_7'],,0.0477874283679,1,['num_7'],0,[1.1779993707314134],1,,,,,,,,2018_May_12_1415,59.8564183962,sequenceLearningTask,001,096,
min1.png,min2.png,min3.png,min4.png,images/allBlank.png,images/min3.png,'num_1',"['num_7', 'num_4', 'num_1', 'num_0']",['num_1'],num_1,,,,,0,9,9,9,5,2,22,2,,,,,,,,,,,,,['num_1'],,0.0579388004262,1,['num_1'],0,[0.6341895784717053],1,,,,,,,,2018_May_12_1415,59.8564183962,sequenceLearningTask,001,096,
min1.png,min2.png,min3.png,min4.png,images/allBlank.png,images/min2.png,'num_4',"['num_7', 'num_4', 'num_1', 'num_0']",['num_4'],num_4,,,,,0,9,9,9,5,3,23,1,,,,,,,,,,,,,['num_4'],,0.0486075298395,1,['num_4'],0,[0.5930466547142714],1,,,,,,,,2018_May_12_1415,59.8564183962,sequenceLearningTask,001,096,
min1.png,min2.png,min3.png,min4.png,images/allBlank.png,images/min1.png,'num_7',"['num_7', 'num_4', 'num_1', 'num_0']",['num_7'],num_7,,,,,0,9,9,9,6,0,24,0,,,,,,,,,,,,,['num_7'],,0.0543310099747,1,['num_7'],0,[1.2718113576993346],1,,,,,,,,2018_May_12_1415,59.8564183962,sequenceLearningTask,001,096,
min1.png,min2.png,min3.png,min4.png,images/allBlank.png,images/min3.png,'num_1',"['num_7', 'num_4', 'num_1', 'num_0']",['num_1'],num_1,,,,,0,9,9,9,6,1,25,2,,,,,,,,,,,,,['num_1'],,0.0540573692415,1,['num_1'],0,[4.520677923224866],1,,,,,,,,2018_May_12_1415,59.8564183962,sequenceLearningTask,001,096,
min1.png,min2.png,min3.png,min4.png,images/allBlank.png,images/min2.png,'num_4',"['num_7', 'num_4', 'num_1', 'num_0']",['num_4'],num_4,,,,,0,9,9,9,6,2,26,1,,,,,,,,,,,,,['num_4'],,0.0500971688889,1,['num_4'],0,[1.7922008710447699],1,,,,,,,,2018_May_12_1415,59.8564183962,sequenceLearningTask,001,096,
min1.png,min2.png,min3.png,min4.png,images/allBlank.png,images/min4.png,'num_0',"['num_7', 'num_4', 'num_1', 'num_0']",['num_0'],num_0,,,,,0,9,9,9,6,3,27,3,,,,,,,,,,,,,['num_0'],,0.0555634188931,1,['num_0'],0,[0.9710043433587998],1,,,,,,,,2018_May_12_1415,59.8564183962,sequenceLearningTask,001,096,
min1.png,min2.png,min3.png,min4.png,images/allBlank.png,images/min2.png,'num_4',"['num_7', 'num_4', 'num_1', 'num_0']",['num_4'],num_4,,,,,0,9,9,9,7,0,28,1,,,,,,,,,,,,,['num_4'],,0.0546994199976,1,['num_4'],0,[3.773446842795238],1,,,,,,,,2018_May_12_1415,59.8564183962,sequenceLearningTask,001,096,
min1.png,min2.png,min3.png,min4.png,images/allBlank.png,images/min4.png,'num_0',"['num_7', 'num_4', 'num_1', 'num_0']",['num_0'],num_0,,,,,0,9,9,9,7,1,29,3,,,,,,,,,,,,,['num_0'],,0.0502186047379,1,['num_0'],0,[1.0752429841086268],1,,,,,,,,2018_May_12_1415,59.8564183962,sequenceLearningTask,001,096,
min1.png,min2.png,min3.png,min4.png,images/allBlank.png,images/min1.png,'num_7',"['num_7', 'num_4', 'num_1', 'num_0']",['num_7'],num_7,,,,,0,9,9,9,7,2,30,0,,,,,,,,,,,,,['num_7'],,0.0553024960682,1,['num_7'],0,[1.137656856328249],1,,,,,,,,2018_May_12_1415,59.8564183962,sequenceLearningTask,001,096,
min1.png,min2.png,min3.png,min4.png,images/allBlank.png,images/min3.png,'num_1',"['num_7', 'num_4', 'num_1', 'num_0']",['num_1'],num_1,,,,,0,9,9,9,7,3,31,2,,,,,,,,,,,,,['num_1'],,0.0500713230576,0,"['num_4', 'num_1']",0,"[0.9603783052880317, 1.608323764288798]",0,,,,,,,,2018_May_12_1415,59.8564183962,sequenceLearningTask,001,096,
min1.png,min2.png,min3.png,min4.png,images/allBlank.png,images/min1.png,'num_7',"['num_7', 'num_4', 'num_1', 'num_0']",['num_7'],num_7,,,,,0,9,9,9,8,0,32,0,,,,,,,,,,,,,['num_7'],,0.0579851593357,1,['num_7'],0,[1.2004707276355475],1,,,,,,,,2018_May_12_1415,59.8564183962,sequenceLearningTask,001,096,
min1.png,min2.png,min3.png,min4.png,images/allBlank.png,images/min2.png,'num_4',"['num_7', 'num_4', 'num_1', 'num_0']",['num_4'],num_4,,,,,0,9,9,9,8,1,33,1,,,,,,,,,,,,,['num_4'],,0.051459218841,1,['num_4'],0,[0.6413764415774494],1,,,,,,,,2018_May_12_1415,59.8564183962,sequenceLearningTask,001,096,
min1.png,min2.png,min3.png,min4.png,images/allBlank.png,images/min4.png,'num_0',"['num_7', 'num_4', 'num_1', 'num_0']",['num_0'],num_0,,,,,0,9,9,9,8,2,34,3,,,,,,,,,,,,,['num_0'],,0.0521562434733,0,"['num_1', 'num_0']",0,"[0.5392768746241927, 0.9226474796887487]",0,,,,,,,,2018_May_12_1415,59.8564183962,sequenceLearningTask,001,096,
min1.png,min2.png,min3.png,min4.png,images/allBlank.png,images/min3.png,'num_1',"['num_7', 'num_4', 'num_1', 'num_0']",['num_1'],num_1,,,,,0,9,9,9,8,3,35,2,,,,,,,,,,,,,['num_1'],,0.0555474187713,1,['num_1'],0,[0.5865166115108877],1,,,,,,,,2018_May_12_1415,59.8564183962,sequenceLearningTask,001,096,
min1.png,min2.png,min3.png,min4.png,images/allBlank.png,images/min4.png,'num_0',"['num_7', 'num_4', 'num_1', 'num_0']",['num_0'],num_0,,,,,0,9,9,9,9,0,36,3,,,,,,,,,,,,,['num_0'],,0.0535141907167,1,['num_0'],0,[0.971409676130861],1,,,,,,,,2018_May_12_1415,59.8564183962,sequenceLearningTask,001,096,
min1.png,min2.png,min3.png,min4.png,images/allBlank.png,images/min3.png,'num_1',"['num_7', 'num_4', 'num_1', 'num_0']",['num_1'],num_1,,,,,0,9,9,9,9,1,37,2,,,,,,,,,,,,,['num_1'],,0.049371836707,1,['num_1'],0,[1.110970119945705],1,,,,,,,,2018_May_12_1415,59.8564183962,sequenceLearningTask,001,096,
min1.png,min2.png,min3.png,min4.png,images/allBlank.png,images/min2.png,'num_4',"['num_7', 'num_4', 'num_1', 'num_0']",['num_4'],num_4,,,,,0,9,9,9,9,2,38,1,,,,,,,,,,,,,['num_4'],,0.0568077249918,1,['num_4'],0,[1.1349606544245034],1,,,,,,,,2018_May_12_1415,59.8564183962,sequenceLearningTask,001,096,
min1.png,min2.png,min3.png,min4.png,images/allBlank.png,images/min1.png,'num_7',"['num_7', 'num_4', 'num_1', 'num_0']",['num_7'],num_7,,,,,0,9,9,9,9,3,39,0,,,,,,,,,,,,,['num_7'],,0.0518641411327,0,"['num_4', 'num_4', 'num_4', 'num_4', 'num_4', 'num_7']",0,"[1.6914629437960684, 2.424467580160126, 2.8408477855846286, 3.158476112643257, 3.391650389879942, 4.057682390557602]",0,,,,,,,,2018_May_12_1415,59.8564183962,sequenceLearningTask,001,096,
min1.png,min2.png,min3.png,min4.png,images/allBlank.png,images/min2.png,'num_4',"['num_7', 'num_4', 'num_1', 'num_0']",['num_4'],num_4,,,,,0,9,9,9,10,0,40,1,,,,,,,,,,,,,['num_4'],,0.050056143431,1,['num_4'],0,[1.6083750461693853],1,,,,,,,,2018_May_12_1415,59.8564183962,sequenceLearningTask,001,096,
min1.png,min2.png,min3.png,min4.png,images/allBlank.png,images/min3.png,'num_1',"['num_7', 'num_4', 'num_1', 'num_0']",['num_1'],num_1,,,,,0,9,9,9,10,1,41,2,,,,,,,,,,,,,['num_1'],,0.0567995198071,1,['num_1'],0,[0.9189572278410196],1,,,,,,,,2018_May_12_1415,59.8564183962,sequenceLearningTask,001,096,
min1.png,min2.png,min3.png,min4.png,images/allBlank.png,images/min1.png,'num_7',"['num_7', 'num_4', 'num_1', 'num_0']",['num_7'],num_7,,,,,0,9,9,9,10,2,42,0,,,,,,,,,,,,,['num_7'],,0.0516077312641,1,['num_7'],0,[1.1246090773493052],1,,,,,,,,2018_May_12_1415,59.8564183962,sequenceLearningTask,001,096,
min1.png,min2.png,min3.png,min4.png,images/allBlank.png,images/min4.png,'num_0',"['num_7', 'num_4', 'num_1', 'num_0']",['num_0'],num_0,,,,,0,9,9,9,10,3,43,3,,,,,,,,,,,,,['num_0'],,0.0394235411659,0,"['num_4', 'num_4', 'num_4', 'num_1', 'num_1', 'num_0']",0,"[1.2893752336967736, 2.0222916649654508, 2.405530167510733, 2.9382720759604126, 4.154627501964569, 8.238322168122977]",0,,,,,,,,2018_May_12_1415,59.8564183962,sequenceLearningTask,001,096,
min1.png,min2.png,min3.png,min4.png,images/allBlank.png,images/min4.png,'num_0',"['num_7', 'num_4', 'num_1', 'num_0']",['num_0'],num_0,,,,,0,9,9,9,11,0,44,3,,,,,,,,,,,,,['num_0'],,0.0538370618597,1,['num_0'],0,[0.8224941671360284],1,,,,,,,,2018_May_12_1415,59.8564183962,sequenceLearningTask,001,096,
min1.png,min2.png,min3.png,min4.png,images/allBlank.png,images/min1.png,'num_7',"['num_7', 'num_4', 'num_1', 'num_0']",['num_7'],num_7,,,,,0,9,9,9,11,1,45,0,,,,,,,,,,,,,['num_7'],,0.0523199357558,1,['num_7'],0,[1.0059060440398753],1,,,,,,,,2018_May_12_1415,59.8564183962,sequenceLearningTask,001,096,
min1.png,min2.png,min3.png,min4.png,images/allBlank.png,images/min2.png,'num_4',"['num_7', 'num_4', 'num_1', 'num_0']",['num_4'],num_4,,,,,0,9,9,9,11,2,46,1,,,,,,,,,,,,,['num_4'],,0.0566042379942,1,['num_4'],0,[1.2014442647341639],1,,,,,,,,2018_May_12_1415,59.8564183962,sequenceLearningTask,001,096,
min1.png,min2.png,min3.png,min4.png,images/allBlank.png,images/min3.png,'num_1',"['num_7', 'num_4', 'num_1', 'num_0']",['num_1'],num_1,,,,,0,9,9,9,11,3,47,2,,,,,,,,,,,,,['num_1'],,0.05274414015,1,['num_1'],0,[1.7232089559547603],1,,,,,,,,2018_May_12_1415,59.8564183962,sequenceLearningTask,001,096,
min1.png,min2.png,min3.png,min4.png,images/allBlank.png,images/min4.png,'num_0',"['num_7', 'num_4', 'num_1', 'num_0']",['num_0'],num_0,,,,,0,9,9,9,12,0,48,3,,,,,,,,,,,,,['num_0'],,0.0511626037769,1,['num_0'],0,[1.1080905336420983],1,,,,,,,,2018_May_12_1415,59.8564183962,sequenceLearningTask,001,096,
min1.png,min2.png,min3.png,min4.png,images/allBlank.png,images/min1.png,'num_7',"['num_7', 'num_4', 'num_1', 'num_0']",['num_7'],num_7,,,,,0,9,9,9,12,1,49,0,,,,,,,,,,,,,['num_7'],,0.0558924442157,1,['num_7'],0,[1.2535668674390763],1,,,,,,,,2018_May_12_1415,59.8564183962,sequenceLearningTask,001,096,
min1.png,min2.png,min3.png,min4.png,images/allBlank.png,images/min3.png,'num_1',"['num_7', 'num_4', 'num_1', 'num_0']",['num_1'],num_1,,,,,0,9,9,9,12,2,50,2,,,,,,,,,,,,,['num_1'],,0.0517771670129,1,['num_1'],0,[1.4078378570266068],1,,,,,,,,2018_May_12_1415,59.8564183962,sequenceLearningTask,001,096,
min1.png,min2.png,min3.png,min4.png,images/allBlank.png,images/min2.png,'num_4',"['num_7', 'num_4', 'num_1', 'num_0']",['num_4'],num_4,,,,,0,9,9,9,12,3,51,1,,,,,,,,,,,,,['num_4'],,0.055679111043,1,['num_4'],0,[3.919396201847121],1,,,,,,,,2018_May_12_1415,59.8564183962,sequenceLearningTask,001,096,
min1.png,min2.png,min3.png,min4.png,images/allBlank.png,images/min1.png,'num_7',"['num_7', 'num_4', 'num_1', 'num_0']",['num_7'],num_7,,,,,0,9,9,9,13,0,52,0,,,,,,,,,,,,,['num_7'],,0.0515203468967,1,['num_7'],0,[1.1903337144758552],1,,,,,,,,2018_May_12_1415,59.8564183962,sequenceLearningTask,001,096,
min1.png,min2.png,min3.png,min4.png,images/allBlank.png,images/min2.png,'num_4',"['num_7', 'num_4', 'num_1', 'num_0']",['num_4'],num_4,,,,,0,9,9,9,13,1,53,1,,,,,,,,,,,,,['num_4'],,0.0628799225669,1,['num_4'],0,[1.1456646411679685],1,,,,,,,,2018_May_12_1415,59.8564183962,sequenceLearningTask,001,096,
min1.png,min2.png,min3.png,min4.png,images/allBlank.png,images/min3.png,'num_1',"['num_7', 'num_4', 'num_1', 'num_0']",['num_1'],num_1,,,,,0,9,9,9,13,2,54,2,,,,,,,,,,,,,['num_1'],,0.0549057784956,1,['num_1'],0,[1.4367412060964853],1,,,,,,,,2018_May_12_1415,59.8564183962,sequenceLearningTask,001,096,
min1.png,min2.png,min3.png,min4.png,images/allBlank.png,images/min4.png,'num_0',"['num_7', 'num_4', 'num_1', 'num_0']",['num_0'],num_0,,,,,0,9,9,9,13,3,55,3,,,,,,,,,,,,,['num_0'],,0.0491388111841,1,['num_0'],0,[0.6602043157909065],1,,,,,,,,2018_May_12_1415,59.8564183962,sequenceLearningTask,001,096,
min1.png,min2.png,min3.png,min4.png,images/allBlank.png,images/min1.png,'num_7',"['num_7', 'num_4', 'num_1', 'num_0']",['num_7'],num_7,,,,,0,9,9,9,14,0,56,0,,,,,,,,,,,,,['num_7'],,0.0524561405182,1,['num_7'],0,[1.1412482364103198],1,,,,,,,,2018_May_12_1415,59.8564183962,sequenceLearningTask,001,096,
min1.png,min2.png,min3.png,min4.png,images/allBlank.png,images/min3.png,'num_1',"['num_7', 'num_4', 'num_1', 'num_0']",['num_1'],num_1,,,,,0,9,9,9,14,1,57,2,,,,,,,,,,,,,['num_1'],,0.0571568526793,0,"['num_4', 'num_1']",0,"[1.0179388497490436, 2.134482706198469]",0,,,,,,,,2018_May_12_1415,59.8564183962,sequenceLearningTask,001,096,
min1.png,min2.png,min3.png,min4.png,images/allBlank.png,images/min4.png,'num_0',"['num_7', 'num_4', 'num_1', 'num_0']",['num_0'],num_0,,,,,0,9,9,9,14,2,58,3,,,,,,,,,,,,,['num_0'],,0.0543831125833,1,['num_0'],0,[0.7218116244766861],1,,,,,,,,2018_May_12_1415,59.8564183962,sequenceLearningTask,001,096,
min1.png,min2.png,min3.png,min4.png,images/allBlank.png,images/min2.png,'num_4',"['num_7', 'num_4', 'num_1', 'num_0']",['num_4'],num_4,,,,,0,9,9,9,14,3,59,1,,,,,,,,,,,,,['num_4'],,0.0602977720555,1,['num_4'],0,[0.8949186934623867],1,,,,,,,,2018_May_12_1415,59.8564183962,sequenceLearningTask,001,096,
min1.png,min2.png,min3.png,min4.png,images/allBlank.png,images/min2.png,'num_4',"['num_7', 'num_4', 'num_1', 'num_0']",['num_4'],num_4,,,,,0,9,9,9,15,0,60,1,,,,,,,,,,,,,['num_4'],,0.050760142738,1,['num_4'],0,[0.82532370230183],1,,,,,,,,2018_May_12_1415,59.8564183962,sequenceLearningTask,001,096,
min1.png,min2.png,min3.png,min4.png,images/allBlank.png,images/min1.png,'num_7',"['num_7', 'num_4', 'num_1', 'num_0']",['num_7'],num_7,,,,,0,9,9,9,15,1,61,0,,,,,,,,,,,,,['num_7'],,0.0589640301187,0,"['num_4', 'num_7']",0,"[0.5331858054269105, 1.248805847717449]",0,,,,,,,,2018_May_12_1415,59.8564183962,sequenceLearningTask,001,096,
min1.png,min2.png,min3.png,min4.png,images/allBlank.png,images/min3.png,'num_1',"['num_7', 'num_4', 'num_1', 'num_0']",['num_1'],num_1,,,,,0,9,9,9,15,2,62,2,,,,,,,,,,,,,['num_1'],,0.0527933707926,0,"['num_4', 'num_1']",0,"[1.1401442377828062, 1.190236483933404]",0,,,,,,,,2018_May_12_1415,59.8564183962,sequenceLearningTask,001,096,
min1.png,min2.png,min3.png,min4.png,images/allBlank.png,images/min4.png,'num_0',"['num_7', 'num_4', 'num_1', 'num_0']",['num_0'],num_0,,,,,0,9,9,9,15,3,63,3,,,,,,,,,,,,,['num_0'],,0.0513004497625,1,['num_0'],0,[0.8572608935646713],1,,,,,,,,2018_May_12_1415,59.8564183962,sequenceLearningTask,001,096,
min1.png,min2.png,min3.png,min4.png,images/allBlank.png,images/min4.png,'num_0',"['num_7', 'num_4', 'num_1', 'num_0']",['num_0'],num_0,,,,,0,9,9,9,16,0,64,3,,,,,,,,,,,,,['num_0'],,0.0482280431315,1,['num_0'],0,[1.0447252783924341],1,,,,,,,,2018_May_12_1415,59.8564183962,sequenceLearningTask,001,096,
min1.png,min2.png,min3.png,min4.png,images/allBlank.png,images/min3.png,'num_1',"['num_7', 'num_4', 'num_1', 'num_0']",['num_1'],num_1,,,,,0,9,9,9,16,1,65,2,,,,,,,,,,,,,['num_1'],,0.0536302931141,0,"['num_0', 'num_1']",0,"[0.5216194605454803, 1.2219410601537675]",0,,,,,,,,2018_May_12_1415,59.8564183962,sequenceLearningTask,001,096,
min1.png,min2.png,min3.png,min4.png,images/allBlank.png,images/min1.png,'num_7',"['num_7', 'num_4', 'num_1', 'num_0']",['num_7'],num_7,,,,,0,9,9,9,16,2,66,0,,,,,,,,,,,,,['num_7'],,0.0507502965629,1,['num_7'],0,[0.957922923611477],1,,,,,,,,2018_May_12_1415,59.8564183962,sequenceLearningTask,001,096,
min1.png,min2.png,min3.png,min4.png,images/allBlank.png,images/min2.png,'num_4',"['num_7', 'num_4', 'num_1', 'num_0']",['num_4'],num_4,,,,,0,9,9,9,16,3,67,1,,,,,,,,,,,,,['num_4'],,0.054013882298,1,['num_4'],0,[0.5547357276082039],1,,,,,,,,2018_May_12_1415,59.8564183962,sequenceLearningTask,001,096,
min1.png,min2.png,min3.png,min4.png,images/allBlank.png,images/min1.png,'num_7',"['num_7', 'num_4', 'num_1', 'num_0']",['num_7'],num_7,,,,,0,9,9,9,17,0,68,0,,,,,,,,,,,,,['num_7'],,0.052181269275,1,['num_7'],0,[1.2075907189864665],1,,,,,,,,2018_May_12_1415,59.8564183962,sequenceLearningTask,001,096,
min1.png,min2.png,min3.png,min4.png,images/allBlank.png,images/min4.png,'num_0',"['num_7', 'num_4', 'num_1', 'num_0']",['num_0'],num_0,,,,,0,9,9,9,17,1,69,3,,,,,,,,,,,,,['num_0'],,0.0537324466277,1,['num_0'],0,[1.0060443002730608],1,,,,,,,,2018_May_12_1415,59.8564183962,sequenceLearningTask,001,096,
min1.png,min2.png,min3.png,min4.png,images/allBlank.png,images/min3.png,'num_1',"['num_7', 'num_4', 'num_1', 'num_0']",['num_1'],num_1,,,,,0,9,9,9,17,2,70,2,,,,,,,,,,,,,['num_1'],,0.0506165530533,0,"['num_4', 'num_1']",0,"[0.6584451382514089, 1.1417458767537028]",0,,,,,,,,2018_May_12_1415,59.8564183962,sequenceLearningTask,001,096,
min1.png,min2.png,min3.png,min4.png,images/allBlank.png,images/min2.png,'num_4',"['num_7', 'num_4', 'num_1', 'num_0']",['num_4'],num_4,,,,,0,9,9,9,17,3,71,1,,,,,,,,,,,,,['num_4'],,0.053039934719,0,"['num_7', 'num_4', 'num_7', 'num_4']",0,"[0.7906558474060148, 1.4236007095314562, 2.171781121985987]",0,,,,,,,,2018_May_12_1415,59.8564183962,sequenceLearningTask,001,096,
min1.png,min2.png,min3.png,min4.png,images/allBlank.png,images/min2.png,'num_4',"['num_7', 'num_4', 'num_1', 'num_0']",['num_4'],num_4,,,,,0,9,9,9,18,0,72,1,,,,,,,,,,,,,['num_4'],,0.0521410638466,0,"['num_7', 'num_7', 'num_7', 'num_4', 'num_4']",0,"[1.139809468993917, 1.6238105143420398, 2.225344953360036, 2.9071558066643775]",0,,,,,,,,2018_May_12_1415,59.8564183962,sequenceLearningTask,001,096,
min1.png,min2.png,min3.png,min4.png,images/allBlank.png,images/min4.png,'num_0',"['num_7', 'num_4', 'num_1', 'num_0']",['num_0'],num_0,,,,,0,9,9,9,18,1,73,3,,,,,,,,,,,,,['num_0'],,0.057645057328,0,"['num_4', 'num_4', 'num_0']",0,"[0.00021620490588247776, 0.33428471675142646, 2.035186828346923]",0,,,,,,,,2018_May_12_1415,59.8564183962,sequenceLearningTask,001,096,
min1.png,min2.png,min3.png,min4.png,images/allBlank.png,images/min3.png,'num_1',"['num_7', 'num_4', 'num_1', 'num_0']",['num_1'],num_1,,,,,0,9,9,9,18,2,74,2,,,,,,,,,,,,,['num_1'],,0.0513886548579,0,"['num_1', 'num_1']",0,"[0.000502563314512372, 0.9738757244776934]",0,,,,,,,,2018_May_12_1415,59.8564183962,sequenceLearningTask,001,096,
min1.png,min2.png,min3.png,min4.png,images/allBlank.png,images/min1.png,'num_7',"['num_7', 'num_4', 'num_1', 'num_0']",['num_7'],num_7,,,,,0,9,9,9,18,3,75,0,,,,,,,,,,,,,['num_7'],,0.0495109134354,1,['num_7'],0,[1.1610783659853041],1,,,,,,,,2018_May_12_1415,59.8564183962,sequenceLearningTask,001,096,
min1.png,min2.png,min3.png,min4.png,images/allBlank.png,images/min4.png,'num_0',"['num_7', 'num_4', 'num_1', 'num_0']",['num_0'],num_0,,,,,0,9,9,9,19,0,76,3,,,,,,,,,,,,,['num_0'],,0.0582235180773,1,['num_0'],0,[1.466952450806275],1,,,,,,,,2018_May_12_1415,59.8564183962,sequenceLearningTask,001,096,
min1.png,min2.png,min3.png,min4.png,images/allBlank.png,images/min3.png,'num_1',"['num_7', 'num_4', 'num_1', 'num_0']",['num_1'],num_1,,,,,0,9,9,9,19,1,77,2,,,,,,,,,,,,,['num_1'],,0.0488811705727,0,"['num_4', 'num_1']",0,"[0.8779176888056099, 1.4945212374441326]",0,,,,,,,,2018_May_12_1415,59.8564183962,sequenceLearningTask,001,096,
min1.png,min2.png,min3.png,min4.png,images/allBlank.png,images/min1.png,'num_7',"['num_7', 'num_4', 'num_1', 'num_0']",['num_7'],num_7,,,,,0,9,9,9,19,2,78,0,,,,,,,,,,,,,['num_7'],,0.0560926489998,0,"['num_0', 'num_7']",0,"[1.01903423294425, 2.184711157111451]",0,,,,,,,,2018_May_12_1415,59.8564183962,sequenceLearningTask,001,096,
min1.png,min2.png,min3.png,min4.png,images/allBlank.png,images/min2.png,'num_4',"['num_7', 'num_4', 'num_1', 'num_0']",['num_4'],num_4,,,,,0,9,9,9,19,3,79,1,,,,,,,,,,,,,['num_4'],,0.0508200400509,1,['num_4'],0,[0.8076630057767034],1,,,,,,,,2018_May_12_1415,59.8564183962,sequenceLearningTask,001,096,
min1.png,min2.png,min3.png,min4.png,allBlank.png,,,,['num_7'],,,,,,0,0,0,0,,,,,,,,,,,,,,,,,['num_7'],1,0.0468040448613,1,['num_7'],0,[0.7929902034811676],,,,,,,,,2018_May_12_1415,59.8564183962,sequenceLearningTask,001,096,
min1.png,min2.png,min3.png,min4.png,allBlank.png,,,,['num_1'],,,,,,0,0,0,0,,,,,,,,,,,,,,,,,['num_1'],1,0.054479933111,1,['num_1'],0,[0.9703372672665864],,,,,,,,,2018_May_12_1415,59.8564183962,sequenceLearningTask,001,096,
min1.png,min2.png,min3.png,min4.png,allBlank.png,,,,['num_4'],,,,,,0,0,0,0,,,,,,,,,,,,,,,,,['num_4'],1,0.0508327579591,1,['num_4'],0,[0.977618899429217],,,,,,,,,2018_May_12_1415,59.8564183962,sequenceLearningTask,001,096,
min1.png,min2.png,min3.png,min4.png,allBlank.png,,,,['num_0'],,,,,,0,0,0,0,,,,,,,,,,,,,,,,,['num_0'],1,0.0503416815773,1,['num_0'],0,[0.7268881311174482],,,,,,,,,2018_May_12_1415,59.8564183962,sequenceLearningTask,001,096,
min1.png,min2.png,min3.png,min4.png,allBlank.png,,,,['num_0'],,,,,,0,0,0,0,,,,,,,,,,,,,,,,,['num_0'],1,0.0533061907627,1,['num_0'],0,[4.2576944520697],,,,,,,,,2018_May_12_1415,59.8564183962,sequenceLearningTask,001,096,
min1.png,min2.png,min3.png,min4.png,allBlank.png,,,,['num_4'],,,,,,0,0,0,0,,,,,,,,,,,,,,,,,['num_4'],1,0.0572475192603,0,"['num_7', 'num_4']",0,"[0.9551532859914005, 1.7539256361778826]",,,,,,,,,2018_May_12_1415,59.8564183962,sequenceLearningTask,001,096,
min1.png,min2.png,min3.png,min4.png,allBlank.png,,,,['num_1'],,,,,,0,0,0,0,,,,,,,,,,,,,,,,,['num_1'],1,0.0577644417062,1,['num_1'],0,[1.3697644679341465],,,,,,,,,2018_May_12_1415,59.8564183962,sequenceLearningTask,001,096,
min1.png,min2.png,min3.png,min4.png,allBlank.png,,,,['num_0'],,,,,,0,0,0,0,,,,,,,,,,,,,,,,,['num_0'],1,0.0524688584264,1,['num_0'],0,[1.0423449736554176],,,,,,,,,2018_May_12_1415,59.8564183962,sequenceLearningTask,001,096,
min1.png,min2.png,min3.png,min4.png,allBlank.png,,,,['num_7'],,,,,,0,1,1,1,,,,,,,,,,,,,,,,,['num_7'],2,0.0589283378795,1,['num_7'],0,[3.0507137838285416],,,,,,,,,2018_May_12_1415,59.8564183962,sequenceLearningTask,001,096,
min1.png,min2.png,min3.png,min4.png,allBlank.png,,,,['num_1'],,,,,,0,1,1,1,,,,,,,,,,,,,,,,,['num_1'],2,0.0537841389887,1,['num_1'],0,[4.17315260739997],,,,,,,,,2018_May_12_1415,59.8564183962,sequenceLearningTask,001,096,
min1.png,min2.png,min3.png,min4.png,allBlank.png,,,,['num_4'],,,,,,0,1,1,1,,,,,,,,,,,,,,,,,['num_4'],2,0.0557340853848,0,"['num_7', 'num_7', 'num_4']",0,"[1.188943357206881, 2.338144404347986, 2.572146577993408]",,,,,,,,,2018_May_12_1415,59.8564183962,sequenceLearningTask,001,096,
min1.png,min2.png,min3.png,min4.png,allBlank.png,,,,['num_0'],,,,,,0,1,1,1,,,,,,,,,,,,,,,,,['num_0'],2,0.0514789109584,0,"['num_4', 'num_4', 'num_4', 'num_4', 'num_4', 'num_1', 'num_1', 'num_0']",0,"[0.0005185634363442659, 0.15896759927272797, 0.3766469210386276, 0.642669978318736, 1.0597152085974813, 1.342846347251907, 1.3594375064130872]",,,,,,,,,2018_May_12_1415,59.8564183962,sequenceLearningTask,001,096,
min1.png,min2.png,min3.png,min4.png,allBlank.png,,,,['num_0'],,,,,,0,1,1,1,,,,,,,,,,,,,,,,,['num_0'],2,0.0530202423688,0,"['num_1', 'num_0', 'num_0']",0,"[0.0003158971667289734, 1.0742694470100105]",,,,,,,,,2018_May_12_1415,59.8564183962,sequenceLearningTask,001,096,
min1.png,min2.png,min3.png,min4.png,allBlank.png,,,,['num_4'],,,,,,0,1,1,1,,,,,,,,,,,,,,,,,['num_4'],2,0.0599584903102,1,['num_4'],0,[2.550207732943818],,,,,,,,,2018_May_12_1415,59.8564183962,sequenceLearningTask,001,096,
min1.png,min2.png,min3.png,min4.png,allBlank.png,,,,['num_1'],,,,,,0,1,1,1,,,,,,,,,,,,,,,,,['num_1'],2,0.0491769651417,1,['num_1'],0,[6.278368888190016],,,,,,,,,2018_May_12_1415,59.8564183962,sequenceLearningTask,001,096,
min1.png,min2.png,min3.png,min4.png,allBlank.png,,,,['num_0'],,,,,,0,1,1,1,,,,,,,,,,,,,,,,,['num_0'],2,0.051356654847,1,['num_0'],0,[0.8425601937342435],,,,,,,,,2018_May_12_1415,59.8564183962,sequenceLearningTask,001,096,
min1.png,min2.png,min3.png,min4.png,allBlank.png,,,,['num_7'],,,,,,0,2,2,2,,,,,,,,,,,,,,,,,['num_7'],3,0.0537344978657,1,['num_7'],0,[1.6727080952841789],,,,,,,,,2018_May_12_1415,59.8564183962,sequenceLearningTask,001,096,
min1.png,min2.png,min3.png,min4.png,allBlank.png,,,,['num_1'],,,,,,0,2,2,2,,,,,,,,,,,,,,,,,['num_1'],3,0.0586793122347,1,['num_1'],0,[1.2518593822605908],,,,,,,,,2018_May_12_1415,59.8564183962,sequenceLearningTask,001,096,
min1.png,min2.png,min3.png,min4.png,allBlank.png,,,,['num_4'],,,,,,0,2,2,2,,,,,,,,,,,,,,,,,['num_4'],3,0.0509874243289,1,['num_4'],0,[4.393809566739947],,,,,,,,,2018_May_12_1415,59.8564183962,sequenceLearningTask,001,096,
min1.png,min2.png,min3.png,min4.png,allBlank.png,,,,['num_0'],,,,,,0,2,2,2,,,,,,,,,,,,,,,,,['num_0'],3,0.0512339882553,0,"['num_4', 'num_0']",0,"[0.00032164063304662704, 1.4270259358454496]",,,,,,,,,2018_May_12_1415,59.8564183962,sequenceLearningTask,001,096,
min1.png,min2.png,min3.png,min4.png,allBlank.png,,,,['num_0'],,,,,,0,2,2,2,,,,,,,,,,,,,,,,,['num_0'],3,0.059580234345,0,"['num_1', 'num_0']",0,"[1.7530846116133034, 2.3678842650260776]",,,,,,,,,2018_May_12_1415,59.8564183962,sequenceLearningTask,001,096,
min1.png,min2.png,min3.png,min4.png,allBlank.png,,,,['num_4'],,,,,,0,2,2,2,,,,,,,,,,,,,,,,,['num_4'],3,0.0506862965412,1,['num_4'],0,[1.4106608277652413],,,,,,,,,2018_May_12_1415,59.8564183962,sequenceLearningTask,001,096,
min1.png,min2.png,min3.png,min4.png,allBlank.png,,,,['num_1'],,,,,,0,2,2,2,,,,,,,,,,,,,,,,,['num_1'],3,0.057238903828,1,['num_1'],0,[0.7711604868527502],,,,,,,,,2018_May_12_1415,59.8564183962,sequenceLearningTask,001,096,
min1.png,min2.png,min3.png,min4.png,allBlank.png,,,,['num_0'],,,,,,0,2,2,2,,,,,,,,,,,,,,,,,['num_0'],3,0.0379408763256,1,['num_0'],0,[0.8073988012038171],,,,,,,,,2018_May_12_1415,59.8564183962,sequenceLearningTask,001,096,
min1.png,min2.png,min3.png,min4.png,allBlank.png,,,,['num_7'],,,,,,0,3,3,3,,,,,,,,,,,,,,,,,['num_7'],4,0.0524778841063,1,['num_7'],0,[1.407846472458914],,,,,,,,,2018_May_12_1415,59.8564183962,sequenceLearningTask,001,096,
min1.png,min2.png,min3.png,min4.png,allBlank.png,,,,['num_1'],,,,,,0,3,3,3,,,,,,,,,,,,,,,,,['num_1'],4,0.0577513135504,0,"['num_4', 'num_1']",0,"[0.7190140895545483, 1.3191626842599362]",,,,,,,,,2018_May_12_1415,59.8564183962,sequenceLearningTask,001,096,
min1.png,min2.png,min3.png,min4.png,allBlank.png,,,,['num_4'],,,,,,0,3,3,3,,,,,,,,,,,,,,,,,['num_4'],4,0.0609262839425,1,['num_4'],0,[1.0508069118950516],,,,,,,,,2018_May_12_1415,59.8564183962,sequenceLearningTask,001,096,
min1.png,min2.png,min3.png,min4.png,allBlank.png,,,,['num_0'],,,,,,0,3,3,3,,,,,,,,,,,,,,,,,['num_0'],4,0.0520696796011,1,['num_0'],0,[0.7244085443671793],,,,,,,,,2018_May_12_1415,59.8564183962,sequenceLearningTask,001,096,
min1.png,min2.png,min3.png,min4.png,allBlank.png,,,,['num_0'],,,,,,0,3,3,3,,,,,,,,,,,,,,,,,['num_0'],4,0.0521607561968,1,['num_0'],0,[0.8594910446554422],,,,,,,,,2018_May_12_1415,59.8564183962,sequenceLearningTask,001,096,
min1.png,min2.png,min3.png,min4.png,allBlank.png,,,,['num_4'],,,,,,0,3,3,3,,,,,,,,,,,,,,,,,['num_4'],4,0.0534994213376,1,['num_4'],0,[0.7730328945908695],,,,,,,,,2018_May_12_1415,59.8564183962,sequenceLearningTask,001,096,
min1.png,min2.png,min3.png,min4.png,allBlank.png,,,,['num_1'],,,,,,0,3,3,3,,,,,,,,,,,,,,,,,['num_1'],4,0.0557574697305,1,['num_1'],0,[0.9239081961568445],,,,,,,,,2018_May_12_1415,59.8564183962,sequenceLearningTask,001,096,
min1.png,min2.png,min3.png,min4.png,allBlank.png,,,,['num_0'],,,,,,0,3,3,3,,,,,,,,,,,,,,,,,['num_0'],4,0.0520516282413,1,['num_0'],0,[0.8423222454730421],,,,,,,,,2018_May_12_1415,59.8564183962,sequenceLearningTask,001,096,
min1.png,min2.png,min3.png,min4.png,allBlank.png,,,,['num_7'],,,,,,0,4,4,4,,,,,,,,,,,,,,,,,['num_7'],5,0.0539367541205,1,['num_7'],0,[0.7887321575544775],,,,,,,,,2018_May_12_1415,59.8564183962,sequenceLearningTask,001,096,
min1.png,min2.png,min3.png,min4.png,allBlank.png,,,,['num_1'],,,,,,0,4,4,4,,,,,,,,,,,,,,,,,['num_1'],5,0.0560602387413,1,['num_1'],0,[0.754810968413949],,,,,,,,,2018_May_12_1415,59.8564183962,sequenceLearningTask,001,096,
min1.png,min2.png,min3.png,min4.png,allBlank.png,,,,['num_4'],,,,,,0,4,4,4,,,,,,,,,,,,,,,,,['num_4'],5,0.0570206476841,1,['num_4'],0,[0.7203072160482407],,,,,,,,,2018_May_12_1415,59.8564183962,sequenceLearningTask,001,096,
min1.png,min2.png,min3.png,min4.png,allBlank.png,,,,['num_0'],,,,,,0,4,4,4,,,,,,,,,,,,,,,,,['num_0'],5,0.0499400410336,0,"['num_1', 'num_1', 'num_1', 'num_0', 'num_0']",0,"[0.7453402108512819, 1.4282944472506642, 2.1128876558505, 2.511810652213171]",,,,,,,,,2018_May_12_1415,59.8564183962,sequenceLearningTask,001,096,
min1.png,min2.png,min3.png,min4.png,allBlank.png,,,,['num_0'],,,,,,0,4,4,4,,,,,,,,,,,,,,,,,['num_0'],5,0.0707149899099,1,['num_0'],0,[0.7209632152225822],,,,,,,,,2018_May_12_1415,59.8564183962,sequenceLearningTask,001,096,
min1.png,min2.png,min3.png,min4.png,allBlank.png,,,,['num_4'],,,,,,0,4,4,4,,,,,,,,,,,,,,,,,['num_4'],5,0.054017984774,1,['num_4'],0,[0.9233186584897339],,,,,,,,,2018_May_12_1415,59.8564183962,sequenceLearningTask,001,096,
min1.png,min2.png,min3.png,min4.png,allBlank.png,,,,['num_1'],,,,,,0,4,4,4,,,,,,,,,,,,,,,,,['num_1'],5,0.0624471025076,0,"['num_0', 'num_1']",0,"[1.048115222947672, 1.081539592007175]",,,,,,,,,2018_May_12_1415,59.8564183962,sequenceLearningTask,001,096,
min1.png,min2.png,min3.png,min4.png,allBlank.png,,,,['num_0'],,,,,,0,4,4,4,,,,,,,,,,,,,,,,,['num_0'],5,0.0595277214888,1,['num_0'],0,[0.8511632601730525],,,,,,,,,2018_May_12_1415,59.8564183962,sequenceLearningTask,001,096,
min1.png,min2.png,min3.png,min4.png,allBlank.png,,,,['num_7'],,,,,,0,5,5,5,,,,,,,,,,,,,,,,,['num_7'],6,0.0552196244244,1,['num_7'],0,[1.7542013281490654],,,,,,,,,2018_May_12_1415,59.8564183962,sequenceLearningTask,001,096,
min1.png,min2.png,min3.png,min4.png,allBlank.png,,,,['num_1'],,,,,,0,5,5,5,,,,,,,,,,,,,,,,,['num_1'],6,0.0541792153381,0,"['num_7', 'num_1']",0,"[0.0003236921038478613, 2.3899088534526527]",,,,,,,,,2018_May_12_1415,59.8564183962,sequenceLearningTask,001,096,
min1.png,min2.png,min3.png,min4.png,allBlank.png,,,,['num_4'],,,,,,0,5,5,5,,,,,,,,,,,,,,,,,['num_4'],6,0.0508586040232,1,['num_4'],0,[3.661567185772583],,,,,,,,,2018_May_12_1415,59.8564183962,sequenceLearningTask,001,096,
min1.png,min2.png,min3.png,min4.png,allBlank.png,,,,['num_0'],,,,,,0,5,5,5,,,,,,,,,,,,,,,,,['num_0'],6,0.0560754181352,1,['num_0'],0,[0.9887257574591786],,,,,,,,,2018_May_12_1415,59.8564183962,sequenceLearningTask,001,096,
min1.png,min2.png,min3.png,min4.png,allBlank.png,,,,['num_0'],,,,,,0,5,5,5,,,,,,,,,,,,,,,,,['num_0'],6,0.0596364394296,1,['num_0'],0,[0.783366420539096],,,,,,,,,2018_May_12_1415,59.8564183962,sequenceLearningTask,001,096,
min1.png,min2.png,min3.png,min4.png,allBlank.png,,,,['num_4'],,,,,,0,5,5,5,,,,,,,,,,,,,,,,,['num_4'],6,0.0488007604145,1,['num_4'],0,[0.9965435939375311],,,,,,,,,2018_May_12_1415,59.8564183962,sequenceLearningTask,001,096,
min1.png,min2.png,min3.png,min4.png,allBlank.png,,,,['num_1'],,,,,,0,5,5,5,,,,,,,,,,,,,,,,,['num_1'],6,0.0560881360434,1,['num_1'],0,[0.9040813487954438],,,,,,,,,2018_May_12_1415,59.8564183962,sequenceLearningTask,001,096,
min1.png,min2.png,min3.png,min4.png,allBlank.png,,,,['num_0'],,,,,,0,5,5,5,,,,,,,,,,,,,,,,,['num_0'],6,0.0525845508091,1,['num_0'],0,[0.5255550455767661],,,,,,,,,2018_May_12_1415,59.8564183962,sequenceLearningTask,001,096,
min1.png,min2.png,min3.png,min4.png,allBlank.png,,,,['num_7'],,,,,,0,6,6,6,,,,,,,,,,,,,,,,,['num_7'],7,0.0526977812406,1,['num_7'],0,[2.7396048333030194],,,,,,,,,2018_May_12_1415,59.8564183962,sequenceLearningTask,001,096,
min1.png,min2.png,min3.png,min4.png,allBlank.png,,,,['num_1'],,,,,,0,6,6,6,,,,,,,,,,,,,,,,,['num_1'],7,0.0566325455438,0,"['num_4', 'num_1', 'num_4', 'num_1']",0,"[0.9547417992725968, 1.521362230181694, 2.338612096151337]",,,,,,,,,2018_May_12_1415,59.8564183962,sequenceLearningTask,001,096,
min1.png,min2.png,min3.png,min4.png,allBlank.png,,,,['num_4'],,,,,,0,6,6,6,,,,,,,,,,,,,,,,,['num_4'],7,0.0567962378263,1,['num_4'],0,[1.2387537574395537],,,,,,,,,2018_May_12_1415,59.8564183962,sequenceLearningTask,001,096,
min1.png,min2.png,min3.png,min4.png,allBlank.png,,,,['num_0'],,,,,,0,6,6,6,,,,,,,,,,,,,,,,,['num_0'],7,0.0469103010837,1,['num_0'],0,[0.9977628744672984],,,,,,,,,2018_May_12_1415,59.8564183962,sequenceLearningTask,001,096,
min1.png,min2.png,min3.png,min4.png,allBlank.png,,,,['num_0'],,,,,,0,6,6,6,,,,,,,,,,,,,,,,,['num_0'],7,0.0711539636832,1,['num_0'],0,[1.623343232786283],,,,,,,,,2018_May_12_1415,59.8564183962,sequenceLearningTask,001,096,
min1.png,min2.png,min3.png,min4.png,allBlank.png,,,,['num_4'],,,,,,0,6,6,6,,,,,,,,,,,,,,,,,['num_4'],7,0.0551277268678,1,['num_4'],0,[0.955442926613614],,,,,,,,,2018_May_12_1415,59.8564183962,sequenceLearningTask,001,096,
min1.png,min2.png,min3.png,min4.png,allBlank.png,,,,['num_1'],,,,,,0,6,6,6,,,,,,,,,,,,,,,,,['num_1'],7,0.0503609636799,1,['num_1'],0,[0.944757811492309],,,,,,,,,2018_May_12_1415,59.8564183962,sequenceLearningTask,001,096,
min1.png,min2.png,min3.png,min4.png,allBlank.png,,,,['num_0'],,,,,,0,6,6,6,,,,,,,,,,,,,,,,,['num_0'],7,0.06196259032,1,['num_0'],0,[0.9144538487307727],,,,,,,,,2018_May_12_1415,59.8564183962,sequenceLearningTask,001,096,
min1.png,min2.png,min3.png,min4.png,allBlank.png,,,,['num_7'],,,,,,0,7,7,7,,,,,,,,,,,,,,,,,['num_7'],8,0.0546928558033,0,"['num_0', 'num_7']",0,"[2.3889193162322044, 3.0545008562039584]",,,,,,,,,2018_May_12_1415,59.8564183962,sequenceLearningTask,001,096,
min1.png,min2.png,min3.png,min4.png,allBlank.png,,,,['num_1'],,,,,,0,7,7,7,,,,,,,,,,,,,,,,,['num_1'],8,0.0503543997183,1,['num_1'],0,[3.177417627768591],,,,,,,,,2018_May_12_1415,59.8564183962,sequenceLearningTask,001,096,
min1.png,min2.png,min3.png,min4.png,allBlank.png,,,,['num_4'],,,,,,0,7,7,7,,,,,,,,,,,,,,,,,['num_4'],8,0.0595244397409,1,['num_4'],0,[1.7171027071308345],,,,,,,,,2018_May_12_1415,59.8564183962,sequenceLearningTask,001,096,
min1.png,min2.png,min3.png,min4.png,allBlank.png,,,,['num_0'],,,,,,0,7,7,7,,,,,,,,,,,,,,,,,['num_0'],8,0.0551211631391,1,['num_0'],0,[0.7720400753896683],,,,,,,,,2018_May_12_1415,59.8564183962,sequenceLearningTask,001,096,
min1.png,min2.png,min3.png,min4.png,allBlank.png,,,,['num_0'],,,,,,0,7,7,7,,,,,,,,,,,,,,,,,['num_0'],8,0.0508520400617,1,['num_0'],0,[1.1101746335625648],,,,,,,,,2018_May_12_1415,59.8564183962,sequenceLearningTask,001,096,
min1.png,min2.png,min3.png,min4.png,allBlank.png,,,,['num_4'],,,,,,0,7,7,7,,,,,,,,,,,,,,,,,['num_4'],8,0.0555297778919,0,"['num_7', 'num_4']",0,"[0.7891374903265387, 1.5229088950436562]",,,,,,,,,2018_May_12_1415,59.8564183962,sequenceLearningTask,001,096,
min1.png,min2.png,min3.png,min4.png,allBlank.png,,,,['num_1'],,,,,,0,7,7,7,,,,,,,,,,,,,,,,,['num_1'],8,0.0508688604459,1,['num_1'],0,[0.6274055866524577],,,,,,,,,2018_May_12_1415,59.8564183962,sequenceLearningTask,001,096,
min1.png,min2.png,min3.png,min4.png,allBlank.png,,,,['num_0'],,,,,,0,7,7,7,,,,,,,,,,,,,,,,,['num_0'],8,0.0592064913362,1,['num_0'],0,[0.5326758571900427],,,,,,,,,2018_May_12_1415,59.8564183962,sequenceLearningTask,001,096,
min1.png,min2.png,min3.png,min4.png,allBlank.png,,,,['num_7'],,,,,,0,8,8,8,,,,,,,,,,,,,,,,,['num_7'],9,0.0481603508815,1,['num_7'],0,[0.29528661095537245],,,,,,,,,2018_May_12_1415,59.8564183962,sequenceLearningTask,001,096,
min1.png,min2.png,min3.png,min4.png,allBlank.png,,,,['num_1'],,,,,,0,8,8,8,,,,,,,,,,,,,,,,,['num_1'],9,0.0594981831964,1,['num_1'],0,[0.6007204914931208],,,,,,,,,2018_May_12_1415,59.8564183962,sequenceLearningTask,001,096,
min1.png,min2.png,min3.png,min4.png,allBlank.png,,,,['num_4'],,,,,,0,8,8,8,,,,,,,,,,,,,,,,,['num_4'],9,0.058145159157,0,"['num_7', 'num_7', 'num_7', 'num_7', 'num_4']",0,"[0.5032678933348507, 1.2029080579522997, 1.4869692467618734, 1.7518062540329993, 1.986162068322301]",,,,,,,,,2018_May_12_1415,59.8564183962,sequenceLearningTask,001,096,
min1.png,min2.png,min3.png,min4.png,allBlank.png,,,,['num_0'],,,,,,0,8,8,8,,,,,,,,,,,,,,,,,['num_0'],9,0.0602522336412,1,['num_0'],0,[0.5326241650618613],,,,,,,,,2018_May_12_1415,59.8564183962,sequenceLearningTask,001,096,
min1.png,min2.png,min3.png,min4.png,allBlank.png,,,,['num_0'],,,,,,0,8,8,8,,,,,,,,,,,,,,,,,['num_0'],9,0.0510132706258,0,"['num_4', 'num_1', 'num_1', 'num_0', 'num_0']",0,"[0.2778540172148496, 0.6272238434758037, 0.8595131987240165]",,,,,,,,,2018_May_12_1415,59.8564183962,sequenceLearningTask,001,096,
min1.png,min2.png,min3.png,min4.png,allBlank.png,,,,['num_4'],,,,,,0,8,8,8,,,,,,,,,,,,,,,,,['num_4'],9,0.0496664003003,0,"['num_0', 'num_0', 'num_0', 'num_0', 'num_1', 'num_7', 'num_4']",0,"[0.0003409227356314659, 0.1285188163165003, 0.34479013993404806, 0.5948329090606421, 0.6102433516643941, 0.9783635139465332]",,,,,,,,,2018_May_12_1415,59.8564183962,sequenceLearningTask,001,096,
min1.png,min2.png,min3.png,min4.png,allBlank.png,,,,['num_1'],,,,,,0,8,8,8,,,,,,,,,,,,,,,,,['num_1'],9,0.0500015795697,0,"['num_4', 'num_1']",0,"[0.00032574310898780823, 0.19408714585006237]",,,,,,,,,2018_May_12_1415,59.8564183962,sequenceLearningTask,001,096,
min1.png,min2.png,min3.png,min4.png,allBlank.png,,,,['num_0'],,,,,,0,8,8,8,,,,,,,,,,,,,,,,,['num_0'],9,0.0593783883378,0,"['num_1', 'num_1', 'num_4', 'num_1', 'num_0']",0,"[0.00029702531173825264, 0.0508069118950516, 0.11774918832816184, 0.35102890129201114, 0.5674811475910246]",,,,,,,,,2018_May_12_1415,59.8564183962,sequenceLearningTask,001,096,
min1.png,min2.png,min3.png,min4.png,allBlank.png,,,,['num_7'],,,,,,0,9,9,9,,,,,,,,,,,,,,,,,['num_7'],10,0.049152760068,0,"['num_0', 'num_1', 'num_7']",0,"[0.00031630718149244785, 0.25985650066286325, 0.3766325619071722]",,,,,,,,,2018_May_12_1415,59.8564183962,sequenceLearningTask,001,096,
min1.png,min2.png,min3.png,min4.png,allBlank.png,,,,['num_1'],,,,,,0,9,9,9,,,,,,,,,,,,,,,,,['num_1'],10,0.0540134720504,0,"['num_4', 'num_4', 'num_1']",0,"[0.00024615367874503136, 0.2390487315133214]",,,,,,,,,2018_May_12_1415,59.8564183962,sequenceLearningTask,001,096,
min1.png,min2.png,min3.png,min4.png,allBlank.png,,,,['num_4'],,,,,,0,9,9,9,,,,,,,,,,,,,,,,,['num_4'],10,0.05329593434,0,"['num_1', 'num_1', 'num_4']",0,"[0.0006789735052734613, 1.3568816119804978]",,,,,,,,,2018_May_12_1415,59.8564183962,sequenceLearningTask,001,096,
min1.png,min2.png,min3.png,min4.png,allBlank.png,,,,['num_0'],,,,,,0,9,9,9,,,,,,,,,,,,,,,,,['num_0'],10,0.0551892654039,1,['num_0'],0,[0.4732646483462304],,,,,,,,,2018_May_12_1415,59.8564183962,sequenceLearningTask,001,096,
min1.png,min2.png,min3.png,min4.png,allBlank.png,,,,['num_0'],,,,,,0,9,9,9,,,,,,,,,,,,,,,,,['num_0'],10,0.0592811577953,0,"['num_4', 'num_1', 'num_7', 'num_4', 'num_1', 'num_0']",0,"[0.00031753815710544586, 0.032207139767706394, 0.06798391626216471, 0.30134568037465215, 0.8843964498955756, 1.1839074660092592]",,,,,,,,,2018_May_12_1415,59.8564183962,sequenceLearningTask,001,096,
min1.png,min2.png,min3.png,min4.png,allBlank.png,,,,['num_4'],,,,,,0,9,9,9,,,,,,,,,,,,,,,,,['num_4'],10,0.0562370589469,0,"['num_0', 'num_0', 'num_7', 'num_1', 'num_0', 'num_1', 'num_1', 'num_4']",0,"[0.0003253328613936901, 0.10465669189579785, 0.35428961529396474, 0.4213787636253983, 0.6710957894101739, 0.9548948248848319, 1.0050166093278676]",,,,,,,,,2018_May_12_1415,59.8564183962,sequenceLearningTask,001,096,
min1.png,min2.png,min3.png,min4.png,allBlank.png,,,,['num_1'],,,,,,0,9,9,9,,,,,,,,,,,,,,,,,['num_1'],10,0.0550321373157,0,"['num_0', 'num_0', 'num_7', 'num_0', 'num_0', 'num_4', 'num_0', 'num_1']",0,"[0.0003212303854525089, 0.05556629062630236, 0.08873835229314864, 0.3552976141218096, 0.6553764243144542, 0.9560382079798728, 0.9722006495576352, 1.2224891621153802]",,,,,,,,,2018_May_12_1415,59.8564183962,sequenceLearningTask,001,096,
min1.png,min2.png,min3.png,min4.png,allBlank.png,,,,['num_0'],,,,,,0,9,9,9,,,,,,,,,,,,,,,,,['num_0'],10,0.0601607465651,0,"['num_4', 'num_4', 'num_0', 'num_1', 'num_4', 'num_1', 'num_0']",0,"[0.0002986663021147251, 0.0847658442799002, 0.3677316498942673]",,,,,,,,,2018_May_12_1415,59.8564183962,sequenceLearningTask,001,096,
min1.png,min2.png,min3.png,min4.png,allBlank.png,,,,,,,,,,0,9,9,9,,,,,0,-1,-1,0,,,,,,,,,,,,,,,,,,,,,,,,2018_May_12_1415,59.8564183962,sequenceLearningTask,001,096,
min1.png,min2.png,min3.png,min4.png,allBlank.png,,,,,,,,,,0,9,9,9,,,,,0,-1,-1,0,,,,,,,,,,,,,,,,,['1'],,,,,,,2018_May_12_1415,59.8564183962,sequenceLearningTask,001,096,
min1.png,min2.png,min3.png,min4.png,allBlank.png,,,,,,,,,,0,9,9,9,,,,,0,-1,-1,0,,,,,,,,,,,,,,,,,['1'],,,,,,,2018_May_12_1415,59.8564183962,sequenceLearningTask,001,096,
min1.png,min2.png,min3.png,min4.png,allBlank.png,,,,,,,,,,0,9,9,9,,,,,0,-1,-1,0,,,,,,,,,,,,,,,,,['1'],,,,,,,2018_May_12_1415,59.8564183962,sequenceLearningTask,001,096,
min1.png,min2.png,min3.png,min4.png,allBlank.png,,,,,,,,,,0,9,9,9,,,,,0,-1,-1,0,,,,,,,,,,,,,,,,,['1'],,,,,,,2018_May_12_1415,59.8564183962,sequenceLearningTask,001,096,
min1.png,min2.png,min3.png,min4.png,allBlank.png,,,,,,0,0,0,0,0,9,9,9,,,,,0,-1,-1,0,,,,,,,,,,,,,,,,,,return,6.77404745761,jback kazoo,"[1.5287907337769866, 2.1616785700898618, 4.2113306117244065, 4.561221052892506, 5.595906548667699, 5.89523705188185, 6.028297811280936]",,,2018_May_12_1415,59.8564183962,sequenceLearningTask,001,096,
min1.png,min2.png,min3.png,min4.png,allBlank.png,,,,['3'],,,,,,0,9,9,9,,,,,0,-1,-1,0,0,0,0,0,,,,,['3'],1,,0,,,,,,,,,,['2'],6.89876156044,2018_May_12_1415,59.8564183962,sequenceLearningTask,001,096,
min1.png,min2.png,min3.png,min4.png,allBlank.png,,,,['2'],,,,,,0,9,9,9,,,,,0,-1,-1,0,0,0,0,0,,,,,['2'],1,,0,,,,,,,,,,['4'],7.0153632632,2018_May_12_1415,59.8564183962,sequenceLearningTask,001,096,
min1.png,min2.png,min3.png,min4.png,allBlank.png,,,,['4'],,,,,,0,9,9,9,,,,,0,-1,-1,0,0,0,0,0,,,,,['4'],1,,1,,,,,,,,,,['4'],5.74972748756,2018_May_12_1415,59.8564183962,sequenceLearningTask,001,096,
min1.png,min2.png,min3.png,min4.png,allBlank.png,,,,['4'],,,,,,0,9,9,9,,,,,0,-1,-1,0,0,0,0,0,,,,,['4'],1,,0,,,,,,,,,,['1'],6.21507214545,2018_May_12_1415,59.8564183962,sequenceLearningTask,001,096,
min1.png,min2.png,min3.png,min4.png,allBlank.png,,,,['2'],,,,,,0,9,9,9,,,,,0,-1,-1,0,0,0,0,0,,,,,['2'],1,,1,,,,,,,,,,['2'],4.44909811392,2018_May_12_1415,59.8564183962,sequenceLearningTask,001,096,
min1.png,min2.png,min3.png,min4.png,allBlank.png,,,,['3'],,,,,,0,9,9,9,,,,,0,-1,-1,0,0,0,0,0,,,,,['3'],1,,1,,,,,,,,,,['3'],4.13330773334,2018_May_12_1415,59.8564183962,sequenceLearningTask,001,096,
min1.png,min2.png,min3.png,min4.png,allBlank.png,,,,['4'],,,,,,0,9,9,9,,,,,0,-1,-1,0,0,0,0,0,,,,,['4'],1,,1,,,,,,,,,,['4'],3.31588843162,2018_May_12_1415,59.8564183962,sequenceLearningTask,001,096,
min1.png,min2.png,min3.png,min4.png,allBlank.png,,,,['2'],,,,,,0,9,9,9,,,,,0,-1,-1,0,0,0,0,0,,,,,['2'],1,,0,,,,,,,,,,['1'],3.28209606302,2018_May_12_1415,59.8564183962,sequenceLearningTask,001,096,
min1.png,min2.png,min3.png,min4.png,allBlank.png,,,,['1'],,,,,,0,9,9,9,,,,,0,-1,-1,0,0,0,0,0,,,,,['1'],1,,0,,,,,,,,,,['4'],2.36590437009,2018_May_12_1415,59.8564183962,sequenceLearningTask,001,096,
min1.png,min2.png,min3.png,min4.png,allBlank.png,,,,['1'],,,,,,0,9,9,9,,,,,0,-1,-1,0,0,0,0,0,0,0,0,0,['1'],1,,1,,,,,,,,,,['1'],14.2165326567,2018_May_12_1415,59.8564183962,sequenceLearningTask,001,096,
min1.png,min2.png,min3.png,min4.png,allBlank.png,,,,['3'],,,,,,0,9,9,9,,,,,0,-1,-1,0,0,0,0,0,0,0,0,0,['3'],1,,0,,,,,,,,,,['2'],7.01276880479,2018_May_12_1415,59.8564183962,sequenceLearningTask,001,096,
