pawPatrol1,pawPatrol2,pawPatrol3,pawPatrol4,blank,allowableKey,correctKey,correctKeyPressNum,posLoc,correctKeyPress,randomPaw,im_size,trials.thisRepN,trials.thisTrialN,trials.thisN,trials.thisIndex,trials_3.thisRepN,trials_3.thisTrialN,trials_3.thisN,trials_3.thisIndex,trials_2.thisRepN,trials_2.thisTrialN,trials_2.thisN,trials_2.thisIndex,trials_questions.thisRepN,trials_questions.thisTrialN,trials_questions.thisN,trials_questions.thisIndex,correctLocation,correctImage,repetitionNumber,responseTimeIncorrect,trialIncorrect,stimulusPresent.t,responseTimeCorrect,pressLoc,anticipatoryResponse,date,frameRate,expName,session,participant,
min1.png,min2.png,min3.png,min4.png,allBlank.png,,,,,,,,,,,,0,0,0,0,,,,,,,,,"(-0.75, -0.04)",images/min1.png,1,0.0,1,0.0414974358864,0.0,[-0.47437775  0.1796875 ],1,2018_Jun_15_1634,60.1008955209,sequenceLearningTask,002,098,
min1.png,min2.png,min3.png,min4.png,allBlank.png,,,,,,,,,,,,0,0,0,0,,,,,,,,,"(0.25, -0.04)",images/min3.png,1,0.0,1,0.0727573335171,0.0,[-0.70863836  0.09635417],1,2018_Jun_15_1634,60.1008955209,sequenceLearningTask,002,098,
min1.png,min2.png,min3.png,min4.png,allBlank.png,,,,,,,,,,,,0,0,0,0,,,,,,,,,"(-0.25, -0.04)",images/min2.png,1,0.0,1,0.0594108719379,0.0,[ 0.25915081  0.02083333],1,2018_Jun_15_1634,60.1008955209,sequenceLearningTask,002,098,
min1.png,min2.png,min3.png,min4.png,allBlank.png,,,,,,,,,,,,0,0,0,0,,,,,,,,,"(0.75, -0.04)",images/min4.png,1,0.0,1,0.0542900511064,0.0,[-0.19765739  0.01041667],1,2018_Jun_15_1634,60.1008955209,sequenceLearningTask,002,098,
min1.png,min2.png,min3.png,min4.png,allBlank.png,,,,,,,,,,,,0,0,0,0,,,,,,,,,"(0.75, -0.04)",images/min4.png,1,,,0.0660356923472,0.0,[ 0.67789165  0.07291667],1,2018_Jun_15_1634,60.1008955209,sequenceLearningTask,002,098,
min1.png,min2.png,min3.png,min4.png,allBlank.png,,,,,,,,,,,,0,0,0,0,,,,,,,,,"(-0.25, -0.04)",images/min2.png,1,0.0,1,0.0609567179345,0.0,[ 0.61639824  0.03125   ],1,2018_Jun_15_1634,60.1008955209,sequenceLearningTask,002,098,
min1.png,min2.png,min3.png,min4.png,allBlank.png,,,,,,,,,,,,0,0,0,0,,,,,,,,,"(0.25, -0.04)",images/min3.png,1,0.0,1,0.054564923048,0.0,[-0.22254758 -0.07552083],1,2018_Jun_15_1634,60.1008955209,sequenceLearningTask,002,098,
min1.png,min2.png,min3.png,min4.png,allBlank.png,,,,,,,,,,,,0,0,0,0,,,,,,,,,"(0.75, -0.04)",images/min4.png,1,0.0,1,0.0617542564869,0.0,[ 0.25475842  0.02083333],1,2018_Jun_15_1634,60.1008955209,sequenceLearningTask,002,098,
min1.png,min2.png,min3.png,min4.png,allBlank.png,,,,,,,,,,,,0,1,1,1,,,,,,,,,"(-0.75, -0.04)",images/min1.png,2,0.0,1,0.0508545641787,0.0,[ 0.69106881  0.0390625 ],1,2018_Jun_15_1634,60.1008955209,sequenceLearningTask,002,098,
min1.png,min2.png,min3.png,min4.png,allBlank.png,,,,,,,,,,,,0,1,1,1,,,,,,,,,"(0.25, -0.04)",images/min3.png,2,0.0,1,0.0610498462338,0.0,[-0.56076135 -0.1953125 ],1,2018_Jun_15_1634,60.1008955209,sequenceLearningTask,002,098,
min1.png,min2.png,min3.png,min4.png,allBlank.png,,,,,,,,,,,,0,1,1,1,,,,,,,,,"(-0.25, -0.04)",images/min2.png,2,0.0,1,0.0611885127146,0.0,[ 0.19912152 -0.22135417],1,2018_Jun_15_1634,60.1008955209,sequenceLearningTask,002,098,
min1.png,min2.png,min3.png,min4.png,allBlank.png,,,,,,,,,,,,0,1,1,1,,,,,,,,,"(0.75, -0.04)",images/min4.png,2,0.0,1,0.0587934358045,0.0,[-0.27379209 -0.1953125 ],1,2018_Jun_15_1634,60.1008955209,sequenceLearningTask,002,098,
min1.png,min2.png,min3.png,min4.png,allBlank.png,,,,,,,,,,,,0,1,1,1,,,,,,,,,"(0.75, -0.04)",images/min4.png,2,,,0.0533238973003,0.0,[ 0.65592972 -0.171875  ],1,2018_Jun_15_1634,60.1008955209,sequenceLearningTask,002,098,
min1.png,min2.png,min3.png,min4.png,allBlank.png,,,,,,,,,,,,0,1,1,1,,,,,,,,,"(-0.25, -0.04)",images/min2.png,2,0.0,1,0.0532102563884,0.0,[ 0.73645681 -0.171875  ],1,2018_Jun_15_1634,60.1008955209,sequenceLearningTask,002,098,
min1.png,min2.png,min3.png,min4.png,allBlank.png,,,,,,,,,,,,0,1,1,1,,,,,,,,,"(0.25, -0.04)",images/min3.png,2,0.0,1,0.0502363075502,0.0,[-0.21376281 -0.08333333],1,2018_Jun_15_1634,60.1008955209,sequenceLearningTask,002,098,
min1.png,min2.png,min3.png,min4.png,allBlank.png,,,,,,,,,,,,0,1,1,1,,,,,,,,,"(0.75, -0.04)",images/min4.png,2,0.0,1,0.0502030770294,0.0,[ 0.43484627  0.08072917],1,2018_Jun_15_1634,60.1008955209,sequenceLearningTask,002,098,
min1.png,min2.png,min3.png,min4.png,allBlank.png,,,,,,,,,,,,0,2,2,2,,,,,,,,,"(-0.75, -0.04)",images/min1.png,3,0.0,1,0.0507109742612,0.0,[ 0.71449488  0.0546875 ],1,2018_Jun_15_1634,60.1008955209,sequenceLearningTask,002,098,
min1.png,min2.png,min3.png,min4.png,allBlank.png,,,,,,,,,,,,0,2,2,2,,,,,,,,,"(0.25, -0.04)",images/min3.png,3,0.0,1,0.0510137437377,0.0,[-0.73499268 -0.02604167],1,2018_Jun_15_1634,60.1008955209,sequenceLearningTask,002,098,
min1.png,min2.png,min3.png,min4.png,allBlank.png,,,,,,,,,,,,0,2,2,2,,,,,,,,,"(-0.25, -0.04)",images/min2.png,3,0.0,1,0.0692488204222,0.0,[ 0.31332357 -0.06510417],1,2018_Jun_15_1634,60.1008955209,sequenceLearningTask,002,098,
min1.png,min2.png,min3.png,min4.png,allBlank.png,,,,,,,,,,,,0,2,2,2,,,,,,,,,"(0.75, -0.04)",images/min4.png,3,0.0,1,0.0519355898723,0.0,[-0.32650073 -0.00520833],1,2018_Jun_15_1634,60.1008955209,sequenceLearningTask,002,098,
min1.png,min2.png,min3.png,min4.png,allBlank.png,,,,,,,,,,,,0,2,2,2,,,,,,,,,"(0.75, -0.04)",images/min4.png,3,,,0.0627277947497,0.0,[ 0.83162518  0.02864583],1,2018_Jun_15_1634,60.1008955209,sequenceLearningTask,002,098,
min1.png,min2.png,min3.png,min4.png,allBlank.png,,,,,,,,,,,,0,2,2,2,,,,,,,,,"(-0.25, -0.04)",images/min2.png,3,0.0,1,0.0627688204404,0.0,[ 0.77013177  0.03645833],1,2018_Jun_15_1634,60.1008955209,sequenceLearningTask,002,098,
min1.png,min2.png,min3.png,min4.png,allBlank.png,,,,,,,,,,,,0,2,2,2,,,,,,,,,"(0.25, -0.04)",images/min3.png,3,0.0,1,0.0541456411593,0.0,[-0.22693997 -0.125     ],1,2018_Jun_15_1634,60.1008955209,sequenceLearningTask,002,098,
min1.png,min2.png,min3.png,min4.png,allBlank.png,,,,,,,,,,,,0,2,2,2,,,,,,,,,"(0.75, -0.04)",images/min4.png,3,0.0,1,0.0550994870719,0.0,[ 0.15666179 -0.10416667],1,2018_Jun_15_1634,60.1008955209,sequenceLearningTask,002,098,
min1.png,min2.png,min3.png,min4.png,allBlank.png,,,,,,,,,,,,0,3,3,3,,,,,,,,,"(-0.75, -0.04)",images/min1.png,4,0.0,1,0.0577050256543,0.0,[ 0.63103953 -0.14583333],1,2018_Jun_15_1634,60.1008955209,sequenceLearningTask,002,098,
min1.png,min2.png,min3.png,min4.png,allBlank.png,,,,,,,,,,,,0,3,3,3,,,,,,,,,"(0.25, -0.04)",images/min3.png,4,0.0,1,0.0485222565476,0.0,[-0.64860908 -0.01302083],1,2018_Jun_15_1634,60.1008955209,sequenceLearningTask,002,098,
min1.png,min2.png,min3.png,min4.png,allBlank.png,,,,,,,,,,,,0,3,3,3,,,,,,,,,"(-0.25, -0.04)",images/min2.png,4,0.0,1,0.048047179589,0.0,[ 0.12445095  0.16145833],1,2018_Jun_15_1634,60.1008955209,sequenceLearningTask,002,098,
min1.png,min2.png,min3.png,min4.png,allBlank.png,,,,,,,,,,,,0,3,3,3,,,,,,,,,"(0.75, -0.04)",images/min4.png,4,0.0,1,0.0507027693093,0.0,[-0.25036603  0.16145833],1,2018_Jun_15_1634,60.1008955209,sequenceLearningTask,002,098,
min1.png,min2.png,min3.png,min4.png,allBlank.png,,,,,,,,,,,,0,3,3,3,,,,,,,,,"(0.75, -0.04)",images/min4.png,4,,,0.0528065639082,0.0,[ 0.75256223 -0.09635417],1,2018_Jun_15_1634,60.1008955209,sequenceLearningTask,002,098,
min1.png,min2.png,min3.png,min4.png,allBlank.png,,,,,,,,,,,,0,3,3,3,,,,,,,,,"(-0.25, -0.04)",images/min2.png,4,0.0,1,0.0506034870632,0.0,[ 0.67203514 -0.1171875 ],1,2018_Jun_15_1634,60.1008955209,sequenceLearningTask,002,098,
min1.png,min2.png,min3.png,min4.png,allBlank.png,,,,,,,,,,,,0,3,3,3,,,,,,,,,"(0.25, -0.04)",images/min3.png,4,0.0,1,0.0540574358311,0.0,[-0.14055637  0.03125   ],1,2018_Jun_15_1634,60.1008955209,sequenceLearningTask,002,098,
min1.png,min2.png,min3.png,min4.png,allBlank.png,,,,,,,,,,,,0,3,3,3,,,,,,,,,"(0.75, -0.04)",images/min4.png,4,0.0,1,0.0494338462595,0.0,[ 0.31918009  0.08333333],1,2018_Jun_15_1634,60.1008955209,sequenceLearningTask,002,098,
min1.png,min2.png,min3.png,min4.png,allBlank.png,,,,,,,,,,,,0,4,4,4,,,,,,,,,"(-0.75, -0.04)",images/min1.png,5,0.0,1,0.0502088204958,0.0,[ 0.80819912  0.04427083],1,2018_Jun_15_1634,60.1008955209,sequenceLearningTask,002,098,
min1.png,min2.png,min3.png,min4.png,allBlank.png,,,,,,,,,,,,0,4,4,4,,,,,,,,,"(0.25, -0.04)",images/min3.png,5,0.0,1,0.0560008205939,0.0,[-0.72181552 -0.1875    ],1,2018_Jun_15_1634,60.1008955209,sequenceLearningTask,002,098,
min1.png,min2.png,min3.png,min4.png,allBlank.png,,,,,,,,,,,,0,4,4,4,,,,,,,,,"(-0.25, -0.04)",images/min2.png,5,0.0,1,0.0551515896805,0.0,[ 0.25915081  0.04947917],1,2018_Jun_15_1634,60.1008955209,sequenceLearningTask,002,098,
min1.png,min2.png,min3.png,min4.png,allBlank.png,,,,,,,,,,,,0,4,4,4,,,,,,,,,"(0.75, -0.04)",images/min4.png,5,0.0,1,0.0866921024863,0.0,[-0.48169839 -0.10416667],1,2018_Jun_15_1634,60.1008955209,sequenceLearningTask,002,098,
min1.png,min2.png,min3.png,min4.png,allBlank.png,,,,,,,,,,,,0,4,4,4,,,,,,,,,"(0.75, -0.04)",images/min4.png,5,,,0.0590744614601,0.0,[ 0.69838946  0.03645833],1,2018_Jun_15_1634,60.1008955209,sequenceLearningTask,002,098,
min1.png,min2.png,min3.png,min4.png,allBlank.png,,,,,,,,,,,,0,4,4,4,,,,,,,,,"(-0.25, -0.04)",images/min2.png,5,0.0,1,0.0647634873167,0.0,[ 0.65300146  0.03645833],1,2018_Jun_15_1634,60.1008955209,sequenceLearningTask,002,098,
min1.png,min2.png,min3.png,min4.png,allBlank.png,,,,,,,,,,,,0,4,4,4,,,,,,,,,"(0.25, -0.04)",images/min3.png,5,0.0,1,0.0505099487491,0.0,[-0.21669107 -0.07291667],1,2018_Jun_15_1634,60.1008955209,sequenceLearningTask,002,098,
min1.png,min2.png,min3.png,min4.png,allBlank.png,,,,,,,,,,,,0,4,4,4,,,,,,,,,"(0.75, -0.04)",images/min4.png,5,0.0,1,0.0510178459808,0.0,[ 0.27086384 -0.04427083],1,2018_Jun_15_1634,60.1008955209,sequenceLearningTask,002,098,
min1.png,min2.png,min3.png,min4.png,allBlank.png,,,,,,,,,,,,0,5,5,5,,,,,,,,,"(-0.75, -0.04)",images/min1.png,6,0.0,1,0.0504032820463,0.0,[ 0.66178624 -0.07552083],1,2018_Jun_15_1634,60.1008955209,sequenceLearningTask,002,098,
min1.png,min2.png,min3.png,min4.png,allBlank.png,,,,,,,,,,,,0,5,5,5,,,,,,,,,"(0.25, -0.04)",images/min3.png,6,0.0,1,0.0617526154965,0.0,[-0.73499268 -0.27083333],1,2018_Jun_15_1634,60.1008955209,sequenceLearningTask,002,098,
min1.png,min2.png,min3.png,min4.png,allBlank.png,,,,,,,,,,,,0,5,5,5,,,,,,,,,"(-0.25, -0.04)",images/min2.png,6,0.0,1,0.056802871637,0.0,[ 0.10541728 -0.0390625 ],1,2018_Jun_15_1634,60.1008955209,sequenceLearningTask,002,098,
min1.png,min2.png,min3.png,min4.png,allBlank.png,,,,,,,,,,,,0,5,5,5,,,,,,,,,"(0.75, -0.04)",images/min4.png,6,0.0,1,0.0657218459528,0.0,[-0.21376281  0.01822917],1,2018_Jun_15_1634,60.1008955209,sequenceLearningTask,002,098,
min1.png,min2.png,min3.png,min4.png,allBlank.png,,,,,,,,,,,,0,5,5,5,,,,,,,,,"(0.75, -0.04)",images/min4.png,6,,,0.0514966154005,0.0,[ 0.77013177  0.109375  ],1,2018_Jun_15_1634,60.1008955209,sequenceLearningTask,002,098,
min1.png,min2.png,min3.png,min4.png,allBlank.png,,,,,,,,,,,,0,5,5,5,,,,,,,,,"(-0.25, -0.04)",images/min2.png,6,0.0,1,0.0556135382503,0.0,[ 0.71742313  0.1171875 ],1,2018_Jun_15_1634,60.1008955209,sequenceLearningTask,002,098,
min1.png,min2.png,min3.png,min4.png,allBlank.png,,,,,,,,,,,,0,5,5,5,,,,,,,,,"(0.25, -0.04)",images/min3.png,6,0.0,1,0.0655117949937,0.0,[-0.31918009  0.0234375 ],1,2018_Jun_15_1634,60.1008955209,sequenceLearningTask,002,098,
min1.png,min2.png,min3.png,min4.png,allBlank.png,,,,,,,,,,,,0,5,5,5,,,,,,,,,"(0.75, -0.04)",images/min4.png,6,0.0,1,0.0523954872042,0.0,[ 0.1625183   0.08854167],1,2018_Jun_15_1634,60.1008955209,sequenceLearningTask,002,098,
min1.png,min2.png,min3.png,min4.png,allBlank.png,,,,,,,,,,,,0,6,6,6,,,,,,,,,"(-0.75, -0.04)",images/min1.png,7,0.0,1,0.0542740512174,0.0,[ 0.62225476  0.08072917],1,2018_Jun_15_1634,60.1008955209,sequenceLearningTask,002,098,
min1.png,min2.png,min3.png,min4.png,allBlank.png,,,,,,,,,,,,0,6,6,6,,,,,,,,,"(0.25, -0.04)",images/min3.png,7,0.0,1,0.0498350767884,0.0,[-0.5636896 -0.0859375],1,2018_Jun_15_1634,60.1008955209,sequenceLearningTask,002,098,
min1.png,min2.png,min3.png,min4.png,allBlank.png,,,,,,,,,,,,0,6,6,6,,,,,,,,,"(-0.25, -0.04)",images/min2.png,7,0.0,1,0.0688049229793,0.0,[ 0.22108346 -0.01822917],1,2018_Jun_15_1634,60.1008955209,sequenceLearningTask,002,098,
min1.png,min2.png,min3.png,min4.png,allBlank.png,,,,,,,,,,,,0,6,6,6,,,,,,,,,"(0.75, -0.04)",images/min4.png,7,0.0,1,0.0495938460808,0.0,[-0.37774524 -0.07552083],1,2018_Jun_15_1634,60.1008955209,sequenceLearningTask,002,098,
min1.png,min2.png,min3.png,min4.png,allBlank.png,,,,,,,,,,,,0,6,6,6,,,,,,,,,"(0.75, -0.04)",images/min4.png,7,,,0.0571602052078,0.0,[ 0.52562225  0.04427083],1,2018_Jun_15_1634,60.1008955209,sequenceLearningTask,002,098,
min1.png,min2.png,min3.png,min4.png,allBlank.png,,,,,,,,,,,,0,6,6,6,,,,,,,,,"(-0.25, -0.04)",images/min2.png,7,0.0,1,0.0481571280397,0.0,[ 0.78330893 -0.00260417],1,2018_Jun_15_1634,60.1008955209,sequenceLearningTask,002,098,
min1.png,min2.png,min3.png,min4.png,allBlank.png,,,,,,,,,,,,0,6,6,6,,,,,,,,,"(0.25, -0.04)",images/min3.png,7,0.0,1,0.0517341538798,0.0,[-0.07467057  0.078125  ],1,2018_Jun_15_1634,60.1008955209,sequenceLearningTask,002,098,
min1.png,min2.png,min3.png,min4.png,allBlank.png,,,,,,,,,,,,0,6,6,6,,,,,,,,,"(0.75, -0.04)",images/min4.png,7,0.0,1,0.0496960000601,0.0,[ 0.10688141  0.08333333],1,2018_Jun_15_1634,60.1008955209,sequenceLearningTask,002,098,
min1.png,min2.png,min3.png,min4.png,allBlank.png,,,,,,,,,,,,0,7,7,7,,,,,,,,,"(-0.75, -0.04)",images/min1.png,8,0.0,1,0.0519868717529,0.0,[ 0.53440703 -0.00260417],1,2018_Jun_15_1634,60.1008955209,sequenceLearningTask,002,098,
min1.png,min2.png,min3.png,min4.png,allBlank.png,,,,,,,,,,,,0,7,7,7,,,,,,,,,"(0.25, -0.04)",images/min3.png,8,0.0,1,0.0499848204199,0.0,[-0.54172767 -0.13020833],1,2018_Jun_15_1634,60.1008955209,sequenceLearningTask,002,098,
min1.png,min2.png,min3.png,min4.png,allBlank.png,,,,,,,,,,,,0,7,7,7,,,,,,,,,"(-0.25, -0.04)",images/min2.png,8,0.0,1,0.0551716922782,0.0,[ 0.24450952 -0.15885417],1,2018_Jun_15_1634,60.1008955209,sequenceLearningTask,002,098,
min1.png,min2.png,min3.png,min4.png,allBlank.png,,,,,,,,,,,,0,7,7,7,,,,,,,,,"(0.75, -0.04)",images/min4.png,8,0.0,1,0.0581140513532,0.0,[-0.19326501 -0.05208333],1,2018_Jun_15_1634,60.1008955209,sequenceLearningTask,002,098,
min1.png,min2.png,min3.png,min4.png,allBlank.png,,,,,,,,,,,,0,7,7,7,,,,,,,,,"(0.75, -0.04)",images/min4.png,8,,,0.0569370256271,0.0,[ 0.62079063  0.0234375 ],1,2018_Jun_15_1634,60.1008955209,sequenceLearningTask,002,098,
min1.png,min2.png,min3.png,min4.png,allBlank.png,,,,,,,,,,,,0,7,7,7,,,,,,,,,"(-0.25, -0.04)",images/min2.png,8,0.0,1,0.0589078974444,0.0,[ 0.64421669  0.03645833],1,2018_Jun_15_1634,60.1008955209,sequenceLearningTask,002,098,
min1.png,min2.png,min3.png,min4.png,allBlank.png,,,,,,,,,,,,0,7,7,7,,,,,,,,,"(0.25, -0.04)",images/min3.png,8,0.0,1,0.0499552821275,0.0,[-0.32210835  0.11458333],1,2018_Jun_15_1634,60.1008955209,sequenceLearningTask,002,098,
min1.png,min2.png,min3.png,min4.png,allBlank.png,,,,,,,,,,,,0,7,7,7,,,,,,,,,"(0.75, -0.04)",images/min4.png,8,0.0,1,0.0485415384173,0.0,[ 0.27964861  0.26302083],1,2018_Jun_15_1634,60.1008955209,sequenceLearningTask,002,098,
min1.png,min2.png,min3.png,min4.png,allBlank.png,,,,,,,,,,,,0,8,8,8,,,,,,,,,"(-0.75, -0.04)",images/min1.png,9,0.0,1,0.0535511793569,0.0,[ 0.72767204 -0.0078125 ],1,2018_Jun_15_1634,60.1008955209,sequenceLearningTask,002,098,
min1.png,min2.png,min3.png,min4.png,allBlank.png,,,,,,,,,,,,0,8,8,8,,,,,,,,,"(0.25, -0.04)",images/min3.png,9,0.0,1,0.0529345639516,0.0,[-0.54758419 -0.11197917],1,2018_Jun_15_1634,60.1008955209,sequenceLearningTask,002,098,
min1.png,min2.png,min3.png,min4.png,allBlank.png,,,,,,,,,,,,0,8,8,8,,,,,,,,,"(-0.25, -0.04)",images/min2.png,9,0.0,1,0.050869333325,0.0,[ 0.26207906 -0.15104167],1,2018_Jun_15_1634,60.1008955209,sequenceLearningTask,002,098,
min1.png,min2.png,min3.png,min4.png,allBlank.png,,,,,,,,,,,,0,8,8,8,,,,,,,,,"(0.75, -0.04)",images/min4.png,9,0.0,1,0.0614756923169,0.0,[-0.19472914 -0.11979167],1,2018_Jun_15_1634,60.1008955209,sequenceLearningTask,002,098,
min1.png,min2.png,min3.png,min4.png,allBlank.png,,,,,,,,,,,,0,8,8,8,,,,,,,,,"(0.75, -0.04)",images/min4.png,9,,,0.0634055384435,0.0,[ 0.68081991  0.0078125 ],1,2018_Jun_15_1634,60.1008955209,sequenceLearningTask,002,098,
min1.png,min2.png,min3.png,min4.png,allBlank.png,,,,,,,,,,,,0,8,8,8,,,,,,,,,"(-0.25, -0.04)",images/min2.png,9,0.0,1,0.0608131280169,0.0,[ 0.7057101  -0.01302083],1,2018_Jun_15_1634,60.1008955209,sequenceLearningTask,002,098,
min1.png,min2.png,min3.png,min4.png,allBlank.png,,,,,,,,,,,,0,8,8,8,,,,,,,,,"(0.25, -0.04)",images/min3.png,9,0.0,1,0.0483507690951,0.0,[-0.17569546  0.03125   ],1,2018_Jun_15_1634,60.1008955209,sequenceLearningTask,002,098,
min1.png,min2.png,min3.png,min4.png,allBlank.png,,,,,,,,,,,,0,8,8,8,,,,,,,,,"(0.75, -0.04)",images/min4.png,9,0.0,1,0.0616139487829,0.0,[ 0.23426061  0.0078125 ],1,2018_Jun_15_1634,60.1008955209,sequenceLearningTask,002,098,
min1.png,min2.png,min3.png,min4.png,allBlank.png,,,,,,,,,,,,0,9,9,9,,,,,,,,,"(-0.75, -0.04)",images/min1.png,10,0.0,1,0.0602518974338,0.0,[ 0.64128843 -0.0390625 ],1,2018_Jun_15_1634,60.1008955209,sequenceLearningTask,002,098,
min1.png,min2.png,min3.png,min4.png,allBlank.png,,,,,,,,,,,,0,9,9,9,,,,,,,,,"(0.25, -0.04)",images/min3.png,10,0.0,1,0.0637304615229,0.0,[-0.62811127 -0.19010417],1,2018_Jun_15_1634,60.1008955209,sequenceLearningTask,002,098,
min1.png,min2.png,min3.png,min4.png,allBlank.png,,,,,,,,,,,,0,9,9,9,,,,,,,,,"(-0.25, -0.04)",images/min2.png,10,0.0,1,0.053161025513,0.0,[ 0.15959004 -0.0078125 ],1,2018_Jun_15_1634,60.1008955209,sequenceLearningTask,002,098,
min1.png,min2.png,min3.png,min4.png,allBlank.png,,,,,,,,,,,,0,9,9,9,,,,,,,,,"(0.75, -0.04)",images/min4.png,10,0.0,1,0.055769025581,0.0,[-0.30600293 -0.00260417],1,2018_Jun_15_1634,60.1008955209,sequenceLearningTask,002,098,
min1.png,min2.png,min3.png,min4.png,allBlank.png,,,,,,,,,,,,0,9,9,9,,,,,,,,,"(0.75, -0.04)",images/min4.png,10,,,0.061312410282,0.0,[ 0.61200586  0.13802083],1,2018_Jun_15_1634,60.1008955209,sequenceLearningTask,002,098,
min1.png,min2.png,min3.png,min4.png,allBlank.png,,,,,,,,,,,,0,9,9,9,,,,,,,,,"(-0.25, -0.04)",images/min2.png,10,,,0.0517833845224,0.0,[-0.12005857  0.11979167],1,2018_Jun_15_1634,60.1008955209,sequenceLearningTask,002,098,
min1.png,min2.png,min3.png,min4.png,allBlank.png,,,,,,,,,,,,0,9,9,9,,,,,,,,,"(0.25, -0.04)",images/min3.png,10,0.0,1,0.0557349743322,0.0,[-0.11420205  0.1171875 ],1,2018_Jun_15_1634,60.1008955209,sequenceLearningTask,002,098,
min1.png,min2.png,min3.png,min4.png,allBlank.png,,,,,,,,,,,,0,9,9,9,,,,,,,,,"(0.75, -0.04)",images/min4.png,10,0.0,1,0.0597993845586,0.0,[ 0.22693997  0.0703125 ],1,2018_Jun_15_1634,60.1008955209,sequenceLearningTask,002,098,
min1.png,min2.png,min3.png,min4.png,images/allBlank.png,"['num_7', 'num_4', 'num_1', 'num_0']",['num_1'],num_1,[3],'num_1',images/min3.png,"[(0.45, 0.79)]",,,,,0,-1,-1,0,0,0,0,2,,,,,"(-0.25, 0.04)",images/min2.png,1,0.0,1,0.0527015386615,0.0,[ 0.15519766 -0.10677083],1,2018_Jun_15_1634,60.1008955209,sequenceLearningTask,002,098,
min1.png,min2.png,min3.png,min4.png,images/allBlank.png,"['num_7', 'num_4', 'num_1', 'num_0']",['num_1'],num_1,[3],'num_1',images/min3.png,"[(0.45, 0.79)]",,,,,0,-1,-1,0,0,0,0,2,,,,,"(0.75, 0.04)",images/min4.png,1,0.0,1,0.0697546666488,0.0,[-0.17130307 -0.0546875 ],1,2018_Jun_15_1634,60.1008955209,sequenceLearningTask,002,098,
min1.png,min2.png,min3.png,min4.png,images/allBlank.png,"['num_7', 'num_4', 'num_1', 'num_0']",['num_1'],num_1,[3],'num_1',images/min3.png,"[(0.45, 0.79)]",,,,,0,-1,-1,0,0,0,0,2,,,,,"(-0.25, 0.04)",images/min2.png,1,0.0,1,0.0595191793982,0.0,[ 0.75988287 -0.1328125 ],1,2018_Jun_15_1634,60.1008955209,sequenceLearningTask,002,098,
min1.png,min2.png,min3.png,min4.png,images/allBlank.png,"['num_7', 'num_4', 'num_1', 'num_0']",['num_1'],num_1,[3],'num_1',images/min3.png,"[(0.45, 0.79)]",,,,,0,-1,-1,0,0,0,0,2,,,,,"(-0.75, 0.04)",images/min1.png,1,0.0,1,0.0521632819436,0.0,[-0.12152269  0.140625  ],1,2018_Jun_15_1634,60.1008955209,sequenceLearningTask,002,098,
min1.png,min2.png,min3.png,min4.png,images/allBlank.png,"['num_7', 'num_4', 'num_1', 'num_0']",['num_7'],num_7,[1],'num_7',images/min1.png,"[(0.45, 0.79)]",,,,,0,-1,-1,0,0,1,1,0,,,,,"(0.75, 0.04)",images/min4.png,2,0.0,1,0.0525165128056,0.0,[-0.5534407 -0.34375  ],1,2018_Jun_15_1634,60.1008955209,sequenceLearningTask,002,098,
min1.png,min2.png,min3.png,min4.png,images/allBlank.png,"['num_7', 'num_4', 'num_1', 'num_0']",['num_7'],num_7,[1],'num_7',images/min1.png,"[(0.45, 0.79)]",,,,,0,-1,-1,0,0,1,1,0,,,,,"(0.75, 0.04)",images/min4.png,2,,,0.0512045128271,0.0,[ 0.72181552 -0.1640625 ],1,2018_Jun_15_1634,60.1008955209,sequenceLearningTask,002,098,
min1.png,min2.png,min3.png,min4.png,images/allBlank.png,"['num_7', 'num_4', 'num_1', 'num_0']",['num_7'],num_7,[1],'num_7',images/min1.png,"[(0.45, 0.79)]",,,,,0,-1,-1,0,0,1,1,0,,,,,"(-0.75, 0.04)",images/min1.png,2,0.0,1,0.0561509742402,0.0,[ 0.69692533 -0.1640625 ],1,2018_Jun_15_1634,60.1008955209,sequenceLearningTask,002,098,
min1.png,min2.png,min3.png,min4.png,images/allBlank.png,"['num_7', 'num_4', 'num_1', 'num_0']",['num_7'],num_7,[1],'num_7',images/min1.png,"[(0.45, 0.79)]",,,,,0,-1,-1,0,0,1,1,0,,,,,"(-0.75, 0.04)",images/min1.png,2,,,0.060182153713,0.0,[-0.55636896 -0.10416667],1,2018_Jun_15_1634,60.1008955209,sequenceLearningTask,002,098,
min1.png,min2.png,min3.png,min4.png,images/allBlank.png,"['num_7', 'num_4', 'num_1', 'num_0']",['num_0'],num_0,[4],'num_0',images/min4.png,"[(0.45, 0.79)]",,,,,0,-1,-1,0,0,2,2,3,,,,,"(-0.75, 0.04)",images/min1.png,3,,,0.0548073844984,0.0,[-0.63543192 -0.125     ],1,2018_Jun_15_1634,60.1008955209,sequenceLearningTask,002,098,
min1.png,min2.png,min3.png,min4.png,images/allBlank.png,"['num_7', 'num_4', 'num_1', 'num_0']",['num_0'],num_0,[4],'num_0',images/min4.png,"[(0.45, 0.79)]",,,,,0,-1,-1,0,0,2,2,3,,,,,"(0.75, 0.04)",images/min4.png,3,0.0,1,0.0443975385278,0.0,[-0.67203514 -0.13541667],1,2018_Jun_15_1634,60.1008955209,sequenceLearningTask,002,098,
min1.png,min2.png,min3.png,min4.png,images/allBlank.png,"['num_7', 'num_4', 'num_1', 'num_0']",['num_0'],num_0,[4],'num_0',images/min4.png,"[(0.45, 0.79)]",,,,,0,-1,-1,0,0,2,2,3,,,,,"(0.25, 0.04)",images/min3.png,3,0.0,1,0.0534178460948,0.0,[ 0.56661786 -0.08072917],1,2018_Jun_15_1634,60.1008955209,sequenceLearningTask,002,098,
min1.png,min2.png,min3.png,min4.png,images/allBlank.png,"['num_7', 'num_4', 'num_1', 'num_0']",['num_0'],num_0,[4],'num_0',images/min4.png,"[(0.45, 0.79)]",,,,,0,-1,-1,0,0,2,2,3,,,,,"(-0.75, 0.04)",images/min1.png,3,0.0,1,0.0559950768948,0.0,[ 0.21229868 -0.046875  ],1,2018_Jun_15_1634,60.1008955209,sequenceLearningTask,002,098,
min1.png,min2.png,min3.png,min4.png,images/allBlank.png,"['num_7', 'num_4', 'num_1', 'num_0']",['num_4'],num_4,[2],'num_4',images/min2.png,"[(0.45, 0.79)]",,,,,0,-1,-1,0,0,3,3,1,,,,,"(0.25, 0.04)",images/min3.png,4,0.0,1,0.0507355898153,0.0,[-0.80087848 -0.15104167],1,2018_Jun_15_1634,60.1008955209,sequenceLearningTask,002,098,
min1.png,min2.png,min3.png,min4.png,images/allBlank.png,"['num_7', 'num_4', 'num_1', 'num_0']",['num_4'],num_4,[2],'num_4',images/min2.png,"[(0.45, 0.79)]",,,,,0,-1,-1,0,0,3,3,1,,,,,"(0.25, 0.04)",images/min3.png,4,,,0.0551105639897,0.0,[ 0.19912152 -0.01302083],1,2018_Jun_15_1634,60.1008955209,sequenceLearningTask,002,098,
min1.png,min2.png,min3.png,min4.png,images/allBlank.png,"['num_7', 'num_4', 'num_1', 'num_0']",['num_4'],num_4,[2],'num_4',images/min2.png,"[(0.45, 0.79)]",,,,,0,-1,-1,0,0,3,3,1,,,,,"(-0.75, 0.04)",images/min1.png,4,0.0,1,0.0543097434565,0.0,[ 0.30307467  0.0078125 ],1,2018_Jun_15_1634,60.1008955209,sequenceLearningTask,002,098,
min1.png,min2.png,min3.png,min4.png,images/allBlank.png,"['num_7', 'num_4', 'num_1', 'num_0']",['num_4'],num_4,[2],'num_4',images/min2.png,"[(0.45, 0.79)]",,,,,0,-1,-1,0,0,3,3,1,,,,,"(-0.25, 0.04)",images/min2.png,4,0.0,1,0.0586219488177,0.0,[-0.55490483 -0.13802083],1,2018_Jun_15_1634,60.1008955209,sequenceLearningTask,002,098,
min1.png,min2.png,min3.png,min4.png,images/allBlank.png,"['num_7', 'num_4', 'num_1', 'num_0']",['num_0'],num_0,[4],'num_0',images/min4.png,"[(0.45, 0.79)]",,,,,0,-1,-1,0,1,0,4,3,,,,,"(-0.25, 0.04)",images/min2.png,5,0.0,1,0.0550281025935,0.0,[-0.00878477 -0.046875  ],1,2018_Jun_15_1634,60.1008955209,sequenceLearningTask,002,098,
min1.png,min2.png,min3.png,min4.png,images/allBlank.png,"['num_7', 'num_4', 'num_1', 'num_0']",['num_0'],num_0,[4],'num_0',images/min4.png,"[(0.45, 0.79)]",,,,,0,-1,-1,0,1,0,4,3,,,,,"(-0.75, 0.04)",images/min1.png,5,0.0,1,0.0578596922569,0.0,[-0.23718887 -0.11197917],1,2018_Jun_15_1634,60.1008955209,sequenceLearningTask,002,098,
min1.png,min2.png,min3.png,min4.png,images/allBlank.png,"['num_7', 'num_4', 'num_1', 'num_0']",['num_0'],num_0,[4],'num_0',images/min4.png,"[(0.45, 0.79)]",,,,,0,-1,-1,0,1,0,4,3,,,,,"(0.75, 0.04)",images/min4.png,5,0.0,1,0.054516102653,0.0,[-0.6852123 -0.1640625],1,2018_Jun_15_1634,60.1008955209,sequenceLearningTask,002,098,
min1.png,min2.png,min3.png,min4.png,images/allBlank.png,"['num_7', 'num_4', 'num_1', 'num_0']",['num_0'],num_0,[4],'num_0',images/min4.png,"[(0.45, 0.79)]",,,,,0,-1,-1,0,1,0,4,3,,,,,"(0.75, 0.04)",images/min4.png,5,,,0.0545427692123,0.0,[ 0.71742313  0.09114583],1,2018_Jun_15_1634,60.1008955209,sequenceLearningTask,002,098,
min1.png,min2.png,min3.png,min4.png,images/allBlank.png,"['num_7', 'num_4', 'num_1', 'num_0']",['num_7'],num_7,[1],'num_7',images/min1.png,"[(0.45, 0.79)]",,,,,0,-1,-1,0,1,1,5,0,,,,,"(0.75, 0.04)",images/min4.png,6,,,0.0678564102855,0.0,[ 0.7057101   0.08333333],1,2018_Jun_15_1634,60.1008955209,sequenceLearningTask,002,098,
min1.png,min2.png,min3.png,min4.png,images/allBlank.png,"['num_7', 'num_4', 'num_1', 'num_0']",['num_7'],num_7,[1],'num_7',images/min1.png,"[(0.45, 0.79)]",,,,,0,-1,-1,0,1,1,5,0,,,,,"(-0.25, 0.04)",images/min2.png,6,0.0,1,0.051163897384,0.0,[ 0.69399707  0.07552083],1,2018_Jun_15_1634,60.1008955209,sequenceLearningTask,002,098,
min1.png,min2.png,min3.png,min4.png,images/allBlank.png,"['num_7', 'num_4', 'num_1', 'num_0']",['num_7'],num_7,[1],'num_7',images/min1.png,"[(0.45, 0.79)]",,,,,0,-1,-1,0,1,1,5,0,,,,,"(0.75, 0.04)",images/min4.png,6,0.0,1,0.0509120000061,0.0,[-0.23279649  0.0078125 ],1,2018_Jun_15_1634,60.1008955209,sequenceLearningTask,002,098,
min1.png,min2.png,min3.png,min4.png,images/allBlank.png,"['num_7', 'num_4', 'num_1', 'num_0']",['num_7'],num_7,[1],'num_7',images/min1.png,"[(0.45, 0.79)]",,,,,0,-1,-1,0,1,1,5,0,,,,,"(-0.25, 0.04)",images/min2.png,6,0.0,1,0.0582756923977,0.0,[ 0.55197657  0.0703125 ],1,2018_Jun_15_1634,60.1008955209,sequenceLearningTask,002,098,
min1.png,min2.png,min3.png,min4.png,images/allBlank.png,"['num_7', 'num_4', 'num_1', 'num_0']",['num_1'],num_1,[3],'num_1',images/min3.png,"[(0.45, 0.79)]",,,,,0,-1,-1,0,1,2,6,2,,,,,"(-0.75, 0.04)",images/min1.png,7,0.0,1,0.0529956922401,0.0,[-0.28843338  0.0078125 ],1,2018_Jun_15_1634,60.1008955209,sequenceLearningTask,002,098,
min1.png,min2.png,min3.png,min4.png,images/allBlank.png,"['num_7', 'num_4', 'num_1', 'num_0']",['num_1'],num_1,[3],'num_1',images/min3.png,"[(0.45, 0.79)]",,,,,0,-1,-1,0,1,2,6,2,,,,,"(-0.75, 0.04)",images/min1.png,7,,,0.0561025640927,0.0,[-0.6295754  -0.18489583],1,2018_Jun_15_1634,60.1008955209,sequenceLearningTask,002,098,
min1.png,min2.png,min3.png,min4.png,images/allBlank.png,"['num_7', 'num_4', 'num_1', 'num_0']",['num_1'],num_1,[3],'num_1',images/min3.png,"[(0.45, 0.79)]",,,,,0,-1,-1,0,1,2,6,2,,,,,"(0.25, 0.04)",images/min3.png,7,0.0,1,0.0551076922566,0.0,[-0.67935578 -0.19010417],1,2018_Jun_15_1634,60.1008955209,sequenceLearningTask,002,098,
min1.png,min2.png,min3.png,min4.png,images/allBlank.png,"['num_7', 'num_4', 'num_1', 'num_0']",['num_1'],num_1,[3],'num_1',images/min3.png,"[(0.45, 0.79)]",,,,,0,-1,-1,0,1,2,6,2,,,,,"(-0.25, 0.04)",images/min2.png,7,0.0,1,0.0591158973984,0.0,[ 0.35724744  0.14583333],1,2018_Jun_15_1634,60.1008955209,sequenceLearningTask,002,098,
min1.png,min2.png,min3.png,min4.png,images/allBlank.png,"['num_7', 'num_4', 'num_1', 'num_0']",['num_4'],num_4,[2],'num_4',images/min2.png,"[(0.45, 0.79)]",,,,,0,-1,-1,0,1,3,7,1,,,,,"(0.75, 0.04)",images/min4.png,8,0.0,1,0.0595548718702,0.0,[-0.2181552  -0.09635417],1,2018_Jun_15_1634,60.1008955209,sequenceLearningTask,002,098,
min1.png,min2.png,min3.png,min4.png,images/allBlank.png,"['num_7', 'num_4', 'num_1', 'num_0']",['num_4'],num_4,[2],'num_4',images/min2.png,"[(0.45, 0.79)]",,,,,0,-1,-1,0,1,3,7,1,,,,,"(0.25, 0.04)",images/min3.png,8,0.0,1,0.051016615238,0.0,[ 0.87701318  0.09895833],1,2018_Jun_15_1634,60.1008955209,sequenceLearningTask,002,098,
min1.png,min2.png,min3.png,min4.png,images/allBlank.png,"['num_7', 'num_4', 'num_1', 'num_0']",['num_4'],num_4,[2],'num_4',images/min2.png,"[(0.45, 0.79)]",,,,,0,-1,-1,0,1,3,7,1,,,,,"(-0.75, 0.04)",images/min1.png,8,0.0,1,0.0549899486359,0.0,[ 0.34992679  0.06510417],1,2018_Jun_15_1634,60.1008955209,sequenceLearningTask,002,098,
min1.png,min2.png,min3.png,min4.png,images/allBlank.png,"['num_7', 'num_4', 'num_1', 'num_0']",['num_4'],num_4,[2],'num_4',images/min2.png,"[(0.45, 0.79)]",,,,,0,-1,-1,0,1,3,7,1,,,,,"(-0.25, 0.04)",images/min2.png,8,0.0,1,0.059829743579,0.0,[-0.72474378 -0.078125  ],1,2018_Jun_15_1634,60.1008955209,sequenceLearningTask,002,098,
min1.png,min2.png,min3.png,min4.png,images/allBlank.png,"['num_7', 'num_4', 'num_1', 'num_0']",['num_7'],num_7,[1],'num_7',images/min1.png,"[(0.45, 0.79)]",,,,,0,-1,-1,0,2,0,8,0,,,,,"(0.25, 0.04)",images/min3.png,9,0.0,1,0.0583093333989,0.0,[-0.09077599  0.22916667],1,2018_Jun_15_1634,60.1008955209,sequenceLearningTask,002,098,
min1.png,min2.png,min3.png,min4.png,images/allBlank.png,"['num_7', 'num_4', 'num_1', 'num_0']",['num_7'],num_7,[1],'num_7',images/min1.png,"[(0.45, 0.79)]",,,,,0,-1,-1,0,2,0,8,0,,,,,"(-0.25, 0.04)",images/min2.png,9,0.0,1,0.053818666609,0.0,[ 0.17423133  0.18489583],1,2018_Jun_15_1634,60.1008955209,sequenceLearningTask,002,098,
min1.png,min2.png,min3.png,min4.png,images/allBlank.png,"['num_7', 'num_4', 'num_1', 'num_0']",['num_7'],num_7,[1],'num_7',images/min1.png,"[(0.45, 0.79)]",,,,,0,-1,-1,0,2,0,8,0,,,,,"(-0.25, 0.04)",images/min2.png,9,,,0.0506239999086,0.351789128268,[-0.25329429  0.15364583],,2018_Jun_15_1634,60.1008955209,sequenceLearningTask,002,098,
min1.png,min2.png,min3.png,min4.png,images/allBlank.png,"['num_7', 'num_4', 'num_1', 'num_0']",['num_7'],num_7,[1],'num_7',images/min1.png,"[(0.45, 0.79)]",,,,,0,-1,-1,0,2,0,8,0,,,,,"(-0.75, 0.04)",images/min1.png,9,0.0,1,0.0550658463035,0.0,[-0.25622255  0.13802083],1,2018_Jun_15_1634,60.1008955209,sequenceLearningTask,002,098,
min1.png,min2.png,min3.png,min4.png,images/allBlank.png,"['num_7', 'num_4', 'num_1', 'num_0']",['num_4'],num_4,[2],'num_4',images/min2.png,"[(0.45, 0.79)]",,,,,0,-1,-1,0,2,1,9,1,,,,,"(-0.75, 0.04)",images/min1.png,10,,,0.0537074871827,0.0,[-0.56661786  0.14322917],1,2018_Jun_15_1634,60.1008955209,sequenceLearningTask,002,098,
min1.png,min2.png,min3.png,min4.png,images/allBlank.png,"['num_7', 'num_4', 'num_1', 'num_0']",['num_4'],num_4,[2],'num_4',images/min2.png,"[(0.45, 0.79)]",,,,,0,-1,-1,0,2,1,9,1,,,,,"(-0.25, 0.04)",images/min2.png,10,0.0,1,0.0396611283068,0.0,[-0.56661786  0.078125  ],1,2018_Jun_15_1634,60.1008955209,sequenceLearningTask,002,098,
min1.png,min2.png,min3.png,min4.png,images/allBlank.png,"['num_7', 'num_4', 'num_1', 'num_0']",['num_4'],num_4,[2],'num_4',images/min2.png,"[(0.45, 0.79)]",,,,,0,-1,-1,0,2,1,9,1,,,,,"(-0.25, 0.04)",images/min2.png,10,,,0.0500098462217,0.0,[-0.284041    0.13802083],1,2018_Jun_15_1634,60.1008955209,sequenceLearningTask,002,098,
min1.png,min2.png,min3.png,min4.png,images/allBlank.png,"['num_7', 'num_4', 'num_1', 'num_0']",['num_4'],num_4,[2],'num_4',images/min2.png,"[(0.45, 0.79)]",,,,,0,-1,-1,0,2,1,9,1,,,,,"(0.75, 0.04)",images/min4.png,10,0.0,1,0.0559355898295,0.0,[-0.27525622  0.140625  ],1,2018_Jun_15_1634,60.1008955209,sequenceLearningTask,002,098,
min1.png,min2.png,min3.png,min4.png,images/allBlank.png,"['num_7', 'num_4', 'num_1', 'num_0']",['num_1'],num_1,[3],'num_1',images/min3.png,"[(0.45, 0.79)]",,,,,0,-1,-1,0,2,2,10,2,,,,,"(-0.25, 0.04)",images/min2.png,11,0.0,1,0.0551105642226,0.0,[ 0.71742313  0.1796875 ],1,2018_Jun_15_1634,60.1008955209,sequenceLearningTask,002,098,
min1.png,min2.png,min3.png,min4.png,images/allBlank.png,"['num_7', 'num_4', 'num_1', 'num_0']",['num_1'],num_1,[3],'num_1',images/min3.png,"[(0.45, 0.79)]",,,,,0,-1,-1,0,2,2,10,2,,,,,"(-0.75, 0.04)",images/min1.png,11,0.0,1,0.0691269743256,0.0,[-0.08931186 -0.171875  ],1,2018_Jun_15_1634,60.1008955209,sequenceLearningTask,002,098,
min1.png,min2.png,min3.png,min4.png,images/allBlank.png,"['num_7', 'num_4', 'num_1', 'num_0']",['num_1'],num_1,[3],'num_1',images/min3.png,"[(0.45, 0.79)]",,,,,0,-1,-1,0,2,2,10,2,,,,,"(-0.75, 0.04)",images/min1.png,11,,,0.0549259488471,0.0,[-0.61639824 -0.3359375 ],1,2018_Jun_15_1634,60.1008955209,sequenceLearningTask,002,098,
min1.png,min2.png,min3.png,min4.png,images/allBlank.png,"['num_7', 'num_4', 'num_1', 'num_0']",['num_1'],num_1,[3],'num_1',images/min3.png,"[(0.45, 0.79)]",,,,,0,-1,-1,0,2,2,10,2,,,,,"(-0.25, 0.04)",images/min2.png,11,0.0,1,0.0578309742268,0.0,[-0.68814056 -0.33333333],1,2018_Jun_15_1634,60.1008955209,sequenceLearningTask,002,098,
min1.png,min2.png,min3.png,min4.png,images/allBlank.png,"['num_7', 'num_4', 'num_1', 'num_0']",['num_0'],num_0,[4],'num_0',images/min4.png,"[(0.45, 0.79)]",,,,,0,-1,-1,0,2,3,11,3,,,,,"(-0.75, 0.04)",images/min1.png,12,0.0,1,0.0534428718966,0.0,[-0.39238653 -0.16666667],1,2018_Jun_15_1634,60.1008955209,sequenceLearningTask,002,098,
min1.png,min2.png,min3.png,min4.png,images/allBlank.png,"['num_7', 'num_4', 'num_1', 'num_0']",['num_0'],num_0,[4],'num_0',images/min4.png,"[(0.45, 0.79)]",,,,,0,-1,-1,0,2,3,11,3,,,,,"(0.25, 0.04)",images/min3.png,12,0.0,1,0.060596923111,0.0,[-0.61200586 -0.20572917],1,2018_Jun_15_1634,60.1008955209,sequenceLearningTask,002,098,
min1.png,min2.png,min3.png,min4.png,images/allBlank.png,"['num_7', 'num_4', 'num_1', 'num_0']",['num_0'],num_0,[4],'num_0',images/min4.png,"[(0.45, 0.79)]",,,,,0,-1,-1,0,2,3,11,3,,,,,"(0.25, 0.04)",images/min3.png,12,,,0.0650022563059,0.0,[ 0.26354319  0.01822917],1,2018_Jun_15_1634,60.1008955209,sequenceLearningTask,002,098,
min1.png,min2.png,min3.png,min4.png,images/allBlank.png,"['num_7', 'num_4', 'num_1', 'num_0']",['num_0'],num_0,[4],'num_0',images/min4.png,"[(0.45, 0.79)]",,,,,0,-1,-1,0,2,3,11,3,,,,,"(-0.75, 0.04)",images/min1.png,12,0.0,1,0.0502477949485,0.0,[ 0.29282577  0.015625  ],1,2018_Jun_15_1634,60.1008955209,sequenceLearningTask,002,098,
min1.png,min2.png,min3.png,min4.png,images/allBlank.png,"['num_7', 'num_4', 'num_1', 'num_0']",['num_7'],num_7,[1],'num_7',images/min1.png,"[(0.45, 0.79)]",,,,,0,-1,-1,0,3,0,12,0,,,,,"(0.75, 0.04)",images/min4.png,13,0.0,1,0.0661567179486,0.0,[-0.60614934 -0.04427083],1,2018_Jun_15_1634,60.1008955209,sequenceLearningTask,002,098,
min1.png,min2.png,min3.png,min4.png,images/allBlank.png,"['num_7', 'num_4', 'num_1', 'num_0']",['num_7'],num_7,[1],'num_7',images/min1.png,"[(0.45, 0.79)]",,,,,0,-1,-1,0,3,0,12,0,,,,,"(-0.25, 0.04)",images/min2.png,13,0.0,1,0.0529620512389,0.0,[ 0.55197657 -0.02864583],1,2018_Jun_15_1634,60.1008955209,sequenceLearningTask,002,098,
min1.png,min2.png,min3.png,min4.png,images/allBlank.png,"['num_7', 'num_4', 'num_1', 'num_0']",['num_7'],num_7,[1],'num_7',images/min1.png,"[(0.45, 0.79)]",,,,,0,-1,-1,0,3,0,12,0,,,,,"(0.25, 0.04)",images/min3.png,13,0.0,1,0.0493046154734,0.0,[-0.19180088  0.06770833],1,2018_Jun_15_1634,60.1008955209,sequenceLearningTask,002,098,
min1.png,min2.png,min3.png,min4.png,images/allBlank.png,"['num_7', 'num_4', 'num_1', 'num_0']",['num_7'],num_7,[1],'num_7',images/min1.png,"[(0.45, 0.79)]",,,,,0,-1,-1,0,3,0,12,0,,,,,"(0.25, 0.04)",images/min3.png,13,,,0.0513111795299,0.0,[ 0.28257687  0.02864583],1,2018_Jun_15_1634,60.1008955209,sequenceLearningTask,002,098,
min1.png,min2.png,min3.png,min4.png,images/allBlank.png,"['num_7', 'num_4', 'num_1', 'num_0']",['num_0'],num_0,[4],'num_0',images/min4.png,"[(0.45, 0.79)]",,,,,0,-1,-1,0,3,1,13,3,,,,,"(-0.25, 0.04)",images/min2.png,14,0.0,1,0.0526190767996,0.0,[ 0.29282577  0.0078125 ],1,2018_Jun_15_1634,60.1008955209,sequenceLearningTask,002,098,
min1.png,min2.png,min3.png,min4.png,images/allBlank.png,"['num_7', 'num_4', 'num_1', 'num_0']",['num_0'],num_0,[4],'num_0',images/min4.png,"[(0.45, 0.79)]",,,,,0,-1,-1,0,3,1,13,3,,,,,"(0.25, 0.04)",images/min3.png,14,0.0,1,0.0531175385695,0.0,[-0.26647145  0.        ],1,2018_Jun_15_1634,60.1008955209,sequenceLearningTask,002,098,
min1.png,min2.png,min3.png,min4.png,images/allBlank.png,"['num_7', 'num_4', 'num_1', 'num_0']",['num_0'],num_0,[4],'num_0',images/min4.png,"[(0.45, 0.79)]",,,,,0,-1,-1,0,3,1,13,3,,,,,"(0.25, 0.04)",images/min3.png,14,,,0.0574871795252,0.0,[ 0.25768668 -0.02864583],1,2018_Jun_15_1634,60.1008955209,sequenceLearningTask,002,098,
min1.png,min2.png,min3.png,min4.png,images/allBlank.png,"['num_7', 'num_4', 'num_1', 'num_0']",['num_0'],num_0,[4],'num_0',images/min4.png,"[(0.45, 0.79)]",,,,,0,-1,-1,0,3,1,13,3,,,,,"(-0.75, 0.04)",images/min1.png,14,0.0,1,0.0312857434619,0.0,[-0.22986823 -0.02083333],1,2018_Jun_15_1634,60.1008955209,sequenceLearningTask,002,098,
min1.png,min2.png,min3.png,min4.png,images/allBlank.png,"['num_7', 'num_4', 'num_1', 'num_0']",['num_1'],num_1,[3],'num_1',images/min3.png,"[(0.45, 0.79)]",,,,,0,-1,-1,0,3,2,14,2,,,,,"(0.25, 0.04)",images/min3.png,15,0.0,1,0.0504164102022,0.0,[-0.55929722 -0.09114583],1,2018_Jun_15_1634,60.1008955209,sequenceLearningTask,002,098,
min1.png,min2.png,min3.png,min4.png,images/allBlank.png,"['num_7', 'num_4', 'num_1', 'num_0']",['num_1'],num_1,[3],'num_1',images/min3.png,"[(0.45, 0.79)]",,,,,0,-1,-1,0,3,2,14,2,,,,,"(-0.25, 0.04)",images/min2.png,15,0.0,1,0.0663421538193,0.0,[ 0.18594436 -0.078125  ],1,2018_Jun_15_1634,60.1008955209,sequenceLearningTask,002,098,
min1.png,min2.png,min3.png,min4.png,images/allBlank.png,"['num_7', 'num_4', 'num_1', 'num_0']",['num_1'],num_1,[3],'num_1',images/min3.png,"[(0.45, 0.79)]",,,,,0,-1,-1,0,3,2,14,2,,,,,"(0.25, 0.04)",images/min3.png,15,0.0,1,0.0568463588133,0.0,[-0.0761347  -0.02083333],1,2018_Jun_15_1634,60.1008955209,sequenceLearningTask,002,098,
min1.png,min2.png,min3.png,min4.png,images/allBlank.png,"['num_7', 'num_4', 'num_1', 'num_0']",['num_1'],num_1,[3],'num_1',images/min3.png,"[(0.45, 0.79)]",,,,,0,-1,-1,0,3,2,14,2,,,,,"(-0.75, 0.04)",images/min1.png,15,0.0,1,0.0593936410733,0.0,[ 0.03953148  0.00260417],1,2018_Jun_15_1634,60.1008955209,sequenceLearningTask,002,098,
min1.png,min2.png,min3.png,min4.png,images/allBlank.png,"['num_7', 'num_4', 'num_1', 'num_0']",['num_4'],num_4,[2],'num_4',images/min2.png,"[(0.45, 0.79)]",,,,,0,-1,-1,0,3,3,15,1,,,,,"(0.25, 0.04)",images/min3.png,16,,,0.050759794889,0.0,[ 0.29868228 -0.02083333],1,2018_Jun_15_1634,60.1008955209,sequenceLearningTask,002,098,
min1.png,min2.png,min3.png,min4.png,images/allBlank.png,"['num_7', 'num_4', 'num_1', 'num_0']",['num_4'],num_4,[2],'num_4',images/min2.png,"[(0.45, 0.79)]",,,,,0,-1,-1,0,3,3,15,1,,,,,"(-0.75, 0.04)",images/min1.png,16,0.0,1,0.0584549743216,0.0,[ 0.54465593 -0.015625  ],1,2018_Jun_15_1634,60.1008955209,sequenceLearningTask,002,098,
min1.png,min2.png,min3.png,min4.png,images/allBlank.png,"['num_7', 'num_4', 'num_1', 'num_0']",['num_4'],num_4,[2],'num_4',images/min2.png,"[(0.45, 0.79)]",,,,,0,-1,-1,0,3,3,15,1,,,,,"(-0.75, 0.04)",images/min1.png,16,,,0.0518502565101,0.0,[-0.74084919 -0.2890625 ],1,2018_Jun_15_1634,60.1008955209,sequenceLearningTask,002,098,
min1.png,min2.png,min3.png,min4.png,images/allBlank.png,"['num_7', 'num_4', 'num_1', 'num_0']",['num_4'],num_4,[2],'num_4',images/min2.png,"[(0.45, 0.79)]",,,,,0,-1,-1,0,3,3,15,1,,,,,"(0.75, 0.04)",images/min4.png,16,0.0,1,0.0663515897468,0.0,[-0.69253294 -0.203125  ],1,2018_Jun_15_1634,60.1008955209,sequenceLearningTask,002,098,
min1.png,min2.png,min3.png,min4.png,images/allBlank.png,"['num_7', 'num_4', 'num_1', 'num_0']",['num_1'],num_1,[3],'num_1',images/min3.png,"[(0.45, 0.79)]",,,,,0,-1,-1,0,4,0,16,2,,,,,"(-0.25, 0.04)",images/min2.png,17,0.0,1,0.0531138461083,0.0,[ 0.62811127  0.04947917],1,2018_Jun_15_1634,60.1008955209,sequenceLearningTask,002,098,
min1.png,min2.png,min3.png,min4.png,images/allBlank.png,"['num_7', 'num_4', 'num_1', 'num_0']",['num_1'],num_1,[3],'num_1',images/min3.png,"[(0.45, 0.79)]",,,,,0,-1,-1,0,4,0,16,2,,,,,"(0.75, 0.04)",images/min4.png,17,0.0,1,0.05442748731,0.0,[-0.55197657 -0.14583333],1,2018_Jun_15_1634,60.1008955209,sequenceLearningTask,002,098,
min1.png,min2.png,min3.png,min4.png,images/allBlank.png,"['num_7', 'num_4', 'num_1', 'num_0']",['num_1'],num_1,[3],'num_1',images/min3.png,"[(0.45, 0.79)]",,,,,0,-1,-1,0,4,0,16,2,,,,,"(0.25, 0.04)",images/min3.png,17,0.0,1,0.0620114870835,0.0,[ 0.72181552 -0.06510417],1,2018_Jun_15_1634,60.1008955209,sequenceLearningTask,002,098,
min1.png,min2.png,min3.png,min4.png,images/allBlank.png,"['num_7', 'num_4', 'num_1', 'num_0']",['num_1'],num_1,[3],'num_1',images/min3.png,"[(0.45, 0.79)]",,,,,0,-1,-1,0,4,0,16,2,,,,,"(-0.25, 0.04)",images/min2.png,17,0.0,1,0.0701280001085,0.0,[-0.58272328 -0.31510417],1,2018_Jun_15_1634,60.1008955209,sequenceLearningTask,002,098,
min1.png,min2.png,min3.png,min4.png,images/allBlank.png,"['num_7', 'num_4', 'num_1', 'num_0']",['num_7'],num_7,[1],'num_7',images/min1.png,"[(0.45, 0.79)]",,,,,0,-1,-1,0,4,1,17,0,,,,,"(-0.75, 0.04)",images/min1.png,18,0.402611692436,1,0.0615757948253,0.402611692436,[ 0.11273792 -0.23697917],,2018_Jun_15_1634,60.1008955209,sequenceLearningTask,002,098,
min1.png,min2.png,min3.png,min4.png,images/allBlank.png,"['num_7', 'num_4', 'num_1', 'num_0']",['num_7'],num_7,[1],'num_7',images/min1.png,"[(0.45, 0.79)]",,,,,0,-1,-1,0,4,1,17,0,,,,,"(0.75, 0.04)",images/min4.png,18,0.0,1,0.023808820406,0.0,[-0.60175695 -0.03385417],1,2018_Jun_15_1634,60.1008955209,sequenceLearningTask,002,098,
min1.png,min2.png,min3.png,min4.png,images/allBlank.png,"['num_7', 'num_4', 'num_1', 'num_0']",['num_7'],num_7,[1],'num_7',images/min1.png,"[(0.45, 0.79)]",,,,,0,-1,-1,0,4,1,17,0,,,,,"(0.75, 0.04)",images/min4.png,18,,,0.0521723076236,0.0,[ 0.7057101  0.109375 ],1,2018_Jun_15_1634,60.1008955209,sequenceLearningTask,002,098,
min1.png,min2.png,min3.png,min4.png,images/allBlank.png,"['num_7', 'num_4', 'num_1', 'num_0']",['num_7'],num_7,[1],'num_7',images/min1.png,"[(0.45, 0.79)]",,,,,0,-1,-1,0,4,1,17,0,,,,,"(-0.25, 0.04)",images/min2.png,18,,,0.0561345641036,0.0,[-0.39677892  0.09635417],1,2018_Jun_15_1634,60.1008955209,sequenceLearningTask,002,098,
min1.png,min2.png,min3.png,min4.png,images/allBlank.png,"['num_7', 'num_4', 'num_1', 'num_0']",['num_0'],num_0,[4],'num_0',images/min4.png,"[(0.45, 0.79)]",,,,,0,-1,-1,0,4,2,18,3,,,,,"(-0.25, 0.04)",images/min2.png,19,0.0,1,0.0554363077972,0.0,[ 0.4670571   0.08854167],1,2018_Jun_15_1634,60.1008955209,sequenceLearningTask,002,098,
min1.png,min2.png,min3.png,min4.png,images/allBlank.png,"['num_7', 'num_4', 'num_1', 'num_0']",['num_0'],num_0,[4],'num_0',images/min4.png,"[(0.45, 0.79)]",,,,,0,-1,-1,0,4,2,18,3,,,,,"(0.75, 0.04)",images/min4.png,19,0.0,1,0.0675556925125,0.0,[-0.32650073  0.078125  ],1,2018_Jun_15_1634,60.1008955209,sequenceLearningTask,002,098,
min1.png,min2.png,min3.png,min4.png,images/allBlank.png,"['num_7', 'num_4', 'num_1', 'num_0']",['num_0'],num_0,[4],'num_0',images/min4.png,"[(0.45, 0.79)]",,,,,0,-1,-1,0,4,2,18,3,,,,,"(-0.25, 0.04)",images/min2.png,19,0.0,1,0.0575753846206,0.0,[ 0.88579795  0.06770833],1,2018_Jun_15_1634,60.1008955209,sequenceLearningTask,002,098,
min1.png,min2.png,min3.png,min4.png,images/allBlank.png,"['num_7', 'num_4', 'num_1', 'num_0']",['num_0'],num_0,[4],'num_0',images/min4.png,"[(0.45, 0.79)]",,,,,0,-1,-1,0,4,2,18,3,,,,,"(0.75, 0.04)",images/min4.png,19,0.0,1,0.0522198975086,0.0,[-0.25475842 -0.0703125 ],1,2018_Jun_15_1634,60.1008955209,sequenceLearningTask,002,098,
min1.png,min2.png,min3.png,min4.png,images/allBlank.png,"['num_7', 'num_4', 'num_1', 'num_0']",['num_4'],num_4,[2],'num_4',images/min2.png,"[(0.45, 0.79)]",,,,,0,-1,-1,0,4,3,19,1,,,,,"(-0.25, 0.04)",images/min2.png,20,0.0,1,0.0544804104138,0.0,[ 0.72035139 -0.03385417],1,2018_Jun_15_1634,60.1008955209,sequenceLearningTask,002,098,
min1.png,min2.png,min3.png,min4.png,images/allBlank.png,"['num_7', 'num_4', 'num_1', 'num_0']",['num_4'],num_4,[2],'num_4',images/min2.png,"[(0.45, 0.79)]",,,,,0,-1,-1,0,4,3,19,1,,,,,"(-0.25, 0.04)",images/min2.png,20,0.0,1,0.0578851280734,0.0,[-0.5636896  -0.40364583],1,2018_Jun_15_1634,60.1008955209,sequenceLearningTask,002,098,
min1.png,min2.png,min3.png,min4.png,images/allBlank.png,"['num_7', 'num_4', 'num_1', 'num_0']",['num_4'],num_4,[2],'num_4',images/min2.png,"[(0.45, 0.79)]",,,,,0,-1,-1,0,4,3,19,1,,,,,"(0.75, 0.04)",images/min4.png,20,,,0.0576278974768,0.0,[ 0.62518302  0.0625    ],1,2018_Jun_15_1634,60.1008955209,sequenceLearningTask,002,098,
min1.png,min2.png,min3.png,min4.png,images/allBlank.png,"['num_7', 'num_4', 'num_1', 'num_0']",['num_4'],num_4,[2],'num_4',images/min2.png,"[(0.45, 0.79)]",,,,,0,-1,-1,0,4,3,19,1,,,,,"(-0.75, 0.04)",images/min1.png,20,0.0,1,0.0573866665363,0.0,[-0.03221083 -0.05989583],1,2018_Jun_15_1634,60.1008955209,sequenceLearningTask,002,098,
min1.png,min2.png,min3.png,min4.png,images/allBlank.png,"['num_7', 'num_4', 'num_1', 'num_0']",['num_4'],num_4,[2],'num_4',images/min2.png,"[(0.45, 0.79)]",,,,,0,-1,-1,0,0,0,0,1,,,,,"(0.25, 0.04)",images/min3.png,1,0.0,1,0.0351930256002,0.0,[-0.08052709 -0.02083333],1,2018_Jun_15_1634,60.1008955209,sequenceLearningTask,002,098,
min1.png,min2.png,min3.png,min4.png,images/allBlank.png,"['num_7', 'num_4', 'num_1', 'num_0']",['num_4'],num_4,[2],'num_4',images/min2.png,"[(0.45, 0.79)]",,,,,0,-1,-1,0,0,0,0,1,,,,,"(0.75, 0.04)",images/min4.png,1,0.0,1,0.0671056408901,0.0,[ 0.238653    0.04166667],1,2018_Jun_15_1634,60.1008955209,sequenceLearningTask,002,098,
min1.png,min2.png,min3.png,min4.png,images/allBlank.png,"['num_7', 'num_4', 'num_1', 'num_0']",['num_4'],num_4,[2],'num_4',images/min2.png,"[(0.45, 0.79)]",,,,,0,-1,-1,0,0,0,0,1,,,,,"(-0.75, 0.04)",images/min1.png,1,0.0,1,0.0594629743136,0.0,[ 0.56808199  0.10416667],1,2018_Jun_15_1634,60.1008955209,sequenceLearningTask,002,098,
min1.png,min2.png,min3.png,min4.png,images/allBlank.png,"['num_7', 'num_4', 'num_1', 'num_0']",['num_4'],num_4,[2],'num_4',images/min2.png,"[(0.45, 0.79)]",,,,,0,-1,-1,0,0,0,0,1,,,,,"(0.25, 0.04)",images/min3.png,1,0.0,1,0.0582104616333,0.0,[-0.68814056 -0.09375   ],1,2018_Jun_15_1634,60.1008955209,sequenceLearningTask,002,098,
min1.png,min2.png,min3.png,min4.png,images/allBlank.png,"['num_7', 'num_4', 'num_1', 'num_0']",['num_0'],num_0,[4],'num_0',images/min4.png,"[(0.45, 0.79)]",,,,,0,-1,-1,0,0,1,1,3,,,,,"(-0.75, 0.04)",images/min1.png,2,0.0,1,0.0574276924599,0.0,[ 0.22693997  0.0234375 ],1,2018_Jun_15_1634,60.1008955209,sequenceLearningTask,002,098,
min1.png,min2.png,min3.png,min4.png,images/allBlank.png,"['num_7', 'num_4', 'num_1', 'num_0']",['num_0'],num_0,[4],'num_0',images/min4.png,"[(0.45, 0.79)]",,,,,0,-1,-1,0,0,1,1,3,,,,,"(-0.25, 0.04)",images/min2.png,2,0.0,1,0.0584771281574,0.0,[-0.74816984  0.06770833],1,2018_Jun_15_1634,60.1008955209,sequenceLearningTask,002,098,
min1.png,min2.png,min3.png,min4.png,images/allBlank.png,"['num_7', 'num_4', 'num_1', 'num_0']",['num_0'],num_0,[4],'num_0',images/min4.png,"[(0.45, 0.79)]",,,,,0,-1,-1,0,0,1,1,3,,,,,"(0.75, 0.04)",images/min4.png,2,0.0,1,0.0583109743893,0.0,[-0.1317716   0.13541667],1,2018_Jun_15_1634,60.1008955209,sequenceLearningTask,002,098,
min1.png,min2.png,min3.png,min4.png,images/allBlank.png,"['num_7', 'num_4', 'num_1', 'num_0']",['num_0'],num_0,[4],'num_0',images/min4.png,"[(0.45, 0.79)]",,,,,0,-1,-1,0,0,1,1,3,,,,,"(-0.25, 0.04)",images/min2.png,2,0.0,1,0.051597538637,0.0,[ 0.6749634  0.1640625],1,2018_Jun_15_1634,60.1008955209,sequenceLearningTask,002,098,
min1.png,min2.png,min3.png,min4.png,images/allBlank.png,"['num_7', 'num_4', 'num_1', 'num_0']",['num_7'],num_7,[1],'num_7',images/min1.png,"[(0.45, 0.79)]",,,,,0,-1,-1,0,0,2,2,0,,,,,"(0.75, 0.04)",images/min4.png,3,0.0,1,0.057348102564,0.0,[-0.2489019   0.09895833],1,2018_Jun_15_1634,60.1008955209,sequenceLearningTask,002,098,
min1.png,min2.png,min3.png,min4.png,images/allBlank.png,"['num_7', 'num_4', 'num_1', 'num_0']",['num_7'],num_7,[1],'num_7',images/min1.png,"[(0.45, 0.79)]",,,,,0,-1,-1,0,0,2,2,0,,,,,"(0.25, 0.04)",images/min3.png,3,0.0,1,0.057223794749,0.0,[ 0.66178624  0.17708333],1,2018_Jun_15_1634,60.1008955209,sequenceLearningTask,002,098,
min1.png,min2.png,min3.png,min4.png,images/allBlank.png,"['num_7', 'num_4', 'num_1', 'num_0']",['num_7'],num_7,[1],'num_7',images/min1.png,"[(0.45, 0.79)]",,,,,0,-1,-1,0,0,2,2,0,,,,,"(0.25, 0.04)",images/min3.png,3,,,0.0504131282214,0.0,[ 0.3704246   0.24739583],1,2018_Jun_15_1634,60.1008955209,sequenceLearningTask,002,098,
min1.png,min2.png,min3.png,min4.png,images/allBlank.png,"['num_7', 'num_4', 'num_1', 'num_0']",['num_7'],num_7,[1],'num_7',images/min1.png,"[(0.45, 0.79)]",,,,,0,-1,-1,0,0,2,2,0,,,,,"(-0.25, 0.04)",images/min2.png,3,0.0,1,0.0541870768648,0.0,[ 0.13469985  0.23697917],1,2018_Jun_15_1634,60.1008955209,sequenceLearningTask,002,098,
min1.png,min2.png,min3.png,min4.png,images/allBlank.png,"['num_7', 'num_4', 'num_1', 'num_0']",['num_1'],num_1,[3],'num_1',images/min3.png,"[(0.45, 0.79)]",,,,,0,-1,-1,0,0,3,3,2,,,,,"(0.25, 0.04)",images/min3.png,4,0.0,1,0.0500004102942,0.0,[-0.35871157  0.11979167],1,2018_Jun_15_1634,60.1008955209,sequenceLearningTask,002,098,
min1.png,min2.png,min3.png,min4.png,images/allBlank.png,"['num_7', 'num_4', 'num_1', 'num_0']",['num_1'],num_1,[3],'num_1',images/min3.png,"[(0.45, 0.79)]",,,,,0,-1,-1,0,0,3,3,2,,,,,"(-0.25, 0.04)",images/min2.png,4,0.0,1,0.0576713846531,0.0,[ 0.27086384 -0.05729167],1,2018_Jun_15_1634,60.1008955209,sequenceLearningTask,002,098,
min1.png,min2.png,min3.png,min4.png,images/allBlank.png,"['num_7', 'num_4', 'num_1', 'num_0']",['num_1'],num_1,[3],'num_1',images/min3.png,"[(0.45, 0.79)]",,,,,0,-1,-1,0,0,3,3,2,,,,,"(0.75, 0.04)",images/min4.png,4,0.0,1,0.0572717948817,0.0,[-0.09077599  0.06510417],1,2018_Jun_15_1634,60.1008955209,sequenceLearningTask,002,098,
min1.png,min2.png,min3.png,min4.png,images/allBlank.png,"['num_7', 'num_4', 'num_1', 'num_0']",['num_1'],num_1,[3],'num_1',images/min3.png,"[(0.45, 0.79)]",,,,,0,-1,-1,0,0,3,3,2,,,,,"(0.25, 0.04)",images/min3.png,4,0.0,1,0.0687622562982,0.0,[ 0.65446559  0.06510417],1,2018_Jun_15_1634,60.1008955209,sequenceLearningTask,002,098,
min1.png,min2.png,min3.png,min4.png,images/allBlank.png,"['num_7', 'num_4', 'num_1', 'num_0']",['num_0'],num_0,[4],'num_0',images/min4.png,"[(0.45, 0.79)]",,,,,0,-1,-1,0,1,0,4,3,,,,,"(0.75, 0.04)",images/min4.png,5,0.0,1,0.0527798975818,0.0,[ 0.14348463  0.140625  ],1,2018_Jun_15_1634,60.1008955209,sequenceLearningTask,002,098,
min1.png,min2.png,min3.png,min4.png,images/allBlank.png,"['num_7', 'num_4', 'num_1', 'num_0']",['num_0'],num_0,[4],'num_0',images/min4.png,"[(0.45, 0.79)]",,,,,0,-1,-1,0,1,0,4,3,,,,,"(-0.25, 0.04)",images/min2.png,5,0.0,1,0.0500586666167,0.0,[ 0.67935578  0.20572917],1,2018_Jun_15_1634,60.1008955209,sequenceLearningTask,002,098,
min1.png,min2.png,min3.png,min4.png,images/allBlank.png,"['num_7', 'num_4', 'num_1', 'num_0']",['num_0'],num_0,[4],'num_0',images/min4.png,"[(0.45, 0.79)]",,,,,0,-1,-1,0,1,0,4,3,,,,,"(-0.25, 0.04)",images/min2.png,5,,,0.059661538573,0.0,[-0.36456808  0.11458333],1,2018_Jun_15_1634,60.1008955209,sequenceLearningTask,002,098,
min1.png,min2.png,min3.png,min4.png,images/allBlank.png,"['num_7', 'num_4', 'num_1', 'num_0']",['num_0'],num_0,[4],'num_0',images/min4.png,"[(0.45, 0.79)]",,,,,0,-1,-1,0,1,0,4,3,,,,,"(-0.75, 0.04)",images/min1.png,5,0.0,1,0.0411228716839,0.0,[-0.12884334  0.15625   ],1,2018_Jun_15_1634,60.1008955209,sequenceLearningTask,002,098,
min1.png,min2.png,min3.png,min4.png,images/allBlank.png,"['num_7', 'num_4', 'num_1', 'num_0']",['num_4'],num_4,[2],'num_4',images/min2.png,"[(0.45, 0.79)]",,,,,0,-1,-1,0,1,1,5,1,,,,,"(-0.75, 0.04)",images/min1.png,6,,,0.0512676923536,0.0,[-0.62225476  0.0390625 ],1,2018_Jun_15_1634,60.1008955209,sequenceLearningTask,002,098,
min1.png,min2.png,min3.png,min4.png,images/allBlank.png,"['num_7', 'num_4', 'num_1', 'num_0']",['num_4'],num_4,[2],'num_4',images/min2.png,"[(0.45, 0.79)]",,,,,0,-1,-1,0,1,1,5,1,,,,,"(-0.75, 0.04)",images/min1.png,6,,,0.0699552821461,0.532978871837,[-0.58272328  0.04166667],,2018_Jun_15_1634,60.1008955209,sequenceLearningTask,002,098,
min1.png,min2.png,min3.png,min4.png,images/allBlank.png,"['num_7', 'num_4', 'num_1', 'num_0']",['num_4'],num_4,[2],'num_4',images/min2.png,"[(0.45, 0.79)]",,,,,0,-1,-1,0,1,1,5,1,,,,,"(0.25, 0.04)",images/min3.png,6,0.0,1,0.0516258461867,0.0,[-0.58272328  0.0390625 ],1,2018_Jun_15_1634,60.1008955209,sequenceLearningTask,002,098,
min1.png,min2.png,min3.png,min4.png,images/allBlank.png,"['num_7', 'num_4', 'num_1', 'num_0']",['num_4'],num_4,[2],'num_4',images/min2.png,"[(0.45, 0.79)]",,,,,0,-1,-1,0,1,1,5,1,,,,,"(-0.25, 0.04)",images/min2.png,6,0.0,1,0.0512882051989,0.0,[ 0.30014641  0.21354167],1,2018_Jun_15_1634,60.1008955209,sequenceLearningTask,002,098,
min1.png,min2.png,min3.png,min4.png,images/allBlank.png,"['num_7', 'num_4', 'num_1', 'num_0']",['num_1'],num_1,[3],'num_1',images/min3.png,"[(0.45, 0.79)]",,,,,0,-1,-1,0,1,2,6,2,,,,,"(-0.25, 0.04)",images/min2.png,7,0.0,1,0.0522945642006,0.0,[-0.71010249 -0.1171875 ],1,2018_Jun_15_1634,60.1008955209,sequenceLearningTask,002,098,
min1.png,min2.png,min3.png,min4.png,images/allBlank.png,"['num_7', 'num_4', 'num_1', 'num_0']",['num_1'],num_1,[3],'num_1',images/min3.png,"[(0.45, 0.79)]",,,,,0,-1,-1,0,1,2,6,2,,,,,"(-0.25, 0.04)",images/min2.png,7,0.0979380512144,1,0.0538740514312,0.0979380512144,[ 0.39824305 -0.01041667],,2018_Jun_15_1634,60.1008955209,sequenceLearningTask,002,098,
min1.png,min2.png,min3.png,min4.png,images/allBlank.png,"['num_7', 'num_4', 'num_1', 'num_0']",['num_1'],num_1,[3],'num_1',images/min3.png,"[(0.45, 0.79)]",,,,,0,-1,-1,0,1,2,6,2,,,,,"(0.25, 0.04)",images/min3.png,7,0.0,1,0.0568110768218,0.0,[-0.42313324 -0.09635417],1,2018_Jun_15_1634,60.1008955209,sequenceLearningTask,002,098,
min1.png,min2.png,min3.png,min4.png,images/allBlank.png,"['num_7', 'num_4', 'num_1', 'num_0']",['num_1'],num_1,[3],'num_1',images/min3.png,"[(0.45, 0.79)]",,,,,0,-1,-1,0,1,2,6,2,,,,,"(0.25, 0.04)",images/min3.png,7,,,0.056337230606,0.0,[ 0.31918009  0.10677083],1,2018_Jun_15_1634,60.1008955209,sequenceLearningTask,002,098,
min1.png,min2.png,min3.png,min4.png,images/allBlank.png,"['num_7', 'num_4', 'num_1', 'num_0']",['num_7'],num_7,[1],'num_7',images/min1.png,"[(0.45, 0.79)]",,,,,0,-1,-1,0,1,3,7,0,,,,,"(0.75, 0.04)",images/min4.png,8,0.0,1,0.0525522050448,0.0,[ 0.09077599  0.0078125 ],1,2018_Jun_15_1634,60.1008955209,sequenceLearningTask,002,098,
min1.png,min2.png,min3.png,min4.png,images/allBlank.png,"['num_7', 'num_4', 'num_1', 'num_0']",['num_7'],num_7,[1],'num_7',images/min1.png,"[(0.45, 0.79)]",,,,,0,-1,-1,0,1,3,7,0,,,,,"(-0.75, 0.04)",images/min1.png,8,0.0,1,0.0662313846406,0.0,[ 0.8579795   0.05208333],1,2018_Jun_15_1634,60.1008955209,sequenceLearningTask,002,098,
min1.png,min2.png,min3.png,min4.png,images/allBlank.png,"['num_7', 'num_4', 'num_1', 'num_0']",['num_7'],num_7,[1],'num_7',images/min1.png,"[(0.45, 0.79)]",,,,,0,-1,-1,0,1,3,7,0,,,,,"(0.75, 0.04)",images/min4.png,8,0.0,1,0.0654859486967,0.0,[-0.70278184 -0.0546875 ],1,2018_Jun_15_1634,60.1008955209,sequenceLearningTask,002,098,
min1.png,min2.png,min3.png,min4.png,images/allBlank.png,"['num_7', 'num_4', 'num_1', 'num_0']",['num_7'],num_7,[1],'num_7',images/min1.png,"[(0.45, 0.79)]",,,,,0,-1,-1,0,1,3,7,0,,,,,"(0.75, 0.04)",images/min4.png,8,,,0.0660069743171,0.0,[ 0.82430454  0.04166667],1,2018_Jun_15_1634,60.1008955209,sequenceLearningTask,002,098,
min1.png,min2.png,min3.png,min4.png,images/allBlank.png,"['num_7', 'num_4', 'num_1', 'num_0']",['num_0'],num_0,[4],'num_0',images/min4.png,"[(0.45, 0.79)]",,,,,0,-1,-1,0,2,0,8,3,,,,,"(-0.25, 0.04)",images/min2.png,9,0.0,1,0.062388102524,0.0,[-0.5534407 -0.1875   ],1,2018_Jun_15_1634,60.1008955209,sequenceLearningTask,002,098,
min1.png,min2.png,min3.png,min4.png,images/allBlank.png,"['num_7', 'num_4', 'num_1', 'num_0']",['num_0'],num_0,[4],'num_0',images/min4.png,"[(0.45, 0.79)]",,,,,0,-1,-1,0,2,0,8,3,,,,,"(-0.75, 0.04)",images/min1.png,9,0.0,1,0.0663249231875,0.0,[ 0.51683748  0.1171875 ],1,2018_Jun_15_1634,60.1008955209,sequenceLearningTask,002,098,
min1.png,min2.png,min3.png,min4.png,images/allBlank.png,"['num_7', 'num_4', 'num_1', 'num_0']",['num_0'],num_0,[4],'num_0',images/min4.png,"[(0.45, 0.79)]",,,,,0,-1,-1,0,2,0,8,3,,,,,"(0.25, 0.04)",images/min3.png,9,0.0,1,0.0665435898118,0.0,[-0.72327965 -0.05208333],1,2018_Jun_15_1634,60.1008955209,sequenceLearningTask,002,098,
min1.png,min2.png,min3.png,min4.png,images/allBlank.png,"['num_7', 'num_4', 'num_1', 'num_0']",['num_0'],num_0,[4],'num_0',images/min4.png,"[(0.45, 0.79)]",,,,,0,-1,-1,0,2,0,8,3,,,,,"(0.75, 0.04)",images/min4.png,9,,,0.0747462564614,0.0,[ 0.41727672  0.01041667],1,2018_Jun_15_1634,60.1008955209,sequenceLearningTask,002,098,
min1.png,min2.png,min3.png,min4.png,images/allBlank.png,"['num_7', 'num_4', 'num_1', 'num_0']",['num_1'],num_1,[3],'num_1',images/min3.png,"[(0.45, 0.79)]",,,,,0,-1,-1,0,2,1,9,2,,,,,"(0.75, 0.04)",images/min4.png,10,0.0,1,0.0628804103471,0.0,[-0.17569546  0.0078125 ],1,2018_Jun_15_1634,60.1008955209,sequenceLearningTask,002,098,
min1.png,min2.png,min3.png,min4.png,images/allBlank.png,"['num_7', 'num_4', 'num_1', 'num_0']",['num_1'],num_1,[3],'num_1',images/min3.png,"[(0.45, 0.79)]",,,,,0,-1,-1,0,2,1,9,2,,,,,"(0.75, 0.04)",images/min4.png,10,,,0.0649329230655,0.0,[ 0.9136164  0.09375  ],1,2018_Jun_15_1634,60.1008955209,sequenceLearningTask,002,098,
min1.png,min2.png,min3.png,min4.png,images/allBlank.png,"['num_7', 'num_4', 'num_1', 'num_0']",['num_1'],num_1,[3],'num_1',images/min3.png,"[(0.45, 0.79)]",,,,,0,-1,-1,0,2,1,9,2,,,,,"(-0.75, 0.04)",images/min1.png,10,0.0,1,0.0557784615085,0.0,[-0.3601757  -0.09635417],1,2018_Jun_15_1634,60.1008955209,sequenceLearningTask,002,098,
min1.png,min2.png,min3.png,min4.png,images/allBlank.png,"['num_7', 'num_4', 'num_1', 'num_0']",['num_1'],num_1,[3],'num_1',images/min3.png,"[(0.45, 0.79)]",,,,,0,-1,-1,0,2,1,9,2,,,,,"(0.75, 0.04)",images/min4.png,10,0.0,1,0.0601037950255,0.0,[-0.85358712 -0.21354167],1,2018_Jun_15_1634,60.1008955209,sequenceLearningTask,002,098,
min1.png,min2.png,min3.png,min4.png,images/allBlank.png,"['num_7', 'num_4', 'num_1', 'num_0']",['num_7'],num_7,[1],'num_7',images/min1.png,"[(0.45, 0.79)]",,,,,0,-1,-1,0,2,2,10,0,,,,,"(0.25, 0.04)",images/min3.png,11,0.0,1,0.0624578462448,0.0,[ 0.67057101 -0.15625   ],1,2018_Jun_15_1634,60.1008955209,sequenceLearningTask,002,098,
min1.png,min2.png,min3.png,min4.png,images/allBlank.png,"['num_7', 'num_4', 'num_1', 'num_0']",['num_7'],num_7,[1],'num_7',images/min1.png,"[(0.45, 0.79)]",,,,,0,-1,-1,0,2,2,10,0,,,,,"(-0.75, 0.04)",images/min1.png,11,0.0,1,0.0669833845459,0.0,[-0.39824305 -0.23697917],1,2018_Jun_15_1634,60.1008955209,sequenceLearningTask,002,098,
min1.png,min2.png,min3.png,min4.png,images/allBlank.png,"['num_7', 'num_4', 'num_1', 'num_0']",['num_7'],num_7,[1],'num_7',images/min1.png,"[(0.45, 0.79)]",,,,,0,-1,-1,0,2,2,10,0,,,,,"(-0.25, 0.04)",images/min2.png,11,0.0,1,0.0565279999282,0.0,[-0.81698389 -0.17447917],1,2018_Jun_15_1634,60.1008955209,sequenceLearningTask,002,098,
min1.png,min2.png,min3.png,min4.png,images/allBlank.png,"['num_7', 'num_4', 'num_1', 'num_0']",['num_7'],num_7,[1],'num_7',images/min1.png,"[(0.45, 0.79)]",,,,,0,-1,-1,0,2,2,10,0,,,,,"(0.25, 0.04)",images/min3.png,11,,,0.0631995899603,0.0,[ 0.21229868  0.03125   ],1,2018_Jun_15_1634,60.1008955209,sequenceLearningTask,002,098,
min1.png,min2.png,min3.png,min4.png,images/allBlank.png,"['num_7', 'num_4', 'num_1', 'num_0']",['num_4'],num_4,[2],'num_4',images/min2.png,"[(0.45, 0.79)]",,,,,0,-1,-1,0,2,3,11,1,,,,,"(0.75, 0.04)",images/min4.png,12,,,0.0496258460917,0.0,[ 0.73645681  0.15104167],1,2018_Jun_15_1634,60.1008955209,sequenceLearningTask,002,098,
min1.png,min2.png,min3.png,min4.png,images/allBlank.png,"['num_7', 'num_4', 'num_1', 'num_0']",['num_4'],num_4,[2],'num_4',images/min2.png,"[(0.45, 0.79)]",,,,,0,-1,-1,0,2,3,11,1,,,,,"(0.25, 0.04)",images/min3.png,12,0.0,1,0.055487179663,0.0,[ 0.67789165  0.13802083],1,2018_Jun_15_1634,60.1008955209,sequenceLearningTask,002,098,
min1.png,min2.png,min3.png,min4.png,images/allBlank.png,"['num_7', 'num_4', 'num_1', 'num_0']",['num_4'],num_4,[2],'num_4',images/min2.png,"[(0.45, 0.79)]",,,,,0,-1,-1,0,2,3,11,1,,,,,"(-0.25, 0.04)",images/min2.png,12,0.0,1,0.0644475899171,0.0,[ 0.29575403  0.13020833],1,2018_Jun_15_1634,60.1008955209,sequenceLearningTask,002,098,
min1.png,min2.png,min3.png,min4.png,images/allBlank.png,"['num_7', 'num_4', 'num_1', 'num_0']",['num_4'],num_4,[2],'num_4',images/min2.png,"[(0.45, 0.79)]",,,,,0,-1,-1,0,2,3,11,1,,,,,"(0.75, 0.04)",images/min4.png,12,0.0,1,0.055416615447,0.0,[-0.3704246  -0.02864583],1,2018_Jun_15_1634,60.1008955209,sequenceLearningTask,002,098,
min1.png,min2.png,min3.png,min4.png,images/allBlank.png,"['num_7', 'num_4', 'num_1', 'num_0']",['num_1'],num_1,[3],'num_1',images/min3.png,"[(0.45, 0.79)]",,,,,0,-1,-1,0,3,0,12,2,,,,,"(-0.25, 0.04)",images/min2.png,13,0.0,1,0.0644291280769,0.0,[ 0.89311859  0.13020833],1,2018_Jun_15_1634,60.1008955209,sequenceLearningTask,002,098,
min1.png,min2.png,min3.png,min4.png,images/allBlank.png,"['num_7', 'num_4', 'num_1', 'num_0']",['num_1'],num_1,[3],'num_1',images/min3.png,"[(0.45, 0.79)]",,,,,0,-1,-1,0,3,0,12,2,,,,,"(-0.25, 0.04)",images/min2.png,13,,,0.0510157949757,0.0,[-0.28989751 -0.1015625 ],1,2018_Jun_15_1634,60.1008955209,sequenceLearningTask,002,098,
min1.png,min2.png,min3.png,min4.png,images/allBlank.png,"['num_7', 'num_4', 'num_1', 'num_0']",['num_1'],num_1,[3],'num_1',images/min3.png,"[(0.45, 0.79)]",,,,,0,-1,-1,0,3,0,12,2,,,,,"(-0.75, 0.04)",images/min1.png,13,,,0.0623749743681,0.0,[-0.66910688 -0.1015625 ],1,2018_Jun_15_1634,60.1008955209,sequenceLearningTask,002,098,
min1.png,min2.png,min3.png,min4.png,images/allBlank.png,"['num_7', 'num_4', 'num_1', 'num_0']",['num_1'],num_1,[3],'num_1',images/min3.png,"[(0.45, 0.79)]",,,,,0,-1,-1,0,3,0,12,2,,,,,"(-0.25, 0.04)",images/min2.png,13,,,0.0565989743918,0.0,[-0.25622255 -0.0390625 ],1,2018_Jun_15_1634,60.1008955209,sequenceLearningTask,002,098,
min1.png,min2.png,min3.png,min4.png,images/allBlank.png,"['num_7', 'num_4', 'num_1', 'num_0']",['num_7'],num_7,[1],'num_7',images/min1.png,"[(0.45, 0.79)]",,,,,0,-1,-1,0,3,1,13,0,,,,,"(0.75, 0.04)",images/min4.png,14,0.0,1,0.0673608204816,0.0,[ 0.07759883  0.0390625 ],1,2018_Jun_15_1634,60.1008955209,sequenceLearningTask,002,098,
min1.png,min2.png,min3.png,min4.png,images/allBlank.png,"['num_7', 'num_4', 'num_1', 'num_0']",['num_7'],num_7,[1],'num_7',images/min1.png,"[(0.45, 0.79)]",,,,,0,-1,-1,0,3,1,13,0,,,,,"(-0.75, 0.04)",images/min1.png,14,0.0,1,0.0601649230812,0.0,[ 0.88433382  0.11458333],1,2018_Jun_15_1634,60.1008955209,sequenceLearningTask,002,098,
min1.png,min2.png,min3.png,min4.png,images/allBlank.png,"['num_7', 'num_4', 'num_1', 'num_0']",['num_7'],num_7,[1],'num_7',images/min1.png,"[(0.45, 0.79)]",,,,,0,-1,-1,0,3,1,13,0,,,,,"(0.75, 0.04)",images/min4.png,14,0.0,1,0.0555876921862,0.0,[-0.52415813  0.04947917],1,2018_Jun_15_1634,60.1008955209,sequenceLearningTask,002,098,
min1.png,min2.png,min3.png,min4.png,images/allBlank.png,"['num_7', 'num_4', 'num_1', 'num_0']",['num_7'],num_7,[1],'num_7',images/min1.png,"[(0.45, 0.79)]",,,,,0,-1,-1,0,3,1,13,0,,,,,"(-0.75, 0.04)",images/min1.png,14,0.0,1,0.0608512819745,0.0,[ 0.79795022  0.06770833],1,2018_Jun_15_1634,60.1008955209,sequenceLearningTask,002,098,
min1.png,min2.png,min3.png,min4.png,images/allBlank.png,"['num_7', 'num_4', 'num_1', 'num_0']",['num_0'],num_0,[4],'num_0',images/min4.png,"[(0.45, 0.79)]",,,,,0,-1,-1,0,3,2,14,3,,,,,"(-0.75, 0.04)",images/min1.png,15,0.0,1,0.0512668718584,0.0,[-0.44509517  0.        ],1,2018_Jun_15_1634,60.1008955209,sequenceLearningTask,002,098,
min1.png,min2.png,min3.png,min4.png,images/allBlank.png,"['num_7', 'num_4', 'num_1', 'num_0']",['num_0'],num_0,[4],'num_0',images/min4.png,"[(0.45, 0.79)]",,,,,0,-1,-1,0,3,2,14,3,,,,,"(0.25, 0.04)",images/min3.png,15,0.0,1,0.0542818461545,0.0,[-0.58565154 -0.11458333],1,2018_Jun_15_1634,60.1008955209,sequenceLearningTask,002,098,
min1.png,min2.png,min3.png,min4.png,images/allBlank.png,"['num_7', 'num_4', 'num_1', 'num_0']",['num_0'],num_0,[4],'num_0',images/min4.png,"[(0.45, 0.79)]",,,,,0,-1,-1,0,3,2,14,3,,,,,"(-0.25, 0.04)",images/min2.png,15,0.0,1,0.0538399999496,0.0,[ 0.46412884 -0.0859375 ],1,2018_Jun_15_1634,60.1008955209,sequenceLearningTask,002,098,
min1.png,min2.png,min3.png,min4.png,images/allBlank.png,"['num_7', 'num_4', 'num_1', 'num_0']",['num_0'],num_0,[4],'num_0',images/min4.png,"[(0.45, 0.79)]",,,,,0,-1,-1,0,3,2,14,3,,,,,"(0.75, 0.04)",images/min4.png,15,0.0,1,0.0565472820308,0.0,[-0.5885798  -0.15104167],1,2018_Jun_15_1634,60.1008955209,sequenceLearningTask,002,098,
min1.png,min2.png,min3.png,min4.png,images/allBlank.png,"['num_7', 'num_4', 'num_1', 'num_0']",['num_4'],num_4,[2],'num_4',images/min2.png,"[(0.45, 0.79)]",,,,,0,-1,-1,0,3,3,15,1,,,,,"(-0.25, 0.04)",images/min2.png,16,0.0,1,0.063742358936,0.0,[ 0.90629575 -0.06770833],1,2018_Jun_15_1634,60.1008955209,sequenceLearningTask,002,098,
min1.png,min2.png,min3.png,min4.png,images/allBlank.png,"['num_7', 'num_4', 'num_1', 'num_0']",['num_4'],num_4,[2],'num_4',images/min2.png,"[(0.45, 0.79)]",,,,,0,-1,-1,0,3,3,15,1,,,,,"(0.75, 0.04)",images/min4.png,16,0.0,1,0.0533017436974,0.0,[-0.3147877  -0.12760417],1,2018_Jun_15_1634,60.1008955209,sequenceLearningTask,002,098,
min1.png,min2.png,min3.png,min4.png,images/allBlank.png,"['num_7', 'num_4', 'num_1', 'num_0']",['num_4'],num_4,[2],'num_4',images/min2.png,"[(0.45, 0.79)]",,,,,0,-1,-1,0,3,3,15,1,,,,,"(-0.75, 0.04)",images/min1.png,16,0.0,1,0.0560541539453,0.0,[ 0.73792094  0.0390625 ],1,2018_Jun_15_1634,60.1008955209,sequenceLearningTask,002,098,
min1.png,min2.png,min3.png,min4.png,images/allBlank.png,"['num_7', 'num_4', 'num_1', 'num_0']",['num_4'],num_4,[2],'num_4',images/min2.png,"[(0.45, 0.79)]",,,,,0,-1,-1,0,3,3,15,1,,,,,"(-0.75, 0.04)",images/min1.png,16,0.0,1,0.0605595896486,0.0,[-0.60468521 -0.1484375 ],1,2018_Jun_15_1634,60.1008955209,sequenceLearningTask,002,098,
min1.png,min2.png,min3.png,min4.png,images/allBlank.png,"['num_7', 'num_4', 'num_1', 'num_0']",['num_4'],num_4,[2],'num_4',images/min2.png,"[(0.45, 0.79)]",,,,,0,-1,-1,0,4,0,16,1,,,,,"(-0.75, 0.04)",images/min1.png,17,0.0,1,0.0647101537324,0.0,[-0.51537335 -0.17708333],1,2018_Jun_15_1634,60.1008955209,sequenceLearningTask,002,098,
min1.png,min2.png,min3.png,min4.png,images/allBlank.png,"['num_7', 'num_4', 'num_1', 'num_0']",['num_4'],num_4,[2],'num_4',images/min2.png,"[(0.45, 0.79)]",,,,,0,-1,-1,0,4,0,16,1,,,,,"(0.25, 0.04)",images/min3.png,17,0.0,1,0.0604090257548,0.0,[-0.58418741 -0.2109375 ],1,2018_Jun_15_1634,60.1008955209,sequenceLearningTask,002,098,
min1.png,min2.png,min3.png,min4.png,images/allBlank.png,"['num_7', 'num_4', 'num_1', 'num_0']",['num_4'],num_4,[2],'num_4',images/min2.png,"[(0.45, 0.79)]",,,,,0,-1,-1,0,4,0,16,1,,,,,"(-0.75, 0.04)",images/min1.png,17,0.0,1,0.0668192820158,0.0,[ 0.34846266 -0.21614583],1,2018_Jun_15_1634,60.1008955209,sequenceLearningTask,002,098,
min1.png,min2.png,min3.png,min4.png,images/allBlank.png,"['num_7', 'num_4', 'num_1', 'num_0']",['num_4'],num_4,[2],'num_4',images/min2.png,"[(0.45, 0.79)]",,,,,0,-1,-1,0,4,0,16,1,,,,,"(-0.25, 0.04)",images/min2.png,17,0.0,1,0.0658736408222,0.0,[-0.7057101  -0.22135417],1,2018_Jun_15_1634,60.1008955209,sequenceLearningTask,002,098,
min1.png,min2.png,min3.png,min4.png,images/allBlank.png,"['num_7', 'num_4', 'num_1', 'num_0']",['num_1'],num_1,[3],'num_1',images/min3.png,"[(0.45, 0.79)]",,,,,0,-1,-1,0,4,1,17,2,,,,,"(-0.75, 0.04)",images/min1.png,18,0.0,1,0.0630358974449,0.0,[-0.27964861 -0.08854167],1,2018_Jun_15_1634,60.1008955209,sequenceLearningTask,002,098,
min1.png,min2.png,min3.png,min4.png,images/allBlank.png,"['num_7', 'num_4', 'num_1', 'num_0']",['num_1'],num_1,[3],'num_1',images/min3.png,"[(0.45, 0.79)]",,,,,0,-1,-1,0,4,1,17,2,,,,,"(0.25, 0.04)",images/min3.png,18,0.0,1,0.0496853333898,0.0,[-0.68814056 -0.20833333],1,2018_Jun_15_1634,60.1008955209,sequenceLearningTask,002,098,
min1.png,min2.png,min3.png,min4.png,images/allBlank.png,"['num_7', 'num_4', 'num_1', 'num_0']",['num_1'],num_1,[3],'num_1',images/min3.png,"[(0.45, 0.79)]",,,,,0,-1,-1,0,4,1,17,2,,,,,"(-0.25, 0.04)",images/min2.png,18,0.0,1,0.0550473846961,0.0,[ 0.19033675 -0.09635417],1,2018_Jun_15_1634,60.1008955209,sequenceLearningTask,002,098,
min1.png,min2.png,min3.png,min4.png,images/allBlank.png,"['num_7', 'num_4', 'num_1', 'num_0']",['num_1'],num_1,[3],'num_1',images/min3.png,"[(0.45, 0.79)]",,,,,0,-1,-1,0,4,1,17,2,,,,,"(0.75, 0.04)",images/min4.png,18,0.0,1,0.0537661539856,0.0,[-0.33674963 -0.11458333],1,2018_Jun_15_1634,60.1008955209,sequenceLearningTask,002,098,
min1.png,min2.png,min3.png,min4.png,images/allBlank.png,"['num_7', 'num_4', 'num_1', 'num_0']",['num_7'],num_7,[1],'num_7',images/min1.png,"[(0.45, 0.79)]",,,,,0,-1,-1,0,4,2,18,0,,,,,"(0.25, 0.04)",images/min3.png,19,0.0,1,0.0522281026933,0.0,[ 0.63836018 -0.16927083],1,2018_Jun_15_1634,60.1008955209,sequenceLearningTask,002,098,
min1.png,min2.png,min3.png,min4.png,images/allBlank.png,"['num_7', 'num_4', 'num_1', 'num_0']",['num_7'],num_7,[1],'num_7',images/min1.png,"[(0.45, 0.79)]",,,,,0,-1,-1,0,4,2,18,0,,,,,"(-0.25, 0.04)",images/min2.png,19,0.0,1,0.0624233845156,0.0,[ 0.29136164 -0.1484375 ],1,2018_Jun_15_1634,60.1008955209,sequenceLearningTask,002,098,
min1.png,min2.png,min3.png,min4.png,images/allBlank.png,"['num_7', 'num_4', 'num_1', 'num_0']",['num_7'],num_7,[1],'num_7',images/min1.png,"[(0.45, 0.79)]",,,,,0,-1,-1,0,4,2,18,0,,,,,"(-0.25, 0.04)",images/min2.png,19,,,0.0519068718422,0.0,[-0.37628111 -0.23177083],1,2018_Jun_15_1634,60.1008955209,sequenceLearningTask,002,098,
min1.png,min2.png,min3.png,min4.png,images/allBlank.png,"['num_7', 'num_4', 'num_1', 'num_0']",['num_7'],num_7,[1],'num_7',images/min1.png,"[(0.45, 0.79)]",,,,,0,-1,-1,0,4,2,18,0,,,,,"(0.25, 0.04)",images/min3.png,19,0.0,1,0.0672073846217,0.0,[-0.19180088 -0.14583333],1,2018_Jun_15_1634,60.1008955209,sequenceLearningTask,002,098,
min1.png,min2.png,min3.png,min4.png,images/allBlank.png,"['num_7', 'num_4', 'num_1', 'num_0']",['num_0'],num_0,[4],'num_0',images/min4.png,"[(0.45, 0.79)]",,,,,0,-1,-1,0,4,3,19,3,,,,,"(0.25, 0.04)",images/min3.png,20,,,0.0519589744508,0.0,[ 0.24743777 -0.1328125 ],1,2018_Jun_15_1634,60.1008955209,sequenceLearningTask,002,098,
min1.png,min2.png,min3.png,min4.png,images/allBlank.png,"['num_7', 'num_4', 'num_1', 'num_0']",['num_0'],num_0,[4],'num_0',images/min4.png,"[(0.45, 0.79)]",,,,,0,-1,-1,0,4,3,19,3,,,,,"(-0.25, 0.04)",images/min2.png,20,0.0,1,0.0524488203228,0.0,[ 0.23426061  0.08333333],1,2018_Jun_15_1634,60.1008955209,sequenceLearningTask,002,098,
min1.png,min2.png,min3.png,min4.png,images/allBlank.png,"['num_7', 'num_4', 'num_1', 'num_0']",['num_0'],num_0,[4],'num_0',images/min4.png,"[(0.45, 0.79)]",,,,,0,-1,-1,0,4,3,19,3,,,,,"(-0.75, 0.04)",images/min1.png,20,0.347140923142,1,0.0534326154739,0.347140923142,[-0.35431918  0.08854167],,2018_Jun_15_1634,60.1008955209,sequenceLearningTask,002,098,
min1.png,min2.png,min3.png,min4.png,images/allBlank.png,"['num_7', 'num_4', 'num_1', 'num_0']",['num_0'],num_0,[4],'num_0',images/min4.png,"[(0.45, 0.79)]",,,,,0,-1,-1,0,4,3,19,3,,,,,"(-0.75, 0.04)",images/min1.png,20,,,0.0495335382875,0.0,[-0.88140556  0.04947917],1,2018_Jun_15_1634,60.1008955209,sequenceLearningTask,002,098,
min1.png,min2.png,min3.png,min4.png,allBlank.png,"['num_7', 'num_4', 'num_1', 'num_0']",['num_0'],num_0,[4],'num_0',images/min4.png,"[(0.45, 0.79)]",,,,,0,0,0,0,4,3,19,3,,,,,"(-0.75, -0.04)",images/min1.png,1,0.0,1,0.0480196923018,0.0,[-0.26793558  0.04947917],1,2018_Jun_15_1634,60.1008955209,sequenceLearningTask,002,098,
min1.png,min2.png,min3.png,min4.png,allBlank.png,"['num_7', 'num_4', 'num_1', 'num_0']",['num_0'],num_0,[4],'num_0',images/min4.png,"[(0.45, 0.79)]",,,,,0,0,0,0,4,3,19,3,,,,,"(0.25, -0.04)",images/min3.png,1,0.0,1,0.0586145641282,0.0,[-0.69985359 -0.12760417],1,2018_Jun_15_1634,60.1008955209,sequenceLearningTask,002,098,
min1.png,min2.png,min3.png,min4.png,allBlank.png,"['num_7', 'num_4', 'num_1', 'num_0']",['num_0'],num_0,[4],'num_0',images/min4.png,"[(0.45, 0.79)]",,,,,0,0,0,0,4,3,19,3,,,,,"(-0.25, -0.04)",images/min2.png,1,0.0,1,0.0548118974548,0.0,[ 0.34114202  0.11979167],1,2018_Jun_15_1634,60.1008955209,sequenceLearningTask,002,098,
min1.png,min2.png,min3.png,min4.png,allBlank.png,"['num_7', 'num_4', 'num_1', 'num_0']",['num_0'],num_0,[4],'num_0',images/min4.png,"[(0.45, 0.79)]",,,,,0,0,0,0,4,3,19,3,,,,,"(0.75, -0.04)",images/min4.png,1,0.0,1,0.0579171280842,0.0,[-0.29136164 -0.09114583],1,2018_Jun_15_1634,60.1008955209,sequenceLearningTask,002,098,
min1.png,min2.png,min3.png,min4.png,allBlank.png,"['num_7', 'num_4', 'num_1', 'num_0']",['num_0'],num_0,[4],'num_0',images/min4.png,"[(0.45, 0.79)]",,,,,0,0,0,0,4,3,19,3,,,,,"(0.75, -0.04)",images/min4.png,1,,,0.0534502563532,0.0,[ 0.59297218  0.11979167],1,2018_Jun_15_1634,60.1008955209,sequenceLearningTask,002,098,
min1.png,min2.png,min3.png,min4.png,allBlank.png,"['num_7', 'num_4', 'num_1', 'num_0']",['num_0'],num_0,[4],'num_0',images/min4.png,"[(0.45, 0.79)]",,,,,0,0,0,0,4,3,19,3,,,,,"(-0.25, -0.04)",images/min2.png,1,0.0,1,0.0625755896326,0.0,[ 0.73645681  0.15104167],1,2018_Jun_15_1634,60.1008955209,sequenceLearningTask,002,098,
min1.png,min2.png,min3.png,min4.png,allBlank.png,"['num_7', 'num_4', 'num_1', 'num_0']",['num_0'],num_0,[4],'num_0',images/min4.png,"[(0.45, 0.79)]",,,,,0,0,0,0,4,3,19,3,,,,,"(0.25, -0.04)",images/min3.png,1,0.0,1,0.0504898461513,0.0,[-0.24158126  0.11979167],1,2018_Jun_15_1634,60.1008955209,sequenceLearningTask,002,098,
min1.png,min2.png,min3.png,min4.png,allBlank.png,"['num_7', 'num_4', 'num_1', 'num_0']",['num_0'],num_0,[4],'num_0',images/min4.png,"[(0.45, 0.79)]",,,,,0,0,0,0,4,3,19,3,,,,,"(0.75, -0.04)",images/min4.png,1,0.0,1,0.0558666666038,0.0,[ 0.21376281  0.13802083],1,2018_Jun_15_1634,60.1008955209,sequenceLearningTask,002,098,
min1.png,min2.png,min3.png,min4.png,allBlank.png,"['num_7', 'num_4', 'num_1', 'num_0']",['num_0'],num_0,[4],'num_0',images/min4.png,"[(0.45, 0.79)]",,,,,0,1,1,1,4,3,19,3,,,,,"(-0.75, -0.04)",images/min1.png,2,0.0,1,0.0523585639894,0.0,[ 0.70863836  0.16145833],1,2018_Jun_15_1634,60.1008955209,sequenceLearningTask,002,098,
min1.png,min2.png,min3.png,min4.png,allBlank.png,"['num_7', 'num_4', 'num_1', 'num_0']",['num_0'],num_0,[4],'num_0',images/min4.png,"[(0.45, 0.79)]",,,,,0,1,1,1,4,3,19,3,,,,,"(0.25, -0.04)",images/min3.png,2,0.0,1,0.0595716924872,0.0,[-0.69253294 -0.04947917],1,2018_Jun_15_1634,60.1008955209,sequenceLearningTask,002,098,
min1.png,min2.png,min3.png,min4.png,allBlank.png,"['num_7', 'num_4', 'num_1', 'num_0']",['num_0'],num_0,[4],'num_0',images/min4.png,"[(0.45, 0.79)]",,,,,0,1,1,1,4,3,19,3,,,,,"(-0.25, -0.04)",images/min2.png,2,0.0,1,0.0501366152894,0.0,[ 0.39238653  0.06770833],1,2018_Jun_15_1634,60.1008955209,sequenceLearningTask,002,098,
min1.png,min2.png,min3.png,min4.png,allBlank.png,"['num_7', 'num_4', 'num_1', 'num_0']",['num_0'],num_0,[4],'num_0',images/min4.png,"[(0.45, 0.79)]",,,,,0,1,1,1,4,3,19,3,,,,,"(0.75, -0.04)",images/min4.png,2,0.0,1,0.054635487264,0.0,[-0.34699854 -0.01041667],1,2018_Jun_15_1634,60.1008955209,sequenceLearningTask,002,098,
min1.png,min2.png,min3.png,min4.png,allBlank.png,"['num_7', 'num_4', 'num_1', 'num_0']",['num_0'],num_0,[4],'num_0',images/min4.png,"[(0.45, 0.79)]",,,,,0,1,1,1,4,3,19,3,,,,,"(0.75, -0.04)",images/min4.png,2,,,0.0583392821718,0.0,[ 0.57833089  0.14583333],1,2018_Jun_15_1634,60.1008955209,sequenceLearningTask,002,098,
min1.png,min2.png,min3.png,min4.png,allBlank.png,"['num_7', 'num_4', 'num_1', 'num_0']",['num_0'],num_0,[4],'num_0',images/min4.png,"[(0.45, 0.79)]",,,,,0,1,1,1,4,3,19,3,,,,,"(-0.25, -0.04)",images/min2.png,2,0.0,1,0.0510793847498,0.0,[ 0.62518302  0.11197917],1,2018_Jun_15_1634,60.1008955209,sequenceLearningTask,002,098,
min1.png,min2.png,min3.png,min4.png,allBlank.png,"['num_7', 'num_4', 'num_1', 'num_0']",['num_0'],num_0,[4],'num_0',images/min4.png,"[(0.45, 0.79)]",,,,,0,1,1,1,4,3,19,3,,,,,"(0.25, -0.04)",images/min3.png,2,0.0,1,0.0607725128066,0.0,[-0.25329429 -0.13020833],1,2018_Jun_15_1634,60.1008955209,sequenceLearningTask,002,098,
min1.png,min2.png,min3.png,min4.png,allBlank.png,"['num_7', 'num_4', 'num_1', 'num_0']",['num_0'],num_0,[4],'num_0',images/min4.png,"[(0.45, 0.79)]",,,,,0,1,1,1,4,3,19,3,,,,,"(0.75, -0.04)",images/min4.png,2,0.0,1,0.0527934359852,0.0,[ 0.24158126 -0.00520833],1,2018_Jun_15_1634,60.1008955209,sequenceLearningTask,002,098,
min1.png,min2.png,min3.png,min4.png,allBlank.png,"['num_7', 'num_4', 'num_1', 'num_0']",['num_0'],num_0,[4],'num_0',images/min4.png,"[(0.45, 0.79)]",,,,,0,2,2,2,4,3,19,3,,,,,"(-0.75, -0.04)",images/min1.png,3,0.0,1,0.0506580511574,0.0,[ 0.75988287 -0.0859375 ],1,2018_Jun_15_1634,60.1008955209,sequenceLearningTask,002,098,
min1.png,min2.png,min3.png,min4.png,allBlank.png,"['num_7', 'num_4', 'num_1', 'num_0']",['num_0'],num_0,[4],'num_0',images/min4.png,"[(0.45, 0.79)]",,,,,0,2,2,2,4,3,19,3,,,,,"(0.25, -0.04)",images/min3.png,3,0.0,1,0.0557842049748,0.0,[-0.53879941 -0.05989583],1,2018_Jun_15_1634,60.1008955209,sequenceLearningTask,002,098,
min1.png,min2.png,min3.png,min4.png,allBlank.png,"['num_7', 'num_4', 'num_1', 'num_0']",['num_0'],num_0,[4],'num_0',images/min4.png,"[(0.45, 0.79)]",,,,,0,2,2,2,4,3,19,3,,,,,"(-0.25, -0.04)",images/min2.png,3,0.0,1,0.0513517947402,0.0,[ 0.35724744  0.11458333],1,2018_Jun_15_1634,60.1008955209,sequenceLearningTask,002,098,
min1.png,min2.png,min3.png,min4.png,allBlank.png,"['num_7', 'num_4', 'num_1', 'num_0']",['num_0'],num_0,[4],'num_0',images/min4.png,"[(0.45, 0.79)]",,,,,0,2,2,2,4,3,19,3,,,,,"(0.75, -0.04)",images/min4.png,3,0.0,1,0.0550601023715,0.0,[-0.35431918 -0.05989583],1,2018_Jun_15_1634,60.1008955209,sequenceLearningTask,002,098,
min1.png,min2.png,min3.png,min4.png,allBlank.png,"['num_7', 'num_4', 'num_1', 'num_0']",['num_0'],num_0,[4],'num_0',images/min4.png,"[(0.45, 0.79)]",,,,,0,2,2,2,4,3,19,3,,,,,"(0.75, -0.04)",images/min4.png,3,,,0.0592726154719,0.0,[ 0.69692533 -0.05989583],1,2018_Jun_15_1634,60.1008955209,sequenceLearningTask,002,098,
min1.png,min2.png,min3.png,min4.png,allBlank.png,"['num_7', 'num_4', 'num_1', 'num_0']",['num_0'],num_0,[4],'num_0',images/min4.png,"[(0.45, 0.79)]",,,,,0,2,2,2,4,3,19,3,,,,,"(-0.25, -0.04)",images/min2.png,3,0.0,1,0.052848410327,0.0,[ 0.88433382  0.01041667],1,2018_Jun_15_1634,60.1008955209,sequenceLearningTask,002,098,
min1.png,min2.png,min3.png,min4.png,allBlank.png,"['num_7', 'num_4', 'num_1', 'num_0']",['num_0'],num_0,[4],'num_0',images/min4.png,"[(0.45, 0.79)]",,,,,0,2,2,2,4,3,19,3,,,,,"(0.25, -0.04)",images/min3.png,3,0.0,1,0.0545907693449,0.0,[-0.21376281 -0.07552083],1,2018_Jun_15_1634,60.1008955209,sequenceLearningTask,002,098,
min1.png,min2.png,min3.png,min4.png,allBlank.png,"['num_7', 'num_4', 'num_1', 'num_0']",['num_0'],num_0,[4],'num_0',images/min4.png,"[(0.45, 0.79)]",,,,,0,2,2,2,4,3,19,3,,,,,"(0.75, -0.04)",images/min4.png,3,0.0,1,0.0612594871782,0.0,[ 0.42898975  0.16145833],1,2018_Jun_15_1634,60.1008955209,sequenceLearningTask,002,098,
min1.png,min2.png,min3.png,min4.png,allBlank.png,"['num_7', 'num_4', 'num_1', 'num_0']",['num_0'],num_0,[4],'num_0',images/min4.png,"[(0.45, 0.79)]",,,,,0,3,3,3,4,3,19,3,,,,,"(-0.75, -0.04)",images/min1.png,4,0.0,1,0.0654063588008,0.0,[ 0.99853587  0.08333333],1,2018_Jun_15_1634,60.1008955209,sequenceLearningTask,002,098,
min1.png,min2.png,min3.png,min4.png,allBlank.png,"['num_7', 'num_4', 'num_1', 'num_0']",['num_0'],num_0,[4],'num_0',images/min4.png,"[(0.45, 0.79)]",,,,,0,3,3,3,4,3,19,3,,,,,"(0.25, -0.04)",images/min3.png,4,0.0,1,0.0512246154249,0.0,[-0.79502196 -0.04427083],1,2018_Jun_15_1634,60.1008955209,sequenceLearningTask,002,098,
min1.png,min2.png,min3.png,min4.png,allBlank.png,"['num_7', 'num_4', 'num_1', 'num_0']",['num_0'],num_0,[4],'num_0',images/min4.png,"[(0.45, 0.79)]",,,,,0,3,3,3,4,3,19,3,,,,,"(-0.25, -0.04)",images/min2.png,4,0.0,1,0.0888947693165,0.0,[ 0.09224012  0.11979167],1,2018_Jun_15_1634,60.1008955209,sequenceLearningTask,002,098,
min1.png,min2.png,min3.png,min4.png,allBlank.png,"['num_7', 'num_4', 'num_1', 'num_0']",['num_0'],num_0,[4],'num_0',images/min4.png,"[(0.45, 0.79)]",,,,,0,3,3,3,4,3,19,3,,,,,"(0.75, -0.04)",images/min4.png,4,0.0,1,0.0524980511982,0.0,[-0.3601757   0.05989583],1,2018_Jun_15_1634,60.1008955209,sequenceLearningTask,002,098,
min1.png,min2.png,min3.png,min4.png,allBlank.png,"['num_7', 'num_4', 'num_1', 'num_0']",['num_0'],num_0,[4],'num_0',images/min4.png,"[(0.45, 0.79)]",,,,,0,3,3,3,4,3,19,3,,,,,"(0.75, -0.04)",images/min4.png,4,,,0.0658055383246,0.0,[ 0.86237189  0.296875  ],1,2018_Jun_15_1634,60.1008955209,sequenceLearningTask,002,098,
min1.png,min2.png,min3.png,min4.png,allBlank.png,"['num_7', 'num_4', 'num_1', 'num_0']",['num_0'],num_0,[4],'num_0',images/min4.png,"[(0.45, 0.79)]",,,,,0,3,3,3,4,3,19,3,,,,,"(-0.25, -0.04)",images/min2.png,4,0.0,1,0.0538949742913,0.0,[ 0.82137628  0.12760417],1,2018_Jun_15_1634,60.1008955209,sequenceLearningTask,002,098,
min1.png,min2.png,min3.png,min4.png,allBlank.png,"['num_7', 'num_4', 'num_1', 'num_0']",['num_0'],num_0,[4],'num_0',images/min4.png,"[(0.45, 0.79)]",,,,,0,3,3,3,4,3,19,3,,,,,"(0.25, -0.04)",images/min3.png,4,0.0,1,0.0563491282519,0.0,[-0.38945827  0.20052083],1,2018_Jun_15_1634,60.1008955209,sequenceLearningTask,002,098,
min1.png,min2.png,min3.png,min4.png,allBlank.png,"['num_7', 'num_4', 'num_1', 'num_0']",['num_0'],num_0,[4],'num_0',images/min4.png,"[(0.45, 0.79)]",,,,,0,3,3,3,4,3,19,3,,,,,"(0.75, -0.04)",images/min4.png,4,0.0,1,0.0522642051801,0.0,[ 0.43484627  0.12239583],1,2018_Jun_15_1634,60.1008955209,sequenceLearningTask,002,098,
min1.png,min2.png,min3.png,min4.png,allBlank.png,"['num_7', 'num_4', 'num_1', 'num_0']",['num_0'],num_0,[4],'num_0',images/min4.png,"[(0.45, 0.79)]",,,,,0,4,4,4,4,3,19,3,,,,,"(-0.75, -0.04)",images/min1.png,5,0.0,1,0.0514986668713,0.0,[ 0.79502196  0.06510417],1,2018_Jun_15_1634,60.1008955209,sequenceLearningTask,002,098,
min1.png,min2.png,min3.png,min4.png,allBlank.png,"['num_7', 'num_4', 'num_1', 'num_0']",['num_0'],num_0,[4],'num_0',images/min4.png,"[(0.45, 0.79)]",,,,,0,4,4,4,4,3,19,3,,,,,"(0.25, -0.04)",images/min3.png,5,0.0,1,0.04910892318,0.0,[-0.80234261 -0.15625   ],1,2018_Jun_15_1634,60.1008955209,sequenceLearningTask,002,098,
min1.png,min2.png,min3.png,min4.png,allBlank.png,"['num_7', 'num_4', 'num_1', 'num_0']",['num_0'],num_0,[4],'num_0',images/min4.png,"[(0.45, 0.79)]",,,,,0,4,4,4,4,3,19,3,,,,,"(-0.25, -0.04)",images/min2.png,5,0.0,1,0.053458461538,0.0,[ 0.29136164  0.00520833],1,2018_Jun_15_1634,60.1008955209,sequenceLearningTask,002,098,
min1.png,min2.png,min3.png,min4.png,allBlank.png,"['num_7', 'num_4', 'num_1', 'num_0']",['num_0'],num_0,[4],'num_0',images/min4.png,"[(0.45, 0.79)]",,,,,0,4,4,4,4,3,19,3,,,,,"(0.75, -0.04)",images/min4.png,5,0.0,1,0.0519392821006,0.0,[-0.33821376 -0.01822917],1,2018_Jun_15_1634,60.1008955209,sequenceLearningTask,002,098,
min1.png,min2.png,min3.png,min4.png,allBlank.png,"['num_7', 'num_4', 'num_1', 'num_0']",['num_0'],num_0,[4],'num_0',images/min4.png,"[(0.45, 0.79)]",,,,,0,4,4,4,4,3,19,3,,,,,"(0.75, -0.04)",images/min4.png,5,,,0.0663589742035,0.0,[ 0.81991215  0.15625   ],1,2018_Jun_15_1634,60.1008955209,sequenceLearningTask,002,098,
min1.png,min2.png,min3.png,min4.png,allBlank.png,"['num_7', 'num_4', 'num_1', 'num_0']",['num_0'],num_0,[4],'num_0',images/min4.png,"[(0.45, 0.79)]",,,,,0,4,4,4,4,3,19,3,,,,,"(-0.25, -0.04)",images/min2.png,5,,,0.0527138463221,0.0,[-0.16983895  0.08072917],1,2018_Jun_15_1634,60.1008955209,sequenceLearningTask,002,098,
min1.png,min2.png,min3.png,min4.png,allBlank.png,"['num_7', 'num_4', 'num_1', 'num_0']",['num_0'],num_0,[4],'num_0',images/min4.png,"[(0.45, 0.79)]",,,,,0,4,4,4,4,3,19,3,,,,,"(0.25, -0.04)",images/min3.png,5,0.0,1,0.0503044102807,0.0,[-0.31625183  0.03125   ],1,2018_Jun_15_1634,60.1008955209,sequenceLearningTask,002,098,
min1.png,min2.png,min3.png,min4.png,allBlank.png,"['num_7', 'num_4', 'num_1', 'num_0']",['num_0'],num_0,[4],'num_0',images/min4.png,"[(0.45, 0.79)]",,,,,0,4,4,4,4,3,19,3,,,,,"(0.75, -0.04)",images/min4.png,5,0.0,1,0.0518182564992,0.0,[ 0.43338214  0.08854167],1,2018_Jun_15_1634,60.1008955209,sequenceLearningTask,002,098,
min1.png,min2.png,min3.png,min4.png,allBlank.png,"['num_7', 'num_4', 'num_1', 'num_0']",['num_0'],num_0,[4],'num_0',images/min4.png,"[(0.45, 0.79)]",,,,,0,5,5,5,4,3,19,3,,,,,"(-0.75, -0.04)",images/min1.png,6,0.0,1,0.0635753844399,0.0,[ 0.74670571  0.1640625 ],1,2018_Jun_15_1634,60.1008955209,sequenceLearningTask,002,098,
min1.png,min2.png,min3.png,min4.png,allBlank.png,"['num_7', 'num_4', 'num_1', 'num_0']",['num_0'],num_0,[4],'num_0',images/min4.png,"[(0.45, 0.79)]",,,,,0,5,5,5,4,3,19,3,,,,,"(0.25, -0.04)",images/min3.png,6,0.0,1,0.0527684101835,0.0,[-0.85065886 -0.2578125 ],1,2018_Jun_15_1634,60.1008955209,sequenceLearningTask,002,098,
min1.png,min2.png,min3.png,min4.png,allBlank.png,"['num_7', 'num_4', 'num_1', 'num_0']",['num_0'],num_0,[4],'num_0',images/min4.png,"[(0.45, 0.79)]",,,,,0,5,5,5,4,3,19,3,,,,,"(-0.25, -0.04)",images/min2.png,6,0.0,1,0.0511044100858,0.0,[ 0.3909224   0.00260417],1,2018_Jun_15_1634,60.1008955209,sequenceLearningTask,002,098,
min1.png,min2.png,min3.png,min4.png,allBlank.png,"['num_7', 'num_4', 'num_1', 'num_0']",['num_0'],num_0,[4],'num_0',images/min4.png,"[(0.45, 0.79)]",,,,,0,5,5,5,4,3,19,3,,,,,"(0.75, -0.04)",images/min4.png,6,0.0,1,0.0537895385642,0.0,[-0.50219619  0.02604167],1,2018_Jun_15_1634,60.1008955209,sequenceLearningTask,002,098,
min1.png,min2.png,min3.png,min4.png,allBlank.png,"['num_7', 'num_4', 'num_1', 'num_0']",['num_0'],num_0,[4],'num_0',images/min4.png,"[(0.45, 0.79)]",,,,,0,5,5,5,4,3,19,3,,,,,"(0.75, -0.04)",images/min4.png,6,,,0.0658789745066,0.0,[ 0.80527086  0.1875    ],1,2018_Jun_15_1634,60.1008955209,sequenceLearningTask,002,098,
min1.png,min2.png,min3.png,min4.png,allBlank.png,"['num_7', 'num_4', 'num_1', 'num_0']",['num_0'],num_0,[4],'num_0',images/min4.png,"[(0.45, 0.79)]",,,,,0,5,5,5,4,3,19,3,,,,,"(-0.25, -0.04)",images/min2.png,6,0.0,1,0.0506740512792,0.0,[ 0.1727672  0.109375 ],1,2018_Jun_15_1634,60.1008955209,sequenceLearningTask,002,098,
min1.png,min2.png,min3.png,min4.png,allBlank.png,"['num_7', 'num_4', 'num_1', 'num_0']",['num_0'],num_0,[4],'num_0',images/min4.png,"[(0.45, 0.79)]",,,,,0,5,5,5,4,3,19,3,,,,,"(0.25, -0.04)",images/min3.png,6,0.0,1,0.0661624616478,0.0,[-0.44509517 -0.06770833],1,2018_Jun_15_1634,60.1008955209,sequenceLearningTask,002,098,
min1.png,min2.png,min3.png,min4.png,allBlank.png,"['num_7', 'num_4', 'num_1', 'num_0']",['num_0'],num_0,[4],'num_0',images/min4.png,"[(0.45, 0.79)]",,,,,0,5,5,5,4,3,19,3,,,,,"(0.75, -0.04)",images/min4.png,6,0.0,1,0.0526867692824,0.0,[ 0.25329429 -0.02083333],1,2018_Jun_15_1634,60.1008955209,sequenceLearningTask,002,098,
min1.png,min2.png,min3.png,min4.png,allBlank.png,"['num_7', 'num_4', 'num_1', 'num_0']",['num_0'],num_0,[4],'num_0',images/min4.png,"[(0.45, 0.79)]",,,,,0,6,6,6,4,3,19,3,,,,,"(-0.75, -0.04)",images/min1.png,7,0.0,1,0.0488484103698,0.0,[ 0.77452416  0.04427083],1,2018_Jun_15_1634,60.1008955209,sequenceLearningTask,002,098,
min1.png,min2.png,min3.png,min4.png,allBlank.png,"['num_7', 'num_4', 'num_1', 'num_0']",['num_0'],num_0,[4],'num_0',images/min4.png,"[(0.45, 0.79)]",,,,,0,6,6,6,4,3,19,3,,,,,"(0.25, -0.04)",images/min3.png,7,0.0,1,0.0525247179903,0.0,[-0.715959   -0.02083333],1,2018_Jun_15_1634,60.1008955209,sequenceLearningTask,002,098,
min1.png,min2.png,min3.png,min4.png,allBlank.png,"['num_7', 'num_4', 'num_1', 'num_0']",['num_0'],num_0,[4],'num_0',images/min4.png,"[(0.45, 0.79)]",,,,,0,6,6,6,4,3,19,3,,,,,"(-0.25, -0.04)",images/min2.png,7,0.0,1,0.0628992819693,0.0,[ 0.73352855  0.16145833],1,2018_Jun_15_1634,60.1008955209,sequenceLearningTask,002,098,
min1.png,min2.png,min3.png,min4.png,allBlank.png,"['num_7', 'num_4', 'num_1', 'num_0']",['num_0'],num_0,[4],'num_0',images/min4.png,"[(0.45, 0.79)]",,,,,0,6,6,6,4,3,19,3,,,,,"(0.75, -0.04)",images/min4.png,7,0.0,1,0.0563454360235,0.0,[-0.72327965 -0.02604167],1,2018_Jun_15_1634,60.1008955209,sequenceLearningTask,002,098,
min1.png,min2.png,min3.png,min4.png,allBlank.png,"['num_7', 'num_4', 'num_1', 'num_0']",['num_0'],num_0,[4],'num_0',images/min4.png,"[(0.45, 0.79)]",,,,,0,6,6,6,4,3,19,3,,,,,"(0.75, -0.04)",images/min4.png,7,0.0,1,0.0655778460205,0.0,[ 0.13469985 -0.05729167],1,2018_Jun_15_1634,60.1008955209,sequenceLearningTask,002,098,
min1.png,min2.png,min3.png,min4.png,allBlank.png,"['num_7', 'num_4', 'num_1', 'num_0']",['num_0'],num_0,[4],'num_0',images/min4.png,"[(0.45, 0.79)]",,,,,0,6,6,6,4,3,19,3,,,,,"(-0.25, -0.04)",images/min2.png,7,0.0,1,0.0509017435834,0.0,[ 0.81551977 -0.0078125 ],1,2018_Jun_15_1634,60.1008955209,sequenceLearningTask,002,098,
min1.png,min2.png,min3.png,min4.png,allBlank.png,"['num_7', 'num_4', 'num_1', 'num_0']",['num_0'],num_0,[4],'num_0',images/min4.png,"[(0.45, 0.79)]",,,,,0,6,6,6,4,3,19,3,,,,,"(0.25, -0.04)",images/min3.png,7,0.088887384627,1,0.0624106666073,0.088887384627,[-0.18008785  0.15104167],,2018_Jun_15_1634,60.1008955209,sequenceLearningTask,002,098,
min1.png,min2.png,min3.png,min4.png,allBlank.png,"['num_7', 'num_4', 'num_1', 'num_0']",['num_0'],num_0,[4],'num_0',images/min4.png,"[(0.45, 0.79)]",,,,,0,6,6,6,4,3,19,3,,,,,"(0.75, -0.04)",images/min4.png,7,0.0,1,0.0503958973568,0.0,[ 0.24011713  0.13541667],1,2018_Jun_15_1634,60.1008955209,sequenceLearningTask,002,098,
min1.png,min2.png,min3.png,min4.png,allBlank.png,"['num_7', 'num_4', 'num_1', 'num_0']",['num_0'],num_0,[4],'num_0',images/min4.png,"[(0.45, 0.79)]",,,,,0,7,7,7,4,3,19,3,,,,,"(-0.75, -0.04)",images/min1.png,8,0.0,1,0.0505247178953,0.0,[ 0.8579795   0.10677083],1,2018_Jun_15_1634,60.1008955209,sequenceLearningTask,002,098,
min1.png,min2.png,min3.png,min4.png,allBlank.png,"['num_7', 'num_4', 'num_1', 'num_0']",['num_0'],num_0,[4],'num_0',images/min4.png,"[(0.45, 0.79)]",,,,,0,7,7,7,4,3,19,3,,,,,"(0.25, -0.04)",images/min3.png,8,0.0,1,0.0538896410726,0.0,[-0.91068814 -0.046875  ],1,2018_Jun_15_1634,60.1008955209,sequenceLearningTask,002,098,
min1.png,min2.png,min3.png,min4.png,allBlank.png,"['num_7', 'num_4', 'num_1', 'num_0']",['num_0'],num_0,[4],'num_0',images/min4.png,"[(0.45, 0.79)]",,,,,0,7,7,7,4,3,19,3,,,,,"(-0.25, -0.04)",images/min2.png,8,0.0,1,0.0513874872122,0.0,[ 0.22693997  0.1015625 ],1,2018_Jun_15_1634,60.1008955209,sequenceLearningTask,002,098,
min1.png,min2.png,min3.png,min4.png,allBlank.png,"['num_7', 'num_4', 'num_1', 'num_0']",['num_0'],num_0,[4],'num_0',images/min4.png,"[(0.45, 0.79)]",,,,,0,7,7,7,4,3,19,3,,,,,"(0.75, -0.04)",images/min4.png,8,0.0,1,0.0517439998221,0.0,[-0.33821376 -0.078125  ],1,2018_Jun_15_1634,60.1008955209,sequenceLearningTask,002,098,
min1.png,min2.png,min3.png,min4.png,allBlank.png,"['num_7', 'num_4', 'num_1', 'num_0']",['num_0'],num_0,[4],'num_0',images/min4.png,"[(0.45, 0.79)]",,,,,0,7,7,7,4,3,19,3,,,,,"(0.75, -0.04)",images/min4.png,8,,,0.0629185640719,0.0,[ 0.84040996  0.01822917],1,2018_Jun_15_1634,60.1008955209,sequenceLearningTask,002,098,
min1.png,min2.png,min3.png,min4.png,allBlank.png,"['num_7', 'num_4', 'num_1', 'num_0']",['num_0'],num_0,[4],'num_0',images/min4.png,"[(0.45, 0.79)]",,,,,0,7,7,7,4,3,19,3,,,,,"(-0.25, -0.04)",images/min2.png,8,0.0,1,0.0653948716354,0.0,[ 0.78477306  0.046875  ],1,2018_Jun_15_1634,60.1008955209,sequenceLearningTask,002,098,
min1.png,min2.png,min3.png,min4.png,allBlank.png,"['num_7', 'num_4', 'num_1', 'num_0']",['num_0'],num_0,[4],'num_0',images/min4.png,"[(0.45, 0.79)]",,,,,0,7,7,7,4,3,19,3,,,,,"(0.25, -0.04)",images/min3.png,8,0.0,1,0.0664553844836,0.0,[-0.35285505 -0.0703125 ],1,2018_Jun_15_1634,60.1008955209,sequenceLearningTask,002,098,
min1.png,min2.png,min3.png,min4.png,allBlank.png,"['num_7', 'num_4', 'num_1', 'num_0']",['num_0'],num_0,[4],'num_0',images/min4.png,"[(0.45, 0.79)]",,,,,0,7,7,7,4,3,19,3,,,,,"(0.75, -0.04)",images/min4.png,8,0.0,1,0.0537452306598,0.0,[ 0.25622255 -0.04427083],1,2018_Jun_15_1634,60.1008955209,sequenceLearningTask,002,098,
min1.png,min2.png,min3.png,min4.png,allBlank.png,"['num_7', 'num_4', 'num_1', 'num_0']",['num_0'],num_0,[4],'num_0',images/min4.png,"[(0.45, 0.79)]",,,,,0,8,8,8,4,3,19,3,,,,,"(-0.75, -0.04)",images/min1.png,9,0.0,1,0.0619729231112,0.0,[ 0.60614934 -0.1484375 ],1,2018_Jun_15_1634,60.1008955209,sequenceLearningTask,002,098,
min1.png,min2.png,min3.png,min4.png,allBlank.png,"['num_7', 'num_4', 'num_1', 'num_0']",['num_0'],num_0,[4],'num_0',images/min4.png,"[(0.45, 0.79)]",,,,,0,8,8,8,4,3,19,3,,,,,"(0.25, -0.04)",images/min3.png,9,0.0,1,0.0528927179985,0.0,[-0.84919473 -0.09375   ],1,2018_Jun_15_1634,60.1008955209,sequenceLearningTask,002,098,
min1.png,min2.png,min3.png,min4.png,allBlank.png,"['num_7', 'num_4', 'num_1', 'num_0']",['num_0'],num_0,[4],'num_0',images/min4.png,"[(0.45, 0.79)]",,,,,0,8,8,8,4,3,19,3,,,,,"(-0.25, -0.04)",images/min2.png,9,0.0,1,0.0664246152155,0.0,[ 0.16398243  0.02604167],1,2018_Jun_15_1634,60.1008955209,sequenceLearningTask,002,098,
min1.png,min2.png,min3.png,min4.png,allBlank.png,"['num_7', 'num_4', 'num_1', 'num_0']",['num_0'],num_0,[4],'num_0',images/min4.png,"[(0.45, 0.79)]",,,,,0,8,8,8,4,3,19,3,,,,,"(0.75, -0.04)",images/min4.png,9,0.0,1,0.0534728204366,0.0,[-0.34407028 -0.09375   ],1,2018_Jun_15_1634,60.1008955209,sequenceLearningTask,002,098,
min1.png,min2.png,min3.png,min4.png,allBlank.png,"['num_7', 'num_4', 'num_1', 'num_0']",['num_0'],num_0,[4],'num_0',images/min4.png,"[(0.45, 0.79)]",,,,,0,8,8,8,4,3,19,3,,,,,"(0.75, -0.04)",images/min4.png,9,,,0.0664545639884,0.0,[ 0.73352855 -0.04427083],1,2018_Jun_15_1634,60.1008955209,sequenceLearningTask,002,098,
min1.png,min2.png,min3.png,min4.png,allBlank.png,"['num_7', 'num_4', 'num_1', 'num_0']",['num_0'],num_0,[4],'num_0',images/min4.png,"[(0.45, 0.79)]",,,,,0,8,8,8,4,3,19,3,,,,,"(-0.25, -0.04)",images/min2.png,9,0.0,1,0.0654703590553,0.0,[ 0.6193265  -0.04947917],1,2018_Jun_15_1634,60.1008955209,sequenceLearningTask,002,098,
min1.png,min2.png,min3.png,min4.png,allBlank.png,"['num_7', 'num_4', 'num_1', 'num_0']",['num_0'],num_0,[4],'num_0',images/min4.png,"[(0.45, 0.79)]",,,,,0,8,8,8,4,3,19,3,,,,,"(0.25, -0.04)",images/min3.png,9,0.0,1,0.0505690255668,0.0,[-0.25036603 -0.08333333],1,2018_Jun_15_1634,60.1008955209,sequenceLearningTask,002,098,
min1.png,min2.png,min3.png,min4.png,allBlank.png,"['num_7', 'num_4', 'num_1', 'num_0']",['num_0'],num_0,[4],'num_0',images/min4.png,"[(0.45, 0.79)]",,,,,0,8,8,8,4,3,19,3,,,,,"(0.75, -0.04)",images/min4.png,9,0.0,1,0.0643868718762,0.0,[ 0.2942899 -0.1015625],1,2018_Jun_15_1634,60.1008955209,sequenceLearningTask,002,098,
min1.png,min2.png,min3.png,min4.png,allBlank.png,"['num_7', 'num_4', 'num_1', 'num_0']",['num_0'],num_0,[4],'num_0',images/min4.png,"[(0.45, 0.79)]",,,,,0,9,9,9,4,3,19,3,,,,,"(-0.75, -0.04)",images/min1.png,10,0.0,1,0.0538822563831,0.0,[ 0.7818448  -0.17708333],1,2018_Jun_15_1634,60.1008955209,sequenceLearningTask,002,098,
min1.png,min2.png,min3.png,min4.png,allBlank.png,"['num_7', 'num_4', 'num_1', 'num_0']",['num_0'],num_0,[4],'num_0',images/min4.png,"[(0.45, 0.79)]",,,,,0,9,9,9,4,3,19,3,,,,,"(0.25, -0.04)",images/min3.png,10,0.0,1,0.0504529231694,0.0,[-0.63836018 -0.06770833],1,2018_Jun_15_1634,60.1008955209,sequenceLearningTask,002,098,
min1.png,min2.png,min3.png,min4.png,allBlank.png,"['num_7', 'num_4', 'num_1', 'num_0']",['num_0'],num_0,[4],'num_0',images/min4.png,"[(0.45, 0.79)]",,,,,0,9,9,9,4,3,19,3,,,,,"(-0.25, -0.04)",images/min2.png,10,0.0,1,0.069114666665,0.0,[ 0.22401171  0.0703125 ],1,2018_Jun_15_1634,60.1008955209,sequenceLearningTask,002,098,
min1.png,min2.png,min3.png,min4.png,allBlank.png,"['num_7', 'num_4', 'num_1', 'num_0']",['num_0'],num_0,[4],'num_0',images/min4.png,"[(0.45, 0.79)]",,,,,0,9,9,9,4,3,19,3,,,,,"(0.75, -0.04)",images/min4.png,10,0.0,1,0.0534498461057,0.0,[-0.34260615 -0.07291667],1,2018_Jun_15_1634,60.1008955209,sequenceLearningTask,002,098,
min1.png,min2.png,min3.png,min4.png,allBlank.png,"['num_7', 'num_4', 'num_1', 'num_0']",['num_0'],num_0,[4],'num_0',images/min4.png,"[(0.45, 0.79)]",,,,,0,9,9,9,4,3,19,3,,,,,"(0.75, -0.04)",images/min4.png,10,,,0.0581472821068,0.0,[ 0.55197657  0.16927083],1,2018_Jun_15_1634,60.1008955209,sequenceLearningTask,002,098,
min1.png,min2.png,min3.png,min4.png,allBlank.png,"['num_7', 'num_4', 'num_1', 'num_0']",['num_0'],num_0,[4],'num_0',images/min4.png,"[(0.45, 0.79)]",,,,,0,9,9,9,4,3,19,3,,,,,"(-0.25, -0.04)",images/min2.png,10,0.0,1,0.0545805129223,0.0,[ 0.73499268  0.03385417],1,2018_Jun_15_1634,60.1008955209,sequenceLearningTask,002,098,
min1.png,min2.png,min3.png,min4.png,allBlank.png,"['num_7', 'num_4', 'num_1', 'num_0']",['num_0'],num_0,[4],'num_0',images/min4.png,"[(0.45, 0.79)]",,,,,0,9,9,9,4,3,19,3,,,,,"(0.25, -0.04)",images/min3.png,10,0.0,1,0.0528787691146,0.0,[-0.28843338 -0.09635417],1,2018_Jun_15_1634,60.1008955209,sequenceLearningTask,002,098,
min1.png,min2.png,min3.png,min4.png,allBlank.png,"['num_7', 'num_4', 'num_1', 'num_0']",['num_0'],num_0,[4],'num_0',images/min4.png,"[(0.45, 0.79)]",,,,,0,9,9,9,4,3,19,3,,,,,"(0.75, -0.04)",images/min4.png,10,0.0,1,0.0507528204471,0.0,[ 0.2079063  -0.04427083],1,2018_Jun_15_1634,60.1008955209,sequenceLearningTask,002,098,
min1.png,min2.png,min3.png,min4.png,allBlank.png,"['num_7', 'num_4', 'num_1', 'num_0']",['num_0'],num_0,[4],'num_0',images/min4.png,"[(0.45, 0.79)]",,,,,0,9,9,9,4,3,19,3,0,-1,-1,0,,,,,,,,,,2018_Jun_15_1634,60.1008955209,sequenceLearningTask,002,098,
