pawPatrol1,pawPatrol2,pawPatrol3,pawPatrol4,blank,randomPaw,correctKeyPress,allowableKey,correctKey,correctKeyPressNum,trials.thisRepN,trials.thisTrialN,trials.thisN,trials.thisIndex,trials_3.thisRepN,trials_3.thisTrialN,trials_3.thisN,trials_3.thisIndex,trials_2.thisRepN,trials_2.thisTrialN,trials_2.thisN,trials_2.thisIndex,trials_questions.thisRepN,trials_questions.thisTrialN,trials_questions.thisN,trials_questions.thisIndex,correctKey,repetitionNumber,stimulusPresent.t,trialCorrect,key_resp_9.keys,key_resp_9.corr,key_resp_9.rt,keyRespCorrect,date,frameRate,expName,session,participant,
min1.png,min2.png,min3.png,min4.png,allBlank.png,,,,['num_7'],,,,,,0,0,0,0,,,,,,,,,['num_7'],1,0.0535027033184,1,['num_7'],0,[0.5858249199809507],,2018_May_06_1231,60.0436748015,sequenceLearningTask,001,090,
min1.png,min2.png,min3.png,min4.png,allBlank.png,,,,['num_1'],,,,,,0,0,0,0,,,,,,,,,['num_1'],1,0.0575375702465,1,['num_1'],0,[0.5526774736354128],,2018_May_06_1231,60.0436748015,sequenceLearningTask,001,090,
min1.png,min2.png,min3.png,min4.png,allBlank.png,,,,['num_4'],,,,,,0,0,0,0,,,,,,,,,['num_4'],1,0.0536988057429,1,['num_4'],0,[0.3735728735337034],,2018_May_06_1231,60.0436748015,sequenceLearningTask,001,090,
min1.png,min2.png,min3.png,min4.png,allBlank.png,,,,['num_0'],,,,,,0,0,0,0,,,,,,,,,['num_0'],1,0.0546739839483,1,['num_0'],0,[0.39033592981286347],,2018_May_06_1231,60.0436748015,sequenceLearningTask,001,090,
min1.png,min2.png,min3.png,min4.png,allBlank.png,,,,['num_0'],,,,,,0,0,0,0,,,,,,,,,['num_0'],1,0.0551962397294,1,['num_0'],0,[0.5226274593733251],,2018_May_06_1231,60.0436748015,sequenceLearningTask,001,090,
min1.png,min2.png,min3.png,min4.png,allBlank.png,,,,['num_4'],,,,,,0,0,0,0,,,,,,,,,['num_4'],1,0.0537849593675,1,['num_4'],0,[0.6585928304120898],,2018_May_06_1231,60.0436748015,sequenceLearningTask,001,090,
min1.png,min2.png,min3.png,min4.png,allBlank.png,,,,['num_1'],,,,,,0,0,0,0,,,,,,,,,['num_1'],1,0.0685463772388,1,['num_1'],0,[0.5567033147672191],,2018_May_06_1231,60.0436748015,sequenceLearningTask,001,090,
min1.png,min2.png,min3.png,min4.png,allBlank.png,,,,['num_0'],,,,,,0,0,0,0,,,,,,,,,['num_0'],1,0.0521476281574,1,['num_0'],0,[0.5262323779752478],,2018_May_06_1231,60.0436748015,sequenceLearningTask,001,090,
min1.png,min2.png,min3.png,min4.png,allBlank.png,,,,['num_7'],,,,,,0,1,1,1,,,,,,,,,['num_7'],2,0.0679190958617,1,['num_7'],0,[0.47428741632029414],,2018_May_06_1231,60.0436748015,sequenceLearningTask,001,090,
min1.png,min2.png,min3.png,min4.png,allBlank.png,,,,['num_1'],,,,,,0,1,1,1,,,,,,,,,['num_1'],2,0.0522489612922,1,['num_1'],0,[0.5752534457715228],,2018_May_06_1231,60.0436748015,sequenceLearningTask,001,090,
min1.png,min2.png,min3.png,min4.png,allBlank.png,,,,['num_4'],,,,,,0,1,1,1,,,,,,,,,['num_4'],2,0.0618062829599,1,['num_4'],0,[0.46907552517950535],,2018_May_06_1231,60.0436748015,sequenceLearningTask,001,090,
min1.png,min2.png,min3.png,min4.png,allBlank.png,,,,['num_0'],,,,,,0,1,1,1,,,,,,,,,['num_0'],2,0.0623884360539,1,['num_0'],0,[0.38185142748989165],,2018_May_06_1231,60.0436748015,sequenceLearningTask,001,090,
min1.png,min2.png,min3.png,min4.png,allBlank.png,,,,['num_0'],,,,,,0,1,1,1,,,,,,,,,['num_0'],2,0.0569024940487,1,['num_0'],0,[0.5549769579665735],,2018_May_06_1231,60.0436748015,sequenceLearningTask,001,090,
min1.png,min2.png,min3.png,min4.png,allBlank.png,,,,['num_4'],,,,,,0,1,1,1,,,,,,,,,['num_4'],2,0.0690194022609,1,['num_4'],0,[0.9080390874296427],,2018_May_06_1231,60.0436748015,sequenceLearningTask,001,090,
min1.png,min2.png,min3.png,min4.png,allBlank.png,,,,['num_1'],,,,,,0,1,1,1,,,,,,,,,['num_1'],2,0.0469308140455,1,['num_1'],0,[0.4143203105777502],,2018_May_06_1231,60.0436748015,sequenceLearningTask,001,090,
min1.png,min2.png,min3.png,min4.png,allBlank.png,,,,['num_0'],,,,,,0,1,1,1,,,,,,,,,['num_0'],2,0.0556610596832,1,['num_0'],0,[0.538398927077651],,2018_May_06_1231,60.0436748015,sequenceLearningTask,001,090,
min1.png,min2.png,min3.png,min4.png,allBlank.png,,,,['num_7'],,,,,,0,2,2,2,,,,,,,,,['num_7'],3,0.0560028027976,1,['num_7'],0,[0.3858034226577729],,2018_May_06_1231,60.0436748015,sequenceLearningTask,001,090,
min1.png,min2.png,min3.png,min4.png,allBlank.png,,,,['num_1'],,,,,,0,2,2,2,,,,,,,,,['num_1'],3,0.0487412733492,1,['num_1'],0,[0.39554371824488044],,2018_May_06_1231,60.0436748015,sequenceLearningTask,001,090,
min1.png,min2.png,min3.png,min4.png,allBlank.png,,,,['num_4'],,,,,,0,2,2,2,,,,,,,,,['num_4'],3,0.0507765528746,1,['num_4'],0,[0.34289393690414727],,2018_May_06_1231,60.0436748015,sequenceLearningTask,001,090,
min1.png,min2.png,min3.png,min4.png,allBlank.png,,,,['num_0'],,,,,,0,2,2,2,,,,,,,,,['num_0'],3,0.0494325545151,1,['num_0'],0,[0.5116641907952726],,2018_May_06_1231,60.0436748015,sequenceLearningTask,001,090,
min1.png,min2.png,min3.png,min4.png,allBlank.png,,,,['num_0'],,,,,,0,2,2,2,,,,,,,,,['num_0'],3,0.057290185825,1,['num_0'],0,[0.6036538211628795],,2018_May_06_1231,60.0436748015,sequenceLearningTask,001,090,
min1.png,min2.png,min3.png,min4.png,allBlank.png,,,,['num_4'],,,,,,0,2,2,2,,,,,,,,,['num_4'],3,0.0597205419326,0,"['num_7', 'num_4']",0,"[0.5502979893935844, 2.1007494145305827]",,2018_May_06_1231,60.0436748015,sequenceLearningTask,001,090,
min1.png,min2.png,min3.png,min4.png,allBlank.png,,,,['num_1'],,,,,,0,2,2,2,,,,,,,,,['num_1'],3,0.0600163363852,1,['num_1'],0,[0.43424520909320563],,2018_May_06_1231,60.0436748015,sequenceLearningTask,001,090,
min1.png,min2.png,min3.png,min4.png,allBlank.png,,,,['num_0'],,,,,,0,2,2,2,,,,,,,,,['num_0'],3,0.0534013701836,1,['num_0'],0,[0.44128027744591236],,2018_May_06_1231,60.0436748015,sequenceLearningTask,001,090,
min1.png,min2.png,min3.png,min4.png,allBlank.png,,,,['num_7'],,,,,,0,3,3,3,,,,,,,,,['num_7'],4,0.0539896771079,1,['num_7'],0,[0.4378476662095636],,2018_May_06_1231,60.0436748015,sequenceLearningTask,001,090,
min1.png,min2.png,min3.png,min4.png,allBlank.png,,,,['num_1'],,,,,,0,3,3,3,,,,,,,,,['num_1'],4,0.0499281437369,1,['num_1'],0,[0.5777773400768638],,2018_May_06_1231,60.0436748015,sequenceLearningTask,001,090,
min1.png,min2.png,min3.png,min4.png,allBlank.png,,,,['num_4'],,,,,,0,3,3,3,,,,,,,,,['num_4'],4,0.0506460914621,1,['num_4'],0,[0.41022390534635633],,2018_May_06_1231,60.0436748015,sequenceLearningTask,001,090,
min1.png,min2.png,min3.png,min4.png,allBlank.png,,,,['num_0'],,,,,,0,3,3,3,,,,,,,,,['num_0'],4,0.0508627066156,1,['num_0'],0,[0.41022800793871284],,2018_May_06_1231,60.0436748015,sequenceLearningTask,001,090,
min1.png,min2.png,min3.png,min4.png,allBlank.png,,,,['num_0'],,,,,,0,3,3,3,,,,,,,,,['num_0'],4,0.0573824935127,1,['num_0'],0,[0.5875603024614975],,2018_May_06_1231,60.0436748015,sequenceLearningTask,001,090,
min1.png,min2.png,min3.png,min4.png,allBlank.png,,,,['num_4'],,,,,,0,3,3,3,,,,,,,,,['num_4'],4,0.0551379834069,1,['num_4'],0,[0.587811789358966],,2018_May_06_1231,60.0436748015,sequenceLearningTask,001,090,
min1.png,min2.png,min3.png,min4.png,allBlank.png,,,,['num_1'],,,,,,0,3,3,3,,,,,,,,,['num_1'],4,0.0634563321946,1,['num_1'],0,[0.3808393260696903],,2018_May_06_1231,60.0436748015,sequenceLearningTask,001,090,
min1.png,min2.png,min3.png,min4.png,allBlank.png,,,,['num_0'],,,,,,0,3,3,3,,,,,,,,,['num_0'],4,0.0559063927503,1,['num_0'],0,[0.655242680804804],,2018_May_06_1231,60.0436748015,sequenceLearningTask,001,090,
min1.png,min2.png,min3.png,min4.png,allBlank.png,,,,['num_7'],,,,,,0,4,4,4,,,,,,,,,['num_7'],5,0.0576503905468,1,['num_7'],0,[0.5014598957495764],,2018_May_06_1231,60.0436748015,sequenceLearningTask,001,090,
min1.png,min2.png,min3.png,min4.png,allBlank.png,,,,['num_1'],,,,,,0,4,4,4,,,,,,,,,['num_1'],5,0.0501525535947,1,['num_1'],0,[0.4941942635923624],,2018_May_06_1231,60.0436748015,sequenceLearningTask,001,090,
min1.png,min2.png,min3.png,min4.png,allBlank.png,,,,['num_4'],,,,,,0,4,4,4,,,,,,,,,['num_4'],5,0.0514821930556,1,['num_4'],0,[0.4761737729422748],,2018_May_06_1231,60.0436748015,sequenceLearningTask,001,090,
min1.png,min2.png,min3.png,min4.png,allBlank.png,,,,['num_0'],,,,,,0,4,4,4,,,,,,,,,['num_0'],5,0.0600290542934,1,['num_0'],0,[0.5009745629504323],,2018_May_06_1231,60.0436748015,sequenceLearningTask,001,090,
min1.png,min2.png,min3.png,min4.png,allBlank.png,,,,['num_0'],,,,,,0,4,4,4,,,,,,,,,['num_0'],5,0.0637320240494,1,['num_0'],0,[0.4303481882670894],,2018_May_06_1231,60.0436748015,sequenceLearningTask,001,090,
min1.png,min2.png,min3.png,min4.png,allBlank.png,,,,['num_4'],,,,,,0,4,4,4,,,,,,,,,['num_4'],5,0.051973679685,0,"['num_7', 'num_4']",0,"[0.4585233331890777, 1.1088634558254853]",,2018_May_06_1231,60.0436748015,sequenceLearningTask,001,090,
min1.png,min2.png,min3.png,min4.png,allBlank.png,,,,['num_1'],,,,,,0,4,4,4,,,,,,,,,['num_1'],5,0.0651227916824,0,"['num_4', 'num_1']",0,"[0.5613006425555795, 1.2952997391112149]",,2018_May_06_1231,60.0436748015,sequenceLearningTask,001,090,
min1.png,min2.png,min3.png,min4.png,allBlank.png,,,,['num_0'],,,,,,0,4,4,4,,,,,,,,,['num_0'],5,0.0554169574752,1,['num_0'],0,[0.5883028656244278],,2018_May_06_1231,60.0436748015,sequenceLearningTask,001,090,
min1.png,min2.png,min3.png,min4.png,allBlank.png,,,,['num_7'],,,,,,0,5,5,5,,,,,,,,,['num_7'],6,0.0495076313382,1,['num_7'],0,[0.5601695670047775],,2018_May_06_1231,60.0436748015,sequenceLearningTask,001,090,
min1.png,min2.png,min3.png,min4.png,allBlank.png,,,,['num_1'],,,,,,0,5,5,5,,,,,,,,,['num_1'],6,0.0530165501405,1,['num_1'],0,[0.4251908613368869],,2018_May_06_1231,60.0436748015,sequenceLearningTask,001,090,
min1.png,min2.png,min3.png,min4.png,allBlank.png,,,,['num_4'],,,,,,0,5,5,5,,,,,,,,,['num_4'],6,0.0565291611711,1,['num_4'],0,[0.43745012825820595],,2018_May_06_1231,60.0436748015,sequenceLearningTask,001,090,
min1.png,min2.png,min3.png,min4.png,allBlank.png,,,,['num_0'],,,,,,0,5,5,5,,,,,,,,,['num_0'],6,0.0484668121208,1,['num_0'],0,[0.4130858505377546],,2018_May_06_1231,60.0436748015,sequenceLearningTask,001,090,
min1.png,min2.png,min3.png,min4.png,allBlank.png,,,,['num_0'],,,,,,0,5,5,5,,,,,,,,,['num_0'],6,0.0530452680541,1,['num_0'],0,[0.5750696511240676],,2018_May_06_1231,60.0436748015,sequenceLearningTask,001,090,
min1.png,min2.png,min3.png,min4.png,allBlank.png,,,,['num_4'],,,,,,0,5,5,5,,,,,,,,,['num_4'],6,0.0568934683688,1,['num_4'],0,[0.45560969575308263],,2018_May_06_1231,60.0436748015,sequenceLearningTask,001,090,
min1.png,min2.png,min3.png,min4.png,allBlank.png,,,,['num_1'],,,,,,0,5,5,5,,,,,,,,,['num_1'],6,0.0560778797371,1,['num_1'],0,[0.38932464900426567],,2018_May_06_1231,60.0436748015,sequenceLearningTask,001,090,
min1.png,min2.png,min3.png,min4.png,allBlank.png,,,,['num_0'],,,,,,0,5,5,5,,,,,,,,,['num_0'],6,0.0513463984244,1,['num_0'],0,[0.5430348188383505],,2018_May_06_1231,60.0436748015,sequenceLearningTask,001,090,
min1.png,min2.png,min3.png,min4.png,allBlank.png,,,,['num_7'],,,,,,0,6,6,6,,,,,,,,,['num_7'],7,0.0505673222942,1,['num_7'],0,[0.3252845227252692],,2018_May_06_1231,60.0436748015,sequenceLearningTask,001,090,
min1.png,min2.png,min3.png,min4.png,allBlank.png,,,,['num_1'],,,,,,0,6,6,6,,,,,,,,,['num_1'],7,0.058678491856,1,['num_1'],0,[0.3357284073717892],,2018_May_06_1231,60.0436748015,sequenceLearningTask,001,090,
min1.png,min2.png,min3.png,min4.png,allBlank.png,,,,['num_4'],,,,,,0,6,6,6,,,,,,,,,['num_4'],7,0.0626514101168,1,['num_4'],0,[0.34790357179008424],,2018_May_06_1231,60.0436748015,sequenceLearningTask,001,090,
min1.png,min2.png,min3.png,min4.png,allBlank.png,,,,['num_0'],,,,,,0,6,6,6,,,,,,,,,['num_0'],7,0.0542280358495,1,['num_0'],0,[0.45655287406407297],,2018_May_06_1231,60.0436748015,sequenceLearningTask,001,090,
min1.png,min2.png,min3.png,min4.png,allBlank.png,,,,['num_0'],,,,,,0,6,6,6,,,,,,,,,['num_0'],7,0.0646793050691,1,['num_0'],0,[0.5764148802263662],,2018_May_06_1231,60.0436748015,sequenceLearningTask,001,090,
min1.png,min2.png,min3.png,min4.png,allBlank.png,,,,['num_4'],,,,,,0,6,6,6,,,,,,,,,['num_4'],7,0.0519441411598,1,['num_4'],0,[0.37581533240154386],,2018_May_06_1231,60.0436748015,sequenceLearningTask,001,090,
min1.png,min2.png,min3.png,min4.png,allBlank.png,,,,['num_1'],,,,,,0,6,6,6,,,,,,,,,['num_1'],7,0.0523478330579,1,['num_1'],0,[0.32367221696767956],,2018_May_06_1231,60.0436748015,sequenceLearningTask,001,090,
min1.png,min2.png,min3.png,min4.png,allBlank.png,,,,['num_0'],,,,,,0,6,6,6,,,,,,,,,['num_0'],7,0.0566583918408,1,['num_0'],0,[0.6544492458924651],,2018_May_06_1231,60.0436748015,sequenceLearningTask,001,090,
min1.png,min2.png,min3.png,min4.png,allBlank.png,,,,['num_7'],,,,,,0,7,7,7,,,,,,,,,['num_7'],8,0.0490772728808,1,['num_7'],0,[0.3445144477300346],,2018_May_06_1231,60.0436748015,sequenceLearningTask,001,090,
min1.png,min2.png,min3.png,min4.png,allBlank.png,,,,['num_1'],,,,,,0,7,7,7,,,,,,,,,['num_1'],8,0.0564077254385,1,['num_1'],0,[0.35484510171227157],,2018_May_06_1231,60.0436748015,sequenceLearningTask,001,090,
min1.png,min2.png,min3.png,min4.png,allBlank.png,,,,['num_4'],,,,,,0,7,7,7,,,,,,,,,['num_4'],8,0.0555088546826,1,['num_4'],0,[0.35508879367262125],,2018_May_06_1231,60.0436748015,sequenceLearningTask,001,090,
min1.png,min2.png,min3.png,min4.png,allBlank.png,,,,['num_0'],,,,,,0,7,7,7,,,,,,,,,['num_0'],8,0.0612741810037,1,['num_0'],0,[0.43251680093817413],,2018_May_06_1231,60.0436748015,sequenceLearningTask,001,090,
min1.png,min2.png,min3.png,min4.png,allBlank.png,,,,['num_0'],,,,,,0,7,7,7,,,,,,,,,['num_0'],8,0.0585098767187,1,['num_0'],0,[0.38534844876267016],,2018_May_06_1231,60.0436748015,sequenceLearningTask,001,090,
min1.png,min2.png,min3.png,min4.png,allBlank.png,,,,['num_4'],,,,,,0,7,7,7,,,,,,,,,['num_4'],8,0.0558653670596,1,['num_4'],0,[0.9558585159247741],,2018_May_06_1231,60.0436748015,sequenceLearningTask,001,090,
min1.png,min2.png,min3.png,min4.png,allBlank.png,,,,['num_1'],,,,,,0,7,7,7,,,,,,,,,['num_1'],8,0.0611145915464,1,['num_1'],0,[0.43282326217740774],,2018_May_06_1231,60.0436748015,sequenceLearningTask,001,090,
min1.png,min2.png,min3.png,min4.png,allBlank.png,,,,['num_0'],,,,,,0,7,7,7,,,,,,,,,['num_0'],8,0.0564019818557,1,['num_0'],0,[0.5209589485311881],,2018_May_06_1231,60.0436748015,sequenceLearningTask,001,090,
min1.png,min2.png,min3.png,min4.png,allBlank.png,,,,['num_7'],,,,,,0,8,8,8,,,,,,,,,['num_7'],9,0.0487933758413,1,['num_7'],0,[0.3431343470001593],,2018_May_06_1231,60.0436748015,sequenceLearningTask,001,090,
min1.png,min2.png,min3.png,min4.png,allBlank.png,,,,['num_1'],,,,,,0,8,8,8,,,,,,,,,['num_1'],9,0.0500594255282,1,['num_1'],0,[0.37851768790278584],,2018_May_06_1231,60.0436748015,sequenceLearningTask,001,090,
min1.png,min2.png,min3.png,min4.png,allBlank.png,,,,['num_4'],,,,,,0,8,8,8,,,,,,,,,['num_4'],9,0.0583925435785,1,['num_4'],0,[0.33297435950953513],,2018_May_06_1231,60.0436748015,sequenceLearningTask,001,090,
min1.png,min2.png,min3.png,min4.png,allBlank.png,,,,['num_0'],,,,,,0,8,8,8,,,,,,,,,['num_0'],9,0.0606801304966,1,['num_0'],0,[0.482612329069525],,2018_May_06_1231,60.0436748015,sequenceLearningTask,001,090,
min1.png,min2.png,min3.png,min4.png,allBlank.png,,,,['num_0'],,,,,,0,8,8,8,,,,,,,,,['num_0'],9,0.0601660797838,1,['num_0'],0,[0.38418414257466793],,2018_May_06_1231,60.0436748015,sequenceLearningTask,001,090,
min1.png,min2.png,min3.png,min4.png,allBlank.png,,,,['num_4'],,,,,,0,8,8,8,,,,,,,,,['num_4'],9,0.0519974745112,1,['num_4'],0,[0.859638326568529],,2018_May_06_1231,60.0436748015,sequenceLearningTask,001,090,
min1.png,min2.png,min3.png,min4.png,allBlank.png,,,,['num_1'],,,,,,0,8,8,8,,,,,,,,,['num_1'],9,0.0593033116311,1,['num_1'],0,[0.434476183145307],,2018_May_06_1231,60.0436748015,sequenceLearningTask,001,090,
min1.png,min2.png,min3.png,min4.png,allBlank.png,,,,['num_0'],,,,,,0,8,8,8,,,,,,,,,['num_0'],9,0.0547223940957,1,['num_0'],0,[0.3904200323158875],,2018_May_06_1231,60.0436748015,sequenceLearningTask,001,090,
min1.png,min2.png,min3.png,min4.png,allBlank.png,,,,['num_7'],,,,,,0,9,9,9,,,,,,,,,['num_7'],10,0.0524430123623,1,['num_7'],0,[0.4573007704457268],,2018_May_06_1231,60.0436748015,sequenceLearningTask,001,090,
min1.png,min2.png,min3.png,min4.png,allBlank.png,,,,['num_1'],,,,,,0,9,9,9,,,,,,,,,['num_1'],10,0.0534132675966,1,['num_1'],0,[0.3743178982986137],,2018_May_06_1231,60.0436748015,sequenceLearningTask,001,090,
min1.png,min2.png,min3.png,min4.png,allBlank.png,,,,['num_4'],,,,,,0,9,9,9,,,,,,,,,['num_4'],10,0.0587498763343,1,['num_4'],0,[0.36861985409632325],,2018_May_06_1231,60.0436748015,sequenceLearningTask,001,090,
min1.png,min2.png,min3.png,min4.png,allBlank.png,,,,['num_0'],,,,,,0,9,9,9,,,,,,,,,['num_0'],10,0.0541226001224,1,['num_0'],0,[0.39034003240521997],,2018_May_06_1231,60.0436748015,sequenceLearningTask,001,090,
min1.png,min2.png,min3.png,min4.png,allBlank.png,,,,['num_0'],,,,,,0,9,9,9,,,,,,,,,['num_0'],10,0.0565726483474,1,['num_0'],0,[0.4205545593285933],,2018_May_06_1231,60.0436748015,sequenceLearningTask,001,090,
min1.png,min2.png,min3.png,min4.png,allBlank.png,,,,['num_4'],,,,,,0,9,9,9,,,,,,,,,['num_4'],10,0.0528479350032,1,['num_4'],0,[0.7078625133726746],,2018_May_06_1231,60.0436748015,sequenceLearningTask,001,090,
min1.png,min2.png,min3.png,min4.png,allBlank.png,,,,['num_1'],,,,,,0,9,9,9,,,,,,,,,['num_1'],10,0.0560352131724,1,['num_1'],0,[0.9221945572644472],,2018_May_06_1231,60.0436748015,sequenceLearningTask,001,090,
min1.png,min2.png,min3.png,min4.png,allBlank.png,,,,['num_0'],,,,,,0,9,9,9,,,,,,,,,['num_0'],10,0.0541915229987,1,['num_0'],0,[0.4404843809315935],,2018_May_06_1231,60.0436748015,sequenceLearningTask,001,090,
min1.png,min2.png,min3.png,min4.png,allBlank.png,,,,['num_7'],,,,,,0,0,0,0,,,,,,,,,['num_7'],1,0.0531051654834,1,['num_7'],0,[0.5828645133879036],,2018_May_06_1231,60.0436748015,sequenceLearningTask,001,090,
min1.png,min2.png,min3.png,min4.png,allBlank.png,,,,['num_1'],,,,,,0,0,0,0,,,,,,,,,['num_1'],1,0.0632791016251,1,['num_1'],0,[0.3803429164690897],,2018_May_06_1231,60.0436748015,sequenceLearningTask,001,090,
min1.png,min2.png,min3.png,min4.png,allBlank.png,,,,['num_4'],,,,,,0,0,0,0,,,,,,,,,['num_4'],1,0.0591687477427,1,['num_4'],0,[0.61802836752031],,2018_May_06_1231,60.0436748015,sequenceLearningTask,001,090,
min1.png,min2.png,min3.png,min4.png,allBlank.png,,,,['num_0'],,,,,,0,0,0,0,,,,,,,,,['num_0'],1,0.0556639314163,1,['num_0'],0,[0.45593420800287277],,2018_May_06_1231,60.0436748015,sequenceLearningTask,001,090,
min1.png,min2.png,min3.png,min4.png,allBlank.png,,,,['num_0'],,,,,,0,0,0,0,,,,,,,,,['num_0'],1,0.0547482402762,1,['num_0'],0,[0.5236124837538227],,2018_May_06_1231,60.0436748015,sequenceLearningTask,001,090,
min1.png,min2.png,min3.png,min4.png,allBlank.png,,,,['num_4'],,,,,,0,0,0,0,,,,,,,,,['num_4'],1,0.0587749020196,1,['num_4'],0,[0.40256155584938824],,2018_May_06_1231,60.0436748015,sequenceLearningTask,001,090,
min1.png,min2.png,min3.png,min4.png,allBlank.png,,,,['num_1'],,,,,,0,0,0,0,,,,,,,,,['num_1'],1,0.0530501911417,1,['num_1'],0,[0.32547734293621033],,2018_May_06_1231,60.0436748015,sequenceLearningTask,001,090,
min1.png,min2.png,min3.png,min4.png,allBlank.png,,,,['num_0'],,,,,,0,0,0,0,,,,,,,,,['num_0'],1,0.0369849801064,1,['num_0'],0,[0.3580213028471917],,2018_May_06_1231,60.0436748015,sequenceLearningTask,001,090,
min1.png,min2.png,min3.png,min4.png,allBlank.png,,,,['num_7'],,,,,,0,1,1,1,,,,,,,,,['num_7'],2,0.0583744923351,1,['num_7'],0,[0.5006123068742454],,2018_May_06_1231,60.0436748015,sequenceLearningTask,001,090,
min1.png,min2.png,min3.png,min4.png,allBlank.png,,,,['num_1'],,,,,,0,1,1,1,,,,,,,,,['num_1'],2,0.0532618832076,1,['num_1'],0,[0.35708386823534966],,2018_May_06_1231,60.0436748015,sequenceLearningTask,001,090,
min1.png,min2.png,min3.png,min4.png,allBlank.png,,,,['num_4'],,,,,,0,1,1,1,,,,,,,,,['num_4'],2,0.0503084508236,1,['num_4'],0,[0.293430202989839],,2018_May_06_1231,60.0436748015,sequenceLearningTask,001,090,
min1.png,min2.png,min3.png,min4.png,allBlank.png,,,,['num_0'],,,,,,0,1,1,1,,,,,,,,,['num_0'],2,0.0545984968776,1,['num_0'],0,[0.3732959508197382],,2018_May_06_1231,60.0436748015,sequenceLearningTask,001,090,
min1.png,min2.png,min3.png,min4.png,allBlank.png,,,,['num_0'],,,,,,0,1,1,1,,,,,,,,,['num_0'],2,0.0545324457344,1,['num_0'],0,[0.33847507066093385],,2018_May_06_1231,60.0436748015,sequenceLearningTask,001,090,
min1.png,min2.png,min3.png,min4.png,allBlank.png,,,,['num_4'],,,,,,0,1,1,1,,,,,,,,,['num_4'],2,0.0512483472703,1,['num_4'],0,[0.6438658742699772],,2018_May_06_1231,60.0436748015,sequenceLearningTask,001,090,
min1.png,min2.png,min3.png,min4.png,allBlank.png,,,,['num_1'],,,,,,0,1,1,1,,,,,,,,,['num_1'],2,0.0568073146278,1,['num_1'],0,[0.37011072400491685],,2018_May_06_1231,60.0436748015,sequenceLearningTask,001,090,
min1.png,min2.png,min3.png,min4.png,allBlank.png,,,,['num_0'],,,,,,0,1,1,1,,,,,,,,,['num_0'],2,0.0561275206273,1,['num_0'],0,[0.5208223334047943],,2018_May_06_1231,60.0436748015,sequenceLearningTask,001,090,
min1.png,min2.png,min3.png,min4.png,allBlank.png,,,,['num_7'],,,,,,0,2,2,2,,,,,,,,,['num_7'],3,0.0492516316008,1,['num_7'],0,[0.3096426958218217],,2018_May_06_1231,60.0436748015,sequenceLearningTask,001,090,
min1.png,min2.png,min3.png,min4.png,allBlank.png,,,,['num_1'],,,,,,0,2,2,2,,,,,,,,,['num_1'],3,0.0503716303501,1,['num_1'],0,[0.31069664331153035],,2018_May_06_1231,60.0436748015,sequenceLearningTask,001,090,
min1.png,min2.png,min3.png,min4.png,allBlank.png,,,,['num_4'],,,,,,0,2,2,2,,,,,,,,,['num_4'],3,0.0531416782178,1,['num_4'],0,[0.3245628825388849],,2018_May_06_1231,60.0436748015,sequenceLearningTask,001,090,
min1.png,min2.png,min3.png,min4.png,allBlank.png,,,,['num_0'],,,,,,0,2,2,2,,,,,,,,,['num_0'],3,0.0479059923673,1,['num_0'],0,[0.41304564545862377],,2018_May_06_1231,60.0436748015,sequenceLearningTask,001,090,
min1.png,min2.png,min3.png,min4.png,allBlank.png,,,,['num_0'],,,,,,0,2,2,2,,,,,,,,,['num_0'],3,0.0554403420538,1,['num_0'],0,[0.3394830693723634],,2018_May_06_1231,60.0436748015,sequenceLearningTask,001,090,
min1.png,min2.png,min3.png,min4.png,allBlank.png,,,,['num_4'],,,,,,0,2,2,2,,,,,,,,,['num_4'],3,0.0617152061313,0,"['num_7', 'num_4']",0,"[0.8815562482923269, 1.449473908287473]",,2018_May_06_1231,60.0436748015,sequenceLearningTask,001,090,
min1.png,min2.png,min3.png,min4.png,allBlank.png,,,,['num_1'],,,,,,0,2,2,2,,,,,,,,,['num_1'],3,0.055664752028,1,['num_1'],0,[0.47152147104498],,2018_May_06_1231,60.0436748015,sequenceLearningTask,001,090,
min1.png,min2.png,min3.png,min4.png,allBlank.png,,,,['num_0'],,,,,,0,2,2,2,,,,,,,,,['num_0'],3,0.0539223951055,1,['num_0'],0,[0.35692099656444043],,2018_May_06_1231,60.0436748015,sequenceLearningTask,001,090,
min1.png,min2.png,min3.png,min4.png,allBlank.png,,,,['num_7'],,,,,,0,3,3,3,,,,,,,,,['num_7'],4,0.0550961373374,1,['num_7'],0,[0.43758182041347027],,2018_May_06_1231,60.0436748015,sequenceLearningTask,001,090,
min1.png,min2.png,min3.png,min4.png,allBlank.png,,,,['num_1'],,,,,,0,3,3,3,,,,,,,,,['num_1'],4,0.0565820841584,1,['num_1'],0,[0.3043360357405618],,2018_May_06_1231,60.0436748015,sequenceLearningTask,001,090,
min1.png,min2.png,min3.png,min4.png,allBlank.png,,,,['num_4'],,,,,,0,3,3,3,,,,,,,,,['num_4'],4,0.051561372471,1,['num_4'],0,[0.29441932996269315],,2018_May_06_1231,60.0436748015,sequenceLearningTask,001,090,
min1.png,min2.png,min3.png,min4.png,allBlank.png,,,,['num_0'],,,,,,0,3,3,3,,,,,,,,,['num_0'],4,0.0585882355226,1,['num_0'],0,[0.31899119704030454],,2018_May_06_1231,60.0436748015,sequenceLearningTask,001,090,
min1.png,min2.png,min3.png,min4.png,allBlank.png,,,,['num_0'],,,,,,0,3,3,3,,,,,,,,,['num_0'],4,0.0552122397348,1,['num_0'],0,[0.4227354796603322],,2018_May_06_1231,60.0436748015,sequenceLearningTask,001,090,
min1.png,min2.png,min3.png,min4.png,allBlank.png,,,,['num_4'],,,,,,0,3,3,3,,,,,,,,,['num_4'],4,0.0575449548196,1,['num_4'],0,[0.38531644886825234],,2018_May_06_1231,60.0436748015,sequenceLearningTask,001,090,
min1.png,min2.png,min3.png,min4.png,allBlank.png,,,,['num_1'],,,,,,0,3,3,3,,,,,,,,,['num_1'],4,0.0528294733958,1,['num_1'],0,[0.47497746674343944],,2018_May_06_1231,60.0436748015,sequenceLearningTask,001,090,
min1.png,min2.png,min3.png,min4.png,allBlank.png,,,,['num_0'],,,,,,0,3,3,3,,,,,,,,,['num_0'],4,0.0543244460132,1,['num_0'],0,[0.4233176327543333],,2018_May_06_1231,60.0436748015,sequenceLearningTask,001,090,
min1.png,min2.png,min3.png,min4.png,allBlank.png,,,,['num_7'],,,,,,0,4,4,4,,,,,,,,,['num_7'],5,0.0566883403808,1,['num_7'],0,[0.3195257605984807],,2018_May_06_1231,60.0436748015,sequenceLearningTask,001,090,
min1.png,min2.png,min3.png,min4.png,allBlank.png,,,,['num_1'],,,,,,0,4,4,4,,,,,,,,,['num_1'],5,0.0528803452617,1,['num_1'],0,[0.3412717852042988],,2018_May_06_1231,60.0436748015,sequenceLearningTask,001,090,
min1.png,min2.png,min3.png,min4.png,allBlank.png,,,,['num_4'],,,,,,0,4,4,4,,,,,,,,,['num_4'],5,0.0532249601092,1,['num_4'],0,[0.2915725642815232],,2018_May_06_1231,60.0436748015,sequenceLearningTask,001,090,
min1.png,min2.png,min3.png,min4.png,allBlank.png,,,,['num_0'],,,,,,0,4,4,4,,,,,,,,,['num_0'],5,0.0508823989658,1,['num_0'],0,[0.3107228996232152],,2018_May_06_1231,60.0436748015,sequenceLearningTask,001,090,
min1.png,min2.png,min3.png,min4.png,allBlank.png,,,,['num_0'],,,,,,0,4,4,4,,,,,,,,,['num_0'],5,0.0532815754414,1,['num_0'],0,[0.35762376501224935],,2018_May_06_1231,60.0436748015,sequenceLearningTask,001,090,
min1.png,min2.png,min3.png,min4.png,allBlank.png,,,,['num_4'],,,,,,0,4,4,4,,,,,,,,,['num_4'],5,0.0551683424274,1,['num_4'],0,[0.4395063308766112],,2018_May_06_1231,60.0436748015,sequenceLearningTask,001,090,
min1.png,min2.png,min3.png,min4.png,allBlank.png,,,,['num_1'],,,,,,0,4,4,4,,,,,,,,,['num_1'],5,0.0546735738171,1,['num_1'],0,[0.3399979405803606],,2018_May_06_1231,60.0436748015,sequenceLearningTask,001,090,
min1.png,min2.png,min3.png,min4.png,allBlank.png,,,,['num_0'],,,,,,0,4,4,4,,,,,,,,,['num_0'],5,0.0521008590003,1,['num_0'],0,[0.3260492397239432],,2018_May_06_1231,60.0436748015,sequenceLearningTask,001,090,
min1.png,min2.png,min3.png,min4.png,allBlank.png,,,,['num_7'],,,,,,0,5,5,5,,,,,,,,,['num_7'],6,0.0574169550091,1,['num_7'],0,[0.3346945623634383],,2018_May_06_1231,60.0436748015,sequenceLearningTask,001,090,
min1.png,min2.png,min3.png,min4.png,allBlank.png,,,,['num_1'],,,,,,0,5,5,5,,,,,,,,,['num_1'],6,0.0596101831179,1,['num_1'],0,[0.30088701425120234],,2018_May_06_1231,60.0436748015,sequenceLearningTask,001,090,
min1.png,min2.png,min3.png,min4.png,allBlank.png,,,,['num_4'],,,,,,0,5,5,5,,,,,,,,,['num_4'],6,0.0606198228197,1,['num_4'],0,[0.33395938389003277],,2018_May_06_1231,60.0436748015,sequenceLearningTask,001,090,
min1.png,min2.png,min3.png,min4.png,allBlank.png,,,,['num_0'],,,,,,0,5,5,5,,,,,,,,,['num_0'],6,0.0506329633063,1,['num_0'],0,[0.427631473634392],,2018_May_06_1231,60.0436748015,sequenceLearningTask,001,090,
min1.png,min2.png,min3.png,min4.png,allBlank.png,,,,['num_0'],,,,,,0,5,5,5,,,,,,,,,['num_0'],6,0.0505468095653,1,['num_0'],0,[0.3273271869402379],,2018_May_06_1231,60.0436748015,sequenceLearningTask,001,090,
min1.png,min2.png,min3.png,min4.png,allBlank.png,,,,['num_4'],,,,,,0,5,5,5,,,,,,,,,['num_4'],6,0.0575699803885,1,['num_4'],0,[0.35436346125788987],,2018_May_06_1231,60.0436748015,sequenceLearningTask,001,090,
min1.png,min2.png,min3.png,min4.png,allBlank.png,,,,['num_1'],,,,,,0,5,5,5,,,,,,,,,['num_1'],6,0.0515650646994,1,['num_1'],0,[0.3424500400433317],,2018_May_06_1231,60.0436748015,sequenceLearningTask,001,090,
min1.png,min2.png,min3.png,min4.png,allBlank.png,,,,['num_0'],,,,,,0,5,5,5,,,,,,,,,['num_0'],6,0.0634009476053,1,['num_0'],0,[0.1311924539040774],,2018_May_06_1231,60.0436748015,sequenceLearningTask,001,090,
min1.png,min2.png,min3.png,min4.png,allBlank.png,,,,['num_7'],,,,,,0,6,6,6,,,,,,,,,['num_7'],7,0.0578144929605,1,['num_7'],0,[0.2513239983236417],,2018_May_06_1231,60.0436748015,sequenceLearningTask,001,090,
min1.png,min2.png,min3.png,min4.png,allBlank.png,,,,['num_1'],,,,,,0,6,6,6,,,,,,,,,['num_1'],7,0.0560454694787,1,['num_1'],0,[0.2719401781214401],,2018_May_06_1231,60.0436748015,sequenceLearningTask,001,090,
min1.png,min2.png,min3.png,min4.png,allBlank.png,,,,['num_4'],,,,,,0,6,6,6,,,,,,,,,['num_4'],7,0.0572594167897,1,['num_4'],0,[0.1368236264679581],,2018_May_06_1231,60.0436748015,sequenceLearningTask,001,090,
min1.png,min2.png,min3.png,min4.png,allBlank.png,,,,['num_0'],,,,,,0,6,6,6,,,,,,,,,['num_0'],7,0.0552581883967,1,['num_0'],0,[0.25588604412041605],,2018_May_06_1231,60.0436748015,sequenceLearningTask,001,090,
min1.png,min2.png,min3.png,min4.png,allBlank.png,,,,['num_0'],,,,,,0,6,6,6,,,,,,,,,['num_0'],7,0.0517189106904,1,['num_0'],0,[0.35938376281410456],,2018_May_06_1231,60.0436748015,sequenceLearningTask,001,090,
min1.png,min2.png,min3.png,min4.png,allBlank.png,,,,['num_4'],,,,,,0,6,6,6,,,,,,,,,['num_4'],7,0.0253164817113,1,['num_4'],0,[0.4207416359568015],,2018_May_06_1231,60.0436748015,sequenceLearningTask,001,090,
min1.png,min2.png,min3.png,min4.png,allBlank.png,,,,['num_1'],,,,,,0,6,6,6,,,,,,,,,['num_1'],7,0.0521599357016,1,['num_1'],0,[0.2924603580031544],,2018_May_06_1231,60.0436748015,sequenceLearningTask,001,090,
min1.png,min2.png,min3.png,min4.png,allBlank.png,,,,['num_0'],,,,,,0,6,6,6,,,,,,,,,['num_0'],7,0.0577800313476,1,['num_0'],0,[0.27108602540101856],,2018_May_06_1231,60.0436748015,sequenceLearningTask,001,090,
min1.png,min2.png,min3.png,min4.png,allBlank.png,,,,['num_7'],,,,,,0,7,7,7,,,,,,,,,['num_7'],8,0.0561558284098,1,['num_7'],0,[0.3871859849896282],,2018_May_06_1231,60.0436748015,sequenceLearningTask,001,090,
min1.png,min2.png,min3.png,min4.png,allBlank.png,,,,['num_1'],,,,,,0,7,7,7,,,,,,,,,['num_1'],8,0.053160960204,1,['num_1'],0,[0.3081415693741292],,2018_May_06_1231,60.0436748015,sequenceLearningTask,001,090,
min1.png,min2.png,min3.png,min4.png,allBlank.png,,,,['num_4'],,,,,,0,7,7,7,,,,,,,,,['num_4'],8,0.0538149081403,1,['num_4'],0,[0.2752283791778609],,2018_May_06_1231,60.0436748015,sequenceLearningTask,001,090,
min1.png,min2.png,min3.png,min4.png,allBlank.png,,,,['num_0'],,,,,,0,7,7,7,,,,,,,,,['num_0'],8,0.0556257776916,0,"['num_1', 'num_0']",0,"[0.4890045262873173, 1.0730657562380657]",,2018_May_06_1231,60.0436748015,sequenceLearningTask,001,090,
min1.png,min2.png,min3.png,min4.png,allBlank.png,,,,['num_0'],,,,,,0,7,7,7,,,,,,,,,['num_0'],8,0.0519334746059,1,['num_0'],0,[0.5254844813607633],,2018_May_06_1231,60.0436748015,sequenceLearningTask,001,090,
min1.png,min2.png,min3.png,min4.png,allBlank.png,,,,['num_4'],,,,,,0,7,7,7,,,,,,,,,['num_4'],8,0.0493152213749,1,['num_4'],0,[0.3119692570762709],,2018_May_06_1231,60.0436748015,sequenceLearningTask,001,090,
min1.png,min2.png,min3.png,min4.png,allBlank.png,,,,['num_1'],,,,,,0,7,7,7,,,,,,,,,['num_1'],8,0.051547013456,1,['num_1'],0,[0.27609853202011436],,2018_May_06_1231,60.0436748015,sequenceLearningTask,001,090,
min1.png,min2.png,min3.png,min4.png,allBlank.png,,,,['num_0'],,,,,,0,7,7,7,,,,,,,,,['num_0'],8,0.0560032131616,1,['num_0'],0,[0.25516235269606113],,2018_May_06_1231,60.0436748015,sequenceLearningTask,001,090,
min1.png,min2.png,min3.png,min4.png,allBlank.png,,,,['num_7'],,,,,,0,8,8,8,,,,,,,,,['num_7'],9,0.0510169628542,1,['num_7'],0,[0.5594056705012918],,2018_May_06_1231,60.0436748015,sequenceLearningTask,001,090,
min1.png,min2.png,min3.png,min4.png,allBlank.png,,,,['num_1'],,,,,,0,8,8,8,,,,,,,,,['num_1'],9,0.0544003432151,1,['num_1'],0,[0.2565531200962141],,2018_May_06_1231,60.0436748015,sequenceLearningTask,001,090,
min1.png,min2.png,min3.png,min4.png,allBlank.png,,,,['num_4'],,,,,,0,8,8,8,,,,,,,,,['num_4'],9,0.0576651598094,1,['num_4'],0,[0.2200797291006893],,2018_May_06_1231,60.0436748015,sequenceLearningTask,001,090,
min1.png,min2.png,min3.png,min4.png,allBlank.png,,,,['num_0'],,,,,,0,8,8,8,,,,,,,,,['num_0'],9,0.0561989052221,1,['num_0'],0,[0.32230155204888433],,2018_May_06_1231,60.0436748015,sequenceLearningTask,001,090,
min1.png,min2.png,min3.png,min4.png,allBlank.png,,,,['num_0'],,,,,,0,8,8,8,,,,,,,,,['num_0'],9,0.0515552186407,1,['num_0'],0,[0.309922490385361],,2018_May_06_1231,60.0436748015,sequenceLearningTask,001,090,
min1.png,min2.png,min3.png,min4.png,allBlank.png,,,,['num_4'],,,,,,0,8,8,8,,,,,,,,,['num_4'],9,0.0526641403558,1,['num_4'],0,[0.2587984506972134],,2018_May_06_1231,60.0436748015,sequenceLearningTask,001,090,
min1.png,min2.png,min3.png,min4.png,allBlank.png,,,,['num_1'],,,,,,0,8,8,8,,,,,,,,,['num_1'],9,0.0523256792221,1,['num_1'],0,[0.2753383277449757],,2018_May_06_1231,60.0436748015,sequenceLearningTask,001,090,
min1.png,min2.png,min3.png,min4.png,allBlank.png,,,,['num_0'],,,,,,0,8,8,8,,,,,,,,,['num_0'],9,0.0523728586268,1,['num_0'],0,[0.24220893264282495],,2018_May_06_1231,60.0436748015,sequenceLearningTask,001,090,
min1.png,min2.png,min3.png,min4.png,allBlank.png,,,,['num_7'],,,,,,0,9,9,9,,,,,,,,,['num_7'],10,0.0427281525917,1,['num_7'],0,[0.2189658844145015],,2018_May_06_1231,60.0436748015,sequenceLearningTask,001,090,
min1.png,min2.png,min3.png,min4.png,allBlank.png,,,,['num_1'],,,,,,0,9,9,9,,,,,,,,,['num_1'],10,0.0597562341718,1,['num_1'],0,[0.21827747486531734],,2018_May_06_1231,60.0436748015,sequenceLearningTask,001,090,
min1.png,min2.png,min3.png,min4.png,allBlank.png,,,,['num_4'],,,,,,0,9,9,9,,,,,,,,,['num_4'],10,0.0528479350032,1,['num_4'],0,[0.19137207220774144],,2018_May_06_1231,60.0436748015,sequenceLearningTask,001,090,
min1.png,min2.png,min3.png,min4.png,allBlank.png,,,,['num_0'],,,,,,0,9,9,9,,,,,,,,,['num_0'],10,0.0531334731495,1,['num_0'],0,[0.3246441133087501],,2018_May_06_1231,60.0436748015,sequenceLearningTask,001,090,
min1.png,min2.png,min3.png,min4.png,allBlank.png,,,,['num_0'],,,,,,0,9,9,9,,,,,,,,,['num_0'],10,0.0540421898477,1,['num_0'],0,[0.2738482783315703],,2018_May_06_1231,60.0436748015,sequenceLearningTask,001,090,
min1.png,min2.png,min3.png,min4.png,allBlank.png,,,,['num_4'],,,,,,0,9,9,9,,,,,,,,,['num_4'],10,0.0572737756884,1,['num_4'],0,[0.7210444458760321],,2018_May_06_1231,60.0436748015,sequenceLearningTask,001,090,
min1.png,min2.png,min3.png,min4.png,allBlank.png,,,,['num_1'],,,,,,0,9,9,9,,,,,,,,,['num_1'],10,0.0541160360444,1,['num_1'],0,[0.23995498672593385],,2018_May_06_1231,60.0436748015,sequenceLearningTask,001,090,
min1.png,min2.png,min3.png,min4.png,allBlank.png,,,,['num_0'],,,,,,0,9,9,9,,,,,,,,,['num_0'],10,0.0501164511079,1,['num_0'],0,[0.1784403957426548],,2018_May_06_1231,60.0436748015,sequenceLearningTask,001,090,
min1.png,min2.png,min3.png,min4.png,images/allBlank.png,images/min3.png,'num_1',"['num_7', 'num_4', 'num_1', 'num_0']",['num_1'],num_1,,,,,0,9,9,9,0,0,0,2,,,,,['num_1'],,0.0515018852893,0,"['num_7', 'num_1']",0,"[0.0001526151318103075, 0.6013551573269069]",0,2018_May_06_1231,60.0436748015,sequenceLearningTask,001,090,
min1.png,min2.png,min3.png,min4.png,images/allBlank.png,images/min4.png,'num_0',"['num_7', 'num_4', 'num_1', 'num_0']",['num_0'],num_0,,,,,0,9,9,9,0,1,1,3,,,,,['num_0'],,0.0530858833808,1,['num_0'],0,[0.5388760546920821],1,2018_May_06_1231,60.0436748015,sequenceLearningTask,001,090,
min1.png,min2.png,min3.png,min4.png,images/allBlank.png,images/min2.png,'num_4',"['num_7', 'num_4', 'num_1', 'num_0']",['num_4'],num_4,,,,,0,9,9,9,0,2,2,1,,,,,['num_4'],,0.0528524477268,1,['num_4'],0,[0.8560756642837077],1,2018_May_06_1231,60.0436748015,sequenceLearningTask,001,090,
min1.png,min2.png,min3.png,min4.png,images/allBlank.png,images/min1.png,'num_7',"['num_7', 'num_4', 'num_1', 'num_0']",['num_7'],num_7,,,,,0,9,9,9,0,3,3,0,,,,,['num_7'],,0.0580491593573,1,['num_7'],0,[0.600480081513524],1,2018_May_06_1231,60.0436748015,sequenceLearningTask,001,090,
min1.png,min2.png,min3.png,min4.png,images/allBlank.png,images/min2.png,'num_4',"['num_7', 'num_4', 'num_1', 'num_0']",['num_4'],num_4,,,,,0,9,9,9,1,0,4,1,,,,,['num_4'],,0.0512918343302,1,['num_4'],0,[0.6737095298012719],1,2018_May_06_1231,60.0436748015,sequenceLearningTask,001,090,
min1.png,min2.png,min3.png,min4.png,images/allBlank.png,images/min1.png,'num_7',"['num_7', 'num_4', 'num_1', 'num_0']",['num_7'],num_7,,,,,0,9,9,9,1,1,5,0,,,,,['num_7'],,0.0554809573805,1,['num_7'],0,[0.471560035017319],1,2018_May_06_1231,60.0436748015,sequenceLearningTask,001,090,
min1.png,min2.png,min3.png,min4.png,images/allBlank.png,images/min3.png,'num_1',"['num_7', 'num_4', 'num_1', 'num_0']",['num_1'],num_1,,,,,0,9,9,9,1,2,6,2,,,,,['num_1'],,0.0572446474107,1,['num_1'],0,[0.4008848399389535],1,2018_May_06_1231,60.0436748015,sequenceLearningTask,001,090,
min1.png,min2.png,min3.png,min4.png,images/allBlank.png,images/min4.png,'num_0',"['num_7', 'num_4', 'num_1', 'num_0']",['num_0'],num_0,,,,,0,9,9,9,1,3,7,3,,,,,['num_0'],,0.0524212688906,1,['num_0'],0,[0.3905746986856684],1,2018_May_06_1231,60.0436748015,sequenceLearningTask,001,090,
min1.png,min2.png,min3.png,min4.png,images/allBlank.png,images/min3.png,'num_1',"['num_7', 'num_4', 'num_1', 'num_0']",['num_1'],num_1,,,,,0,9,9,9,2,0,8,2,,,,,['num_1'],,0.0595031061675,1,['num_1'],0,[0.7658956727245823],1,2018_May_06_1231,60.0436748015,sequenceLearningTask,001,090,
min1.png,min2.png,min3.png,min4.png,images/allBlank.png,images/min4.png,'num_0',"['num_7', 'num_4', 'num_1', 'num_0']",['num_0'],num_0,,,,,0,9,9,9,2,1,9,3,,,,,['num_0'],,0.058946799254,1,['num_0'],0,[0.531792986439541],1,2018_May_06_1231,60.0436748015,sequenceLearningTask,001,090,
min1.png,min2.png,min3.png,min4.png,images/allBlank.png,images/min1.png,'num_7',"['num_7', 'num_4', 'num_1', 'num_0']",['num_7'],num_7,,,,,0,9,9,9,2,2,10,0,,,,,['num_7'],,0.0582354154903,1,['num_7'],0,[0.6995613954495639],1,2018_May_06_1231,60.0436748015,sequenceLearningTask,001,090,
min1.png,min2.png,min3.png,min4.png,images/allBlank.png,images/min2.png,'num_4',"['num_7', 'num_4', 'num_1', 'num_0']",['num_4'],num_4,,,,,0,9,9,9,2,3,11,1,,,,,['num_4'],,0.0607256689109,0,"['num_7', 'num_4']",0,"[0.5134258295875043, 1.030030322028324]",0,2018_May_06_1231,60.0436748015,sequenceLearningTask,001,090,
min1.png,min2.png,min3.png,min4.png,images/allBlank.png,images/min1.png,'num_7',"['num_7', 'num_4', 'num_1', 'num_0']",['num_7'],num_7,,,,,0,9,9,9,3,0,12,0,,,,,['num_7'],,0.0522050638683,1,['num_7'],0,[0.4895714999875054],1,2018_May_06_1231,60.0436748015,sequenceLearningTask,001,090,
min1.png,min2.png,min3.png,min4.png,images/allBlank.png,images/min4.png,'num_0',"['num_7', 'num_4', 'num_1', 'num_0']",['num_0'],num_0,,,,,0,9,9,9,3,1,13,3,,,,,['num_0'],,0.0508557322901,1,['num_0'],0,[0.5255136096384376],1,2018_May_06_1231,60.0436748015,sequenceLearningTask,001,090,
min1.png,min2.png,min3.png,min4.png,images/allBlank.png,images/min3.png,'num_1',"['num_7', 'num_4', 'num_1', 'num_0']",['num_1'],num_1,,,,,0,9,9,9,3,2,14,2,,,,,['num_1'],,0.0535527545726,1,['num_1'],0,[0.6385526499943808],1,2018_May_06_1231,60.0436748015,sequenceLearningTask,001,090,
min1.png,min2.png,min3.png,min4.png,images/allBlank.png,images/min2.png,'num_4',"['num_7', 'num_4', 'num_1', 'num_0']",['num_4'],num_4,,,,,0,9,9,9,3,3,15,1,,,,,['num_4'],,0.0518887566868,1,['num_4'],0,[0.3407926062354818],1,2018_May_06_1231,60.0436748015,sequenceLearningTask,001,090,
min1.png,min2.png,min3.png,min4.png,images/allBlank.png,images/min1.png,'num_7',"['num_7', 'num_4', 'num_1', 'num_0']",['num_7'],num_7,,,,,0,9,9,9,4,0,16,0,,,,,['num_7'],,0.0491511189612,1,['num_7'],0,[0.3597119675250724],1,2018_May_06_1231,60.0436748015,sequenceLearningTask,001,090,
min1.png,min2.png,min3.png,min4.png,images/allBlank.png,images/min2.png,'num_4',"['num_7', 'num_4', 'num_1', 'num_0']",['num_4'],num_4,,,,,0,9,9,9,4,1,17,1,,,,,['num_4'],,0.0560417771339,1,['num_4'],0,[0.7018165721092373],1,2018_May_06_1231,60.0436748015,sequenceLearningTask,001,090,
min1.png,min2.png,min3.png,min4.png,images/allBlank.png,images/min4.png,'num_0',"['num_7', 'num_4', 'num_1', 'num_0']",['num_0'],num_0,,,,,0,9,9,9,4,2,18,3,,,,,['num_0'],,0.0520610640524,1,['num_0'],0,[0.6400193148292601],1,2018_May_06_1231,60.0436748015,sequenceLearningTask,001,090,
min1.png,min2.png,min3.png,min4.png,images/allBlank.png,images/min3.png,'num_1',"['num_7', 'num_4', 'num_1', 'num_0']",['num_1'],num_1,,,,,0,9,9,9,4,3,19,2,,,,,['num_1'],,0.0575835187919,1,['num_1'],0,[0.400077456375584],1,2018_May_06_1231,60.0436748015,sequenceLearningTask,001,090,
min1.png,min2.png,min3.png,min4.png,images/allBlank.png,images/min3.png,'num_1',"['num_7', 'num_4', 'num_1', 'num_0']",['num_1'],num_1,,,,,0,9,9,9,5,0,20,2,,,,,['num_1'],,0.0549189067679,0,"['num_0', 'num_1']",0,"[0.7212167533580214, 1.3541353589389473]",0,2018_May_06_1231,60.0436748015,sequenceLearningTask,001,090,
min1.png,min2.png,min3.png,min4.png,images/allBlank.png,images/min4.png,'num_0',"['num_7', 'num_4', 'num_1', 'num_0']",['num_0'],num_0,,,,,0,9,9,9,5,1,21,3,,,,,['num_0'],,0.0509119373746,1,['num_0'],0,[0.5085470664780587],1,2018_May_06_1231,60.0436748015,sequenceLearningTask,001,090,
min1.png,min2.png,min3.png,min4.png,images/allBlank.png,images/min2.png,'num_4',"['num_7', 'num_4', 'num_1', 'num_0']",['num_4'],num_4,,,,,0,9,9,9,5,2,22,1,,,,,['num_4'],,0.0608881301014,0,"['num_7', 'num_4']",0,"[0.5984074686421081, 0.6315261970739812]",0,2018_May_06_1231,60.0436748015,sequenceLearningTask,001,090,
min1.png,min2.png,min3.png,min4.png,images/allBlank.png,images/min1.png,'num_7',"['num_7', 'num_4', 'num_1', 'num_0']",['num_7'],num_7,,,,,0,9,9,9,5,3,23,0,,,,,['num_7'],,0.0539757284569,1,['num_7'],0,[0.47168147074989974],1,2018_May_06_1231,60.0436748015,sequenceLearningTask,001,090,
min1.png,min2.png,min3.png,min4.png,images/allBlank.png,images/min4.png,'num_0',"['num_7', 'num_4', 'num_1', 'num_0']",['num_0'],num_0,,,,,0,9,9,9,6,0,24,3,,,,,['num_0'],,0.0502259895438,1,['num_0'],0,[0.5758179579861462],1,2018_May_06_1231,60.0436748015,sequenceLearningTask,001,090,
min1.png,min2.png,min3.png,min4.png,images/allBlank.png,images/min2.png,'num_4',"['num_7', 'num_4', 'num_1', 'num_0']",['num_4'],num_4,,,,,0,9,9,9,6,1,25,1,,,,,['num_4'],,0.0531851652777,1,['num_4'],0,[0.5566869046306238],1,2018_May_06_1231,60.0436748015,sequenceLearningTask,001,090,
min1.png,min2.png,min3.png,min4.png,images/allBlank.png,images/min1.png,'num_7',"['num_7', 'num_4', 'num_1', 'num_0']",['num_7'],num_7,,,,,0,9,9,9,6,2,26,0,,,,,['num_7'],,0.0515552185243,1,['num_7'],0,[0.30783798010088503],1,2018_May_06_1231,60.0436748015,sequenceLearningTask,001,090,
min1.png,min2.png,min3.png,min4.png,images/allBlank.png,images/min3.png,'num_1',"['num_7', 'num_4', 'num_1', 'num_0']",['num_1'],num_1,,,,,0,9,9,9,6,3,27,2,,,,,['num_1'],,0.0524491663091,1,['num_1'],0,[0.339915479067713],1,2018_May_06_1231,60.0436748015,sequenceLearningTask,001,090,
min1.png,min2.png,min3.png,min4.png,images/allBlank.png,images/min4.png,'num_0',"['num_7', 'num_4', 'num_1', 'num_0']",['num_0'],num_0,,,,,0,9,9,9,7,0,28,3,,,,,['num_0'],,0.0553377780598,1,['num_0'],0,[0.3207639129832387],1,2018_May_06_1231,60.0436748015,sequenceLearningTask,001,090,
min1.png,min2.png,min3.png,min4.png,images/allBlank.png,images/min1.png,'num_7',"['num_7', 'num_4', 'num_1', 'num_0']",['num_7'],num_7,,,,,0,9,9,9,7,1,29,0,,,,,['num_7'],,0.0581426976714,1,['num_7'],0,[0.6345140908379108],1,2018_May_06_1231,60.0436748015,sequenceLearningTask,001,090,
min1.png,min2.png,min3.png,min4.png,images/allBlank.png,images/min3.png,'num_1',"['num_7', 'num_4', 'num_1', 'num_0']",['num_1'],num_1,,,,,0,9,9,9,7,2,30,2,,,,,['num_1'],,0.0586185945431,1,['num_1'],0,[0.5991615189705044],1,2018_May_06_1231,60.0436748015,sequenceLearningTask,001,090,
min1.png,min2.png,min3.png,min4.png,images/allBlank.png,images/min2.png,'num_4',"['num_7', 'num_4', 'num_1', 'num_0']",['num_4'],num_4,,,,,0,9,9,9,7,3,31,1,,,,,['num_4'],,0.0526862940751,1,['num_4'],0,[0.37269410537555814],1,2018_May_06_1231,60.0436748015,sequenceLearningTask,001,090,
min1.png,min2.png,min3.png,min4.png,images/allBlank.png,images/min1.png,'num_7',"['num_7', 'num_4', 'num_1', 'num_0']",['num_7'],num_7,,,,,0,9,9,9,8,0,32,0,,,,,['num_7'],,0.0592520296341,1,['num_7'],0,[0.5839713838649914],1,2018_May_06_1231,60.0436748015,sequenceLearningTask,001,090,
min1.png,min2.png,min3.png,min4.png,images/allBlank.png,images/min4.png,'num_0',"['num_7', 'num_4', 'num_1', 'num_0']",['num_0'],num_0,,,,,0,9,9,9,8,1,33,3,,,,,['num_0'],,0.0543121382361,1,['num_0'],0,[0.3385394806973636],1,2018_May_06_1231,60.0436748015,sequenceLearningTask,001,090,
min1.png,min2.png,min3.png,min4.png,images/allBlank.png,images/min3.png,'num_1',"['num_7', 'num_4', 'num_1', 'num_0']",['num_1'],num_1,,,,,0,9,9,9,8,2,34,2,,,,,['num_1'],,0.0542772666086,1,['num_1'],0,[0.4543764664558694],1,2018_May_06_1231,60.0436748015,sequenceLearningTask,001,090,
min1.png,min2.png,min3.png,min4.png,images/allBlank.png,images/min2.png,'num_4',"['num_7', 'num_4', 'num_1', 'num_0']",['num_4'],num_4,,,,,0,9,9,9,8,3,35,1,,,,,['num_4'],,0.0556155212689,1,['num_4'],0,[0.3542974101146683],1,2018_May_06_1231,60.0436748015,sequenceLearningTask,001,090,
min1.png,min2.png,min3.png,min4.png,images/allBlank.png,images/min2.png,'num_4',"['num_7', 'num_4', 'num_1', 'num_0']",['num_4'],num_4,,,,,0,9,9,9,9,0,36,1,,,,,['num_4'],,0.048943529604,1,['num_4'],0,[0.5773469817359],1,2018_May_06_1231,60.0436748015,sequenceLearningTask,001,090,
min1.png,min2.png,min3.png,min4.png,images/allBlank.png,images/min1.png,'num_7',"['num_7', 'num_4', 'num_1', 'num_0']",['num_7'],num_7,,,,,0,9,9,9,9,1,37,0,,,,,['num_7'],,0.0595277216053,1,['num_7'],0,[0.49832513032015413],1,2018_May_06_1231,60.0436748015,sequenceLearningTask,001,090,
min1.png,min2.png,min3.png,min4.png,images/allBlank.png,images/min4.png,'num_0',"['num_7', 'num_4', 'num_1', 'num_0']",['num_0'],num_0,,,,,0,9,9,9,9,2,38,3,,,,,['num_0'],,0.0525706019253,1,['num_0'],0,[0.35726150893606246],1,2018_May_06_1231,60.0436748015,sequenceLearningTask,001,090,
min1.png,min2.png,min3.png,min4.png,images/allBlank.png,images/min3.png,'num_1',"['num_7', 'num_4', 'num_1', 'num_0']",['num_1'],num_1,,,,,0,9,9,9,9,3,39,2,,,,,['num_1'],,0.0519798335154,1,['num_1'],0,[0.42441711865831167],1,2018_May_06_1231,60.0436748015,sequenceLearningTask,001,090,
min1.png,min2.png,min3.png,min4.png,images/allBlank.png,images/min4.png,'num_0',"['num_7', 'num_4', 'num_1', 'num_0']",['num_0'],num_0,,,,,0,9,9,9,10,0,40,3,,,,,['num_0'],,0.0602403361117,1,['num_0'],0,[0.6811593668535352],1,2018_May_06_1231,60.0436748015,sequenceLearningTask,001,090,
min1.png,min2.png,min3.png,min4.png,images/allBlank.png,images/min2.png,'num_4',"['num_7', 'num_4', 'num_1', 'num_0']",['num_4'],num_4,,,,,0,9,9,9,10,1,41,1,,,,,['num_4'],,0.059244234697,1,['num_4'],0,[0.4995649236952886],1,2018_May_06_1231,60.0436748015,sequenceLearningTask,001,090,
min1.png,min2.png,min3.png,min4.png,images/allBlank.png,images/min1.png,'num_7',"['num_7', 'num_4', 'num_1', 'num_0']",['num_7'],num_7,,,,,0,9,9,9,10,2,42,0,,,,,['num_7'],,0.0518046541838,1,['num_7'],0,[0.3075270061381161],1,2018_May_06_1231,60.0436748015,sequenceLearningTask,001,090,
min1.png,min2.png,min3.png,min4.png,images/allBlank.png,images/min3.png,'num_1',"['num_7', 'num_4', 'num_1', 'num_0']",['num_1'],num_1,,,,,0,9,9,9,10,3,43,2,,,,,['num_1'],,0.0509578860365,1,['num_1'],0,[0.3575556625146419],1,2018_May_06_1231,60.0436748015,sequenceLearningTask,001,090,
min1.png,min2.png,min3.png,min4.png,images/allBlank.png,images/min4.png,'num_0',"['num_7', 'num_4', 'num_1', 'num_0']",['num_0'],num_0,,,,,0,9,9,9,11,0,44,3,,,,,['num_0'],,0.0572553141974,1,['num_0'],0,[0.35251977131702006],1,2018_May_06_1231,60.0436748015,sequenceLearningTask,001,090,
min1.png,min2.png,min3.png,min4.png,images/allBlank.png,images/min1.png,'num_7',"['num_7', 'num_4', 'num_1', 'num_0']",['num_7'],num_7,,,,,0,9,9,9,11,1,45,0,,,,,['num_7'],,0.0502813740168,1,['num_7'],0,[0.5585424919845536],1,2018_May_06_1231,60.0436748015,sequenceLearningTask,001,090,
min1.png,min2.png,min3.png,min4.png,images/allBlank.png,images/min2.png,'num_4',"['num_7', 'num_4', 'num_1', 'num_0']",['num_4'],num_4,,,,,0,9,9,9,11,2,46,1,,,,,['num_4'],,0.054013471934,1,['num_4'],0,[0.5217310502193868],1,2018_May_06_1231,60.0436748015,sequenceLearningTask,001,090,
min1.png,min2.png,min3.png,min4.png,images/allBlank.png,images/min3.png,'num_1',"['num_7', 'num_4', 'num_1', 'num_0']",['num_1'],num_1,,,,,0,9,9,9,11,3,47,2,,,,,['num_1'],,0.0485242479481,1,['num_1'],0,[0.32679303362965584],1,2018_May_06_1231,60.0436748015,sequenceLearningTask,001,090,
min1.png,min2.png,min3.png,min4.png,images/allBlank.png,images/min2.png,'num_4',"['num_7', 'num_4', 'num_1', 'num_0']",['num_4'],num_4,,,,,0,9,9,9,12,0,48,1,,,,,['num_4'],,0.0514136803104,1,['num_4'],0,[0.5258734041126445],1,2018_May_06_1231,60.0436748015,sequenceLearningTask,001,090,
min1.png,min2.png,min3.png,min4.png,images/allBlank.png,images/min4.png,'num_0',"['num_7', 'num_4', 'num_1', 'num_0']",['num_0'],num_0,,,,,0,9,9,9,12,1,49,3,,,,,['num_0'],,0.0534805494826,1,['num_0'],0,[0.389382905443199],1,2018_May_06_1231,60.0436748015,sequenceLearningTask,001,090,
min1.png,min2.png,min3.png,min4.png,images/allBlank.png,images/min3.png,'num_1',"['num_7', 'num_4', 'num_1', 'num_0']",['num_1'],num_1,,,,,0,9,9,9,12,2,50,2,,,,,['num_1'],,0.0556696751155,1,['num_1'],0,[0.6380008556880057],1,2018_May_06_1231,60.0436748015,sequenceLearningTask,001,090,
min1.png,min2.png,min3.png,min4.png,images/allBlank.png,images/min1.png,'num_7',"['num_7', 'num_4', 'num_1', 'num_0']",['num_7'],num_7,,,,,0,9,9,9,12,3,51,0,,,,,['num_7'],,0.0560606489889,1,['num_7'],0,[0.32081929745618254],1,2018_May_06_1231,60.0436748015,sequenceLearningTask,001,090,
min1.png,min2.png,min3.png,min4.png,images/allBlank.png,images/min4.png,'num_0',"['num_7', 'num_4', 'num_1', 'num_0']",['num_0'],num_0,,,,,0,9,9,9,13,0,52,3,,,,,['num_0'],,0.0505422968417,0,"['num_1', 'num_0']",0,"[0.40919457329437137, 1.0431047674501315]",0,2018_May_06_1231,60.0436748015,sequenceLearningTask,001,090,
min1.png,min2.png,min3.png,min4.png,images/allBlank.png,images/min1.png,'num_7',"['num_7', 'num_4', 'num_1', 'num_0']",['num_7'],num_7,,,,,0,9,9,9,13,1,53,0,,,,,['num_7'],,0.0525701916777,1,['num_7'],0,[0.7243671084288508],1,2018_May_06_1231,60.0436748015,sequenceLearningTask,001,090,
min1.png,min2.png,min3.png,min4.png,images/allBlank.png,images/min3.png,'num_1',"['num_7', 'num_4', 'num_1', 'num_0']",['num_1'],num_1,,,,,0,9,9,9,13,2,54,2,,,,,['num_1'],,0.0504122455604,1,['num_1'],0,[0.35838314855936915],1,2018_May_06_1231,60.0436748015,sequenceLearningTask,001,090,
min1.png,min2.png,min3.png,min4.png,images/allBlank.png,images/min2.png,'num_4',"['num_7', 'num_4', 'num_1', 'num_0']",['num_4'],num_4,,,,,0,9,9,9,13,3,55,1,,,,,['num_4'],,0.0537541902158,1,['num_4'],0,[0.5883172246394679],1,2018_May_06_1231,60.0436748015,sequenceLearningTask,001,090,
min1.png,min2.png,min3.png,min4.png,images/allBlank.png,images/min4.png,'num_0',"['num_7', 'num_4', 'num_1', 'num_0']",['num_0'],num_0,,,,,0,9,9,9,14,0,56,3,,,,,['num_0'],,0.049644246581,0,"['num_1', 'num_0']",0,"[0.4430952495895326, 0.8602044797735289]",0,2018_May_06_1231,60.0436748015,sequenceLearningTask,001,090,
min1.png,min2.png,min3.png,min4.png,images/allBlank.png,images/min2.png,'num_4',"['num_7', 'num_4', 'num_1', 'num_0']",['num_4'],num_4,,,,,0,9,9,9,14,1,57,1,,,,,['num_4'],,0.0543022921775,1,['num_4'],0,[0.5050902500515804],1,2018_May_06_1231,60.0436748015,sequenceLearningTask,001,090,
min1.png,min2.png,min3.png,min4.png,images/allBlank.png,images/min1.png,'num_7',"['num_7', 'num_4', 'num_1', 'num_0']",['num_7'],num_7,,,,,0,9,9,9,14,2,58,0,,,,,['num_7'],,0.0549759323476,1,['num_7'],0,[0.4873392976587638],1,2018_May_06_1231,60.0436748015,sequenceLearningTask,001,090,
min1.png,min2.png,min3.png,min4.png,images/allBlank.png,images/min3.png,'num_1',"['num_7', 'num_4', 'num_1', 'num_0']",['num_1'],num_1,,,,,0,9,9,9,14,3,59,2,,,,,['num_1'],,0.0527375760721,1,['num_1'],0,[0.3068911094451323],1,2018_May_06_1231,60.0436748015,sequenceLearningTask,001,090,
min1.png,min2.png,min3.png,min4.png,images/allBlank.png,images/min1.png,'num_7',"['num_7', 'num_4', 'num_1', 'num_0']",['num_7'],num_7,,,,,0,9,9,9,15,0,60,0,,,,,['num_7'],,0.0556983929127,1,['num_7'],0,[0.40365201595705],1,2018_May_06_1231,60.0436748015,sequenceLearningTask,001,090,
min1.png,min2.png,min3.png,min4.png,images/allBlank.png,images/min4.png,'num_0',"['num_7', 'num_4', 'num_1', 'num_0']",['num_0'],num_0,,,,,0,9,9,9,15,1,61,3,,,,,['num_0'],,0.0522986022988,1,['num_0'],0,[0.42412911902647465],1,2018_May_06_1231,60.0436748015,sequenceLearningTask,001,090,
min1.png,min2.png,min3.png,min4.png,images/allBlank.png,images/min2.png,'num_4',"['num_7', 'num_4', 'num_1', 'num_0']",['num_4'],num_4,,,,,0,9,9,9,15,2,62,1,,,,,['num_4'],,0.054784753127,1,['num_4'],0,[0.37197861913591623],1,2018_May_06_1231,60.0436748015,sequenceLearningTask,001,090,
min1.png,min2.png,min3.png,min4.png,images/allBlank.png,images/min3.png,'num_1',"['num_7', 'num_4', 'num_1', 'num_0']",['num_1'],num_1,,,,,0,9,9,9,15,3,63,2,,,,,['num_1'],,0.057747210958,1,['num_1'],0,[0.40000402042642236],1,2018_May_06_1231,60.0436748015,sequenceLearningTask,001,090,
min1.png,min2.png,min3.png,min4.png,images/allBlank.png,images/min4.png,'num_0',"['num_7', 'num_4', 'num_1', 'num_0']",['num_0'],num_0,,,,,0,9,9,9,16,0,64,3,,,,,['num_0'],,0.0517882439308,1,['num_0'],0,[0.5411882569314912],1,2018_May_06_1231,60.0436748015,sequenceLearningTask,001,090,
min1.png,min2.png,min3.png,min4.png,images/allBlank.png,images/min3.png,'num_1',"['num_7', 'num_4', 'num_1', 'num_0']",['num_1'],num_1,,,,,0,9,9,9,16,1,65,2,,,,,['num_1'],,0.0548499837751,1,['num_1'],0,[0.3709414921468124],1,2018_May_06_1231,60.0436748015,sequenceLearningTask,001,090,
min1.png,min2.png,min3.png,min4.png,images/allBlank.png,images/min1.png,'num_7',"['num_7', 'num_4', 'num_1', 'num_0']",['num_7'],num_7,,,,,0,9,9,9,16,2,66,0,,,,,['num_7'],,0.0539096771972,1,['num_7'],0,[0.37237902893684804],1,2018_May_06_1231,60.0436748015,sequenceLearningTask,001,090,
min1.png,min2.png,min3.png,min4.png,images/allBlank.png,images/min2.png,'num_4',"['num_7', 'num_4', 'num_1', 'num_0']",['num_4'],num_4,,,,,0,9,9,9,16,3,67,1,,,,,['num_4'],,0.0555687521119,0,"['num_1', 'num_4']",0,"[0.26945156580768526, 1.2358618635917082]",0,2018_May_06_1231,60.0436748015,sequenceLearningTask,001,090,
min1.png,min2.png,min3.png,min4.png,images/allBlank.png,images/min2.png,'num_4',"['num_7', 'num_4', 'num_1', 'num_0']",['num_4'],num_4,,,,,0,9,9,9,17,0,68,1,,,,,['num_4'],,0.0529275245499,1,['num_4'],0,[0.5399862071499228],1,2018_May_06_1231,60.0436748015,sequenceLearningTask,001,090,
min1.png,min2.png,min3.png,min4.png,images/allBlank.png,images/min4.png,'num_0',"['num_7', 'num_4', 'num_1', 'num_0']",['num_0'],num_0,,,,,0,9,9,9,17,1,69,3,,,,,['num_0'],,0.0594957217108,1,['num_0'],0,[0.6324513241415843],1,2018_May_06_1231,60.0436748015,sequenceLearningTask,001,090,
min1.png,min2.png,min3.png,min4.png,images/allBlank.png,images/min3.png,'num_1',"['num_7', 'num_4', 'num_1', 'num_0']",['num_1'],num_1,,,,,0,9,9,9,17,2,70,2,,,,,['num_1'],,0.0475519414758,1,['num_1'],0,[0.478500334196724],1,2018_May_06_1231,60.0436748015,sequenceLearningTask,001,090,
min1.png,min2.png,min3.png,min4.png,images/allBlank.png,images/min1.png,'num_7',"['num_7', 'num_4', 'num_1', 'num_0']",['num_7'],num_7,,,,,0,9,9,9,17,3,71,0,,,,,['num_7'],,0.0524384996388,1,['num_7'],0,[0.4739694679155946],1,2018_May_06_1231,60.0436748015,sequenceLearningTask,001,090,
min1.png,min2.png,min3.png,min4.png,images/allBlank.png,images/min1.png,'num_7',"['num_7', 'num_4', 'num_1', 'num_0']",['num_7'],num_7,,,,,0,9,9,9,18,0,72,0,,,,,['num_7'],,0.0569915195229,1,['num_7'],0,[0.5504054763587192],1,2018_May_06_1231,60.0436748015,sequenceLearningTask,001,090,
min1.png,min2.png,min3.png,min4.png,images/allBlank.png,images/min3.png,'num_1',"['num_7', 'num_4', 'num_1', 'num_0']",['num_1'],num_1,,,,,0,9,9,9,18,1,73,2,,,,,['num_1'],,0.054532855982,1,['num_1'],0,[0.3053936753422022],1,2018_May_06_1231,60.0436748015,sequenceLearningTask,001,090,
min1.png,min2.png,min3.png,min4.png,images/allBlank.png,images/min4.png,'num_0',"['num_7', 'num_4', 'num_1', 'num_0']",['num_0'],num_0,,,,,0,9,9,9,18,2,74,3,,,,,['num_0'],,0.0525184995495,1,['num_0'],0,[0.457423847168684],1,2018_May_06_1231,60.0436748015,sequenceLearningTask,001,090,
min1.png,min2.png,min3.png,min4.png,images/allBlank.png,images/min2.png,'num_4',"['num_7', 'num_4', 'num_1', 'num_0']",['num_4'],num_4,,,,,0,9,9,9,18,3,75,1,,,,,['num_4'],,0.0515650646994,0,"['num_7', 'num_4']",0,"[0.5079911695793271, 0.9595934855751693]",0,2018_May_06_1231,60.0436748015,sequenceLearningTask,001,090,
min1.png,min2.png,min3.png,min4.png,images/allBlank.png,images/min4.png,'num_0',"['num_7', 'num_4', 'num_1', 'num_0']",['num_0'],num_0,,,,,0,9,9,9,19,0,76,3,,,,,['num_0'],,0.0527228069259,1,['num_0'],0,[0.604050948866643],1,2018_May_06_1231,60.0436748015,sequenceLearningTask,001,090,
min1.png,min2.png,min3.png,min4.png,images/allBlank.png,images/min1.png,'num_7',"['num_7', 'num_4', 'num_1', 'num_0']",['num_7'],num_7,,,,,0,9,9,9,19,1,77,0,,,,,['num_7'],,0.0541107025929,1,['num_7'],0,[0.6548927323892713],1,2018_May_06_1231,60.0436748015,sequenceLearningTask,001,090,
min1.png,min2.png,min3.png,min4.png,images/allBlank.png,images/min2.png,'num_4',"['num_7', 'num_4', 'num_1', 'num_0']",['num_4'],num_4,,,,,0,9,9,9,19,2,78,1,,,,,['num_4'],,0.052164448658,0,"['num_1', 'num_4']",0,"[0.4561614898266271, 0.9231914791744202]",0,2018_May_06_1231,60.0436748015,sequenceLearningTask,001,090,
min1.png,min2.png,min3.png,min4.png,images/allBlank.png,images/min3.png,'num_1',"['num_7', 'num_4', 'num_1', 'num_0']",['num_1'],num_1,,,,,0,9,9,9,19,3,79,2,,,,,['num_1'],,0.0528922426747,1,['num_1'],0,[0.2894326694076881],1,2018_May_06_1231,60.0436748015,sequenceLearningTask,001,090,
min1.png,min2.png,min3.png,min4.png,allBlank.png,,,,['num_7'],,,,,,0,0,0,0,,,,,,,,,['num_7'],1,0.0426255885977,1,['num_7'],0,[0.5114886012161151],,2018_May_06_1231,60.0436748015,sequenceLearningTask,001,090,
min1.png,min2.png,min3.png,min4.png,allBlank.png,,,,['num_1'],,,,,,0,0,0,0,,,,,,,,,['num_1'],1,0.0516610646155,0,"['num_0', 'num_1']",0,"[0.35936078848317266, 0.45973317767493427]",,2018_May_06_1231,60.0436748015,sequenceLearningTask,001,090,
min1.png,min2.png,min3.png,min4.png,allBlank.png,,,,['num_4'],,,,,,0,0,0,0,,,,,,,,,['num_4'],1,0.0513878341299,0,"['num_1', 'num_4']",0,"[0.0003663584357127547, 0.5261601728852838]",,2018_May_06_1231,60.0436748015,sequenceLearningTask,001,090,
min1.png,min2.png,min3.png,min4.png,allBlank.png,,,,['num_0'],,,,,,0,0,0,0,,,,,,,,,['num_0'],1,0.0514953212114,1,['num_0'],0,[0.5432206648401916],,2018_May_06_1231,60.0436748015,sequenceLearningTask,001,090,
min1.png,min2.png,min3.png,min4.png,allBlank.png,,,,['num_0'],,,,,,0,0,0,0,,,,,,,,,['num_0'],1,0.0557845467702,1,['num_0'],0,[0.47076865134295076],,2018_May_06_1231,60.0436748015,sequenceLearningTask,001,090,
min1.png,min2.png,min3.png,min4.png,allBlank.png,,,,['num_4'],,,,,,0,0,0,0,,,,,,,,,['num_4'],1,0.0532627037028,1,['num_4'],0,[0.3907072114525363],,2018_May_06_1231,60.0436748015,sequenceLearningTask,001,090,
min1.png,min2.png,min3.png,min4.png,allBlank.png,,,,['num_1'],,,,,,0,0,0,0,,,,,,,,,['num_1'],1,0.0554395215586,1,['num_1'],0,[0.32303344865795225],,2018_May_06_1231,60.0436748015,sequenceLearningTask,001,090,
min1.png,min2.png,min3.png,min4.png,allBlank.png,,,,['num_0'],,,,,,0,0,0,0,,,,,,,,,['num_0'],1,0.0518879361916,1,['num_0'],0,[0.5757453426485881],,2018_May_06_1231,60.0436748015,sequenceLearningTask,001,090,
min1.png,min2.png,min3.png,min4.png,allBlank.png,,,,['num_7'],,,,,,0,1,1,1,,,,,,,,,['num_7'],2,0.0536631133873,1,['num_7'],0,[0.5374623129609972],,2018_May_06_1231,60.0436748015,sequenceLearningTask,001,090,
min1.png,min2.png,min3.png,min4.png,allBlank.png,,,,['num_1'],,,,,,0,1,1,1,,,,,,,,,['num_1'],2,0.0575346983969,1,['num_1'],0,[0.4358743353514001],,2018_May_06_1231,60.0436748015,sequenceLearningTask,001,090,
min1.png,min2.png,min3.png,min4.png,allBlank.png,,,,['num_4'],,,,,,0,1,1,1,,,,,,,,,['num_4'],2,0.0804634906817,1,['num_4'],0,[0.5136522909160703],,2018_May_06_1231,60.0436748015,sequenceLearningTask,001,090,
min1.png,min2.png,min3.png,min4.png,allBlank.png,,,,['num_0'],,,,,,0,1,1,1,,,,,,,,,['num_0'],2,0.0564159306232,1,['num_0'],0,[0.47028865187894553],,2018_May_06_1231,60.0436748015,sequenceLearningTask,001,090,
min1.png,min2.png,min3.png,min4.png,allBlank.png,,,,['num_0'],,,,,,0,1,1,1,,,,,,,,,['num_0'],2,0.0523162432946,1,['num_0'],0,[0.4584490768611431],,2018_May_06_1231,60.0436748015,sequenceLearningTask,001,090,
min1.png,min2.png,min3.png,min4.png,allBlank.png,,,,['num_4'],,,,,,0,1,1,1,,,,,,,,,['num_4'],2,0.0517115261173,1,['num_4'],0,[0.3263840085128322],,2018_May_06_1231,60.0436748015,sequenceLearningTask,001,090,
min1.png,min2.png,min3.png,min4.png,allBlank.png,,,,['num_1'],,,,,,0,1,1,1,,,,,,,,,['num_1'],2,0.0592397219734,1,['num_1'],0,[0.3828077339567244],,2018_May_06_1231,60.0436748015,sequenceLearningTask,001,090,
min1.png,min2.png,min3.png,min4.png,allBlank.png,,,,['num_0'],,,,,,0,1,1,1,,,,,,,,,['num_0'],2,0.0490846575703,1,['num_0'],0,[0.46180702140554786],,2018_May_06_1231,60.0436748015,sequenceLearningTask,001,090,
min1.png,min2.png,min3.png,min4.png,allBlank.png,,,,['num_7'],,,,,,0,2,2,2,,,,,,,,,['num_7'],3,0.0510050654411,1,['num_7'],0,[0.3915088514331728],,2018_May_06_1231,60.0436748015,sequenceLearningTask,001,090,
min1.png,min2.png,min3.png,min4.png,allBlank.png,,,,['num_1'],,,,,,0,2,2,2,,,,,,,,,['num_1'],3,0.0527691657189,1,['num_1'],0,[0.25782163138501346],,2018_May_06_1231,60.0436748015,sequenceLearningTask,001,090,
min1.png,min2.png,min3.png,min4.png,allBlank.png,,,,['num_4'],,,,,,0,2,2,2,,,,,,,,,['num_4'],3,0.0519125515129,1,['num_4'],0,[0.2928254856960848],,2018_May_06_1231,60.0436748015,sequenceLearningTask,001,090,
min1.png,min2.png,min3.png,min4.png,allBlank.png,,,,['num_0'],,,,,,0,2,2,2,,,,,,,,,['num_0'],3,0.0524417816196,1,['num_0'],0,[0.3909496726701036],,2018_May_06_1231,60.0436748015,sequenceLearningTask,001,090,
min1.png,min2.png,min3.png,min4.png,allBlank.png,,,,['num_0'],,,,,,0,2,2,2,,,,,,,,,['num_0'],3,0.0549500861671,1,['num_0'],0,[0.35601597209461033],,2018_May_06_1231,60.0436748015,sequenceLearningTask,001,090,
min1.png,min2.png,min3.png,min4.png,allBlank.png,,,,['num_4'],,,,,,0,2,2,2,,,,,,,,,['num_4'],3,0.0543904971564,0,"['num_7', 'num_4']",0,"[0.5073236833559349, 0.7414341643452644]",,2018_May_06_1231,60.0436748015,sequenceLearningTask,001,090,
min1.png,min2.png,min3.png,min4.png,allBlank.png,,,,['num_1'],,,,,,0,2,2,2,,,,,,,,,['num_1'],3,0.0537488569971,1,['num_1'],0,[0.3416414257371798],,2018_May_06_1231,60.0436748015,sequenceLearningTask,001,090,
min1.png,min2.png,min3.png,min4.png,allBlank.png,,,,['num_0'],,,,,,0,2,2,2,,,,,,,,,['num_0'],3,0.0547617786797,1,['num_0'],0,[0.42403147800359875],,2018_May_06_1231,60.0436748015,sequenceLearningTask,001,090,
min1.png,min2.png,min3.png,min4.png,allBlank.png,,,,['num_7'],,,,,,0,3,3,3,,,,,,,,,['num_7'],4,0.0550038296496,1,['num_7'],0,[0.27139699924737215],,2018_May_06_1231,60.0436748015,sequenceLearningTask,001,090,
min1.png,min2.png,min3.png,min4.png,allBlank.png,,,,['num_1'],,,,,,0,3,3,3,,,,,,,,,['num_1'],4,0.0508528605569,1,['num_1'],0,[0.29369768977630883],,2018_May_06_1231,60.0436748015,sequenceLearningTask,001,090,
min1.png,min2.png,min3.png,min4.png,allBlank.png,,,,['num_4'],,,,,,0,3,3,3,,,,,,,,,['num_4'],4,0.055022291257,1,['num_4'],0,[0.2729928947519511],,2018_May_06_1231,60.0436748015,sequenceLearningTask,001,090,
min1.png,min2.png,min3.png,min4.png,allBlank.png,,,,['num_0'],,,,,,0,3,3,3,,,,,,,,,['num_0'],4,0.0472586085089,1,['num_0'],0,[0.2474454389885068],,2018_May_06_1231,60.0436748015,sequenceLearningTask,001,090,
min1.png,min2.png,min3.png,min4.png,allBlank.png,,,,['num_0'],,,,,,0,3,3,3,,,,,,,,,['num_0'],4,0.0509418860311,1,['num_0'],0,[0.2599492185981944],,2018_May_06_1231,60.0436748015,sequenceLearningTask,001,090,
min1.png,min2.png,min3.png,min4.png,allBlank.png,,,,['num_4'],,,,,,0,3,3,3,,,,,,,,,['num_4'],4,0.0481049664086,0,"['num_7', 'num_4']",0,"[0.2964098915690556, 0.8138037163298577]",,2018_May_06_1231,60.0436748015,sequenceLearningTask,001,090,
min1.png,min2.png,min3.png,min4.png,allBlank.png,,,,['num_1'],,,,,,0,3,3,3,,,,,,,,,['num_1'],4,0.0542202409124,1,['num_1'],0,[0.38986249454319477],,2018_May_06_1231,60.0436748015,sequenceLearningTask,001,090,
min1.png,min2.png,min3.png,min4.png,allBlank.png,,,,['num_0'],,,,,,0,3,3,3,,,,,,,,,['num_0'],4,0.0585972612025,1,['num_0'],0,[0.38511911570094526],,2018_May_06_1231,60.0436748015,sequenceLearningTask,001,090,
min1.png,min2.png,min3.png,min4.png,allBlank.png,,,,['num_7'],,,,,,0,4,4,4,,,,,,,,,['num_7'],5,0.0491228114115,1,['num_7'],0,[0.6115840678103268],,2018_May_06_1231,60.0436748015,sequenceLearningTask,001,090,
min1.png,min2.png,min3.png,min4.png,allBlank.png,,,,['num_1'],,,,,,0,4,4,4,,,,,,,,,['num_1'],5,0.0507470144657,1,['num_1'],0,[0.342914039385505],,2018_May_06_1231,60.0436748015,sequenceLearningTask,001,090,
min1.png,min2.png,min3.png,min4.png,allBlank.png,,,,['num_4'],,,,,,0,4,4,4,,,,,,,,,['num_4'],5,0.066148021142,1,['num_4'],0,[0.3119507955852896],,2018_May_06_1231,60.0436748015,sequenceLearningTask,001,090,
min1.png,min2.png,min3.png,min4.png,allBlank.png,,,,['num_0'],,,,,,0,4,4,4,,,,,,,,,['num_0'],5,0.0595113114687,1,['num_0'],0,[0.3184057619655505],,2018_May_06_1231,60.0436748015,sequenceLearningTask,001,090,
min1.png,min2.png,min3.png,min4.png,allBlank.png,,,,['num_0'],,,,,,0,4,4,4,,,,,,,,,['num_0'],5,0.0531884473749,1,['num_0'],0,[0.27487678988836706],,2018_May_06_1231,60.0436748015,sequenceLearningTask,001,090,
min1.png,min2.png,min3.png,min4.png,allBlank.png,,,,['num_4'],,,,,,0,4,4,4,,,,,,,,,['num_4'],5,0.054458599654,1,['num_4'],0,[0.6242486675037071],,2018_May_06_1231,60.0436748015,sequenceLearningTask,001,090,
min1.png,min2.png,min3.png,min4.png,allBlank.png,,,,['num_1'],,,,,,0,4,4,4,,,,,,,,,['num_1'],5,0.0513989111641,1,['num_1'],0,[0.37676794652361423],,2018_May_06_1231,60.0436748015,sequenceLearningTask,001,090,
min1.png,min2.png,min3.png,min4.png,allBlank.png,,,,['num_0'],,,,,,0,4,4,4,,,,,,,,,['num_0'],5,0.0542190101696,1,['num_0'],0,[0.3735921556362882],,2018_May_06_1231,60.0436748015,sequenceLearningTask,001,090,
min1.png,min2.png,min3.png,min4.png,allBlank.png,,,,['num_7'],,,,,,0,5,5,5,,,,,,,,,['num_7'],6,0.0509361424483,1,['num_7'],0,[0.2750314563745633],,2018_May_06_1231,60.0436748015,sequenceLearningTask,001,090,
min1.png,min2.png,min3.png,min4.png,allBlank.png,,,,['num_1'],,,,,,0,5,5,5,,,,,,,,,['num_1'],6,0.0516483467072,1,['num_1'],0,[0.4426402756944299],,2018_May_06_1231,60.0436748015,sequenceLearningTask,001,090,
min1.png,min2.png,min3.png,min4.png,allBlank.png,,,,['num_4'],,,,,,0,5,5,5,,,,,,,,,['num_4'],6,0.0512906035874,1,['num_4'],0,[0.3266584697412327],,2018_May_06_1231,60.0436748015,sequenceLearningTask,001,090,
min1.png,min2.png,min3.png,min4.png,allBlank.png,,,,['num_0'],,,,,,0,5,5,5,,,,,,,,,['num_0'],6,0.0650452532573,1,['num_0'],0,[0.2790872462792322],,2018_May_06_1231,60.0436748015,sequenceLearningTask,001,090,
min1.png,min2.png,min3.png,min4.png,allBlank.png,,,,['num_0'],,,,,,0,5,5,5,,,,,,,,,['num_0'],6,0.050128758885,1,['num_0'],0,[0.311533565283753],,2018_May_06_1231,60.0436748015,sequenceLearningTask,001,090,
min1.png,min2.png,min3.png,min4.png,allBlank.png,,,,['num_4'],,,,,,0,5,5,5,,,,,,,,,['num_4'],6,0.0511835267534,1,['num_4'],0,[0.2258717220975086],,2018_May_06_1231,60.0436748015,sequenceLearningTask,001,090,
min1.png,min2.png,min3.png,min4.png,allBlank.png,,,,['num_1'],,,,,,0,5,5,5,,,,,,,,,['num_1'],6,0.0511035268428,1,['num_1'],0,[0.2756575068924576],,2018_May_06_1231,60.0436748015,sequenceLearningTask,001,090,
min1.png,min2.png,min3.png,min4.png,allBlank.png,,,,['num_0'],,,,,,0,5,5,5,,,,,,,,,['num_0'],6,0.0498206566554,1,['num_0'],0,[0.2120300979586318],,2018_May_06_1231,60.0436748015,sequenceLearningTask,001,090,
min1.png,min2.png,min3.png,min4.png,allBlank.png,,,,['num_7'],,,,,,0,6,6,6,,,,,,,,,['num_7'],7,0.0573230064474,1,['num_7'],0,[0.1350303979124874],,2018_May_06_1231,60.0436748015,sequenceLearningTask,001,090,
min1.png,min2.png,min3.png,min4.png,allBlank.png,,,,['num_1'],,,,,,0,6,6,6,,,,,,,,,['num_1'],7,0.0527433197713,1,['num_1'],0,[0.24197303550317883],,2018_May_06_1231,60.0436748015,sequenceLearningTask,001,090,
min1.png,min2.png,min3.png,min4.png,allBlank.png,,,,['num_4'],,,,,,0,6,6,6,,,,,,,,,['num_4'],7,0.0621861799154,1,['num_4'],0,[0.08171148924157023],,2018_May_06_1231,60.0436748015,sequenceLearningTask,001,090,
min1.png,min2.png,min3.png,min4.png,allBlank.png,,,,['num_0'],,,,,,0,6,6,6,,,,,,,,,['num_0'],7,0.054703112226,0,"['num_0', 'num_0']",0,"[0.03989369445480406, 0.7747887899167836]",,2018_May_06_1231,60.0436748015,sequenceLearningTask,001,090,
min1.png,min2.png,min3.png,min4.png,allBlank.png,,,,['num_0'],,,,,,0,6,6,6,,,,,,,,,['num_0'],7,0.0568462889642,1,['num_0'],0,[0.3891896748682484],,2018_May_06_1231,60.0436748015,sequenceLearningTask,001,090,
min1.png,min2.png,min3.png,min4.png,allBlank.png,,,,['num_4'],,,,,,0,6,6,6,,,,,,,,,['num_4'],7,0.060954181361,1,['num_4'],0,[0.7664175182580948],,2018_May_06_1231,60.0436748015,sequenceLearningTask,001,090,
min1.png,min2.png,min3.png,min4.png,allBlank.png,,,,['num_1'],,,,,,0,6,6,6,,,,,,,,,['num_1'],7,0.0532368575223,1,['num_1'],0,[0.22547254292294383],,2018_May_06_1231,60.0436748015,sequenceLearningTask,001,090,
min1.png,min2.png,min3.png,min4.png,allBlank.png,,,,['num_0'],,,,,,0,6,6,6,,,,,,,,,['num_0'],7,0.0520093719242,1,['num_0'],0,[0.3250945742474869],,2018_May_06_1231,60.0436748015,sequenceLearningTask,001,090,
min1.png,min2.png,min3.png,min4.png,allBlank.png,,,,['num_7'],,,,,,0,7,7,7,,,,,,,,,['num_7'],8,0.0489074270008,1,['num_7'],0,[0.12761133012827486],,2018_May_06_1231,60.0436748015,sequenceLearningTask,001,090,
min1.png,min2.png,min3.png,min4.png,allBlank.png,,,,['num_1'],,,,,,0,7,7,7,,,,,,,,,['num_1'],8,0.0515900902683,1,['num_1'],0,[0.2098856904776767],,2018_May_06_1231,60.0436748015,sequenceLearningTask,001,090,
min1.png,min2.png,min3.png,min4.png,allBlank.png,,,,['num_4'],,,,,,0,7,7,7,,,,,,,,,['num_4'],8,0.059794388013,1,['num_4'],0,[0.11776354734320194],,2018_May_06_1231,60.0436748015,sequenceLearningTask,001,090,
min1.png,min2.png,min3.png,min4.png,allBlank.png,,,,['num_0'],,,,,,0,7,7,7,,,,,,,,,['num_0'],8,0.0487347092712,0,"['num_1', 'num_0']",0,"[0.24657241452950984, 0.7802550396881998]",,2018_May_06_1231,60.0436748015,sequenceLearningTask,001,090,
min1.png,min2.png,min3.png,min4.png,allBlank.png,,,,['num_0'],,,,,,0,7,7,7,,,,,,,,,['num_0'],8,0.0527966530062,1,['num_0'],0,[0.4915021642809734],,2018_May_06_1231,60.0436748015,sequenceLearningTask,001,090,
min1.png,min2.png,min3.png,min4.png,allBlank.png,,,,['num_4'],,,,,,0,7,7,7,,,,,,,,,['num_4'],8,0.0532688574167,1,['num_4'],0,[0.6908254061127082],,2018_May_06_1231,60.0436748015,sequenceLearningTask,001,090,
min1.png,min2.png,min3.png,min4.png,allBlank.png,,,,['num_1'],,,,,,0,7,7,7,,,,,,,,,['num_1'],8,0.054379009991,1,['num_1'],0,[0.3410769135225564],,2018_May_06_1231,60.0436748015,sequenceLearningTask,001,090,
min1.png,min2.png,min3.png,min4.png,allBlank.png,,,,['num_0'],,,,,,0,7,7,7,,,,,,,,,['num_0'],8,0.0571535705822,1,['num_0'],0,[0.48765314335469157],,2018_May_06_1231,60.0436748015,sequenceLearningTask,001,090,
min1.png,min2.png,min3.png,min4.png,allBlank.png,,,,['num_7'],,,,,,0,8,8,8,,,,,,,,,['num_7'],9,0.0466243529227,1,['num_7'],0,[0.2463529275264591],,2018_May_06_1231,60.0436748015,sequenceLearningTask,001,090,
min1.png,min2.png,min3.png,min4.png,allBlank.png,,,,['num_1'],,,,,,0,8,8,8,,,,,,,,,['num_1'],9,0.0492934777867,1,['num_1'],0,[0.22861510317306966],,2018_May_06_1231,60.0436748015,sequenceLearningTask,001,090,
min1.png,min2.png,min3.png,min4.png,allBlank.png,,,,['num_4'],,,,,,0,8,8,8,,,,,,,,,['num_4'],9,0.058110697777,1,['num_4'],0,[0.15311899106018245],,2018_May_06_1231,60.0436748015,sequenceLearningTask,001,090,
min1.png,min2.png,min3.png,min4.png,allBlank.png,,,,['num_0'],,,,,,0,8,8,8,,,,,,,,,['num_0'],9,0.0548959324369,1,['num_0'],0,[0.1066829456249252],,2018_May_06_1231,60.0436748015,sequenceLearningTask,001,090,
min1.png,min2.png,min3.png,min4.png,allBlank.png,,,,['num_0'],,,,,,0,8,8,8,,,,,,,,,['num_0'],9,0.0575904932339,0,"['num_1', 'num_0']",0,"[0.1857064381474629, 0.9194261505035684]",,2018_May_06_1231,60.0436748015,sequenceLearningTask,001,090,
min1.png,min2.png,min3.png,min4.png,allBlank.png,,,,['num_4'],,,,,,0,8,8,8,,,,,,,,,['num_4'],9,0.0529870117316,1,['num_4'],0,[0.17475055414251983],,2018_May_06_1231,60.0436748015,sequenceLearningTask,001,090,
min1.png,min2.png,min3.png,min4.png,allBlank.png,,,,['num_1'],,,,,,0,8,8,8,,,,,,,,,['num_1'],9,0.0566596224671,1,['num_1'],0,[0.15469765581656247],,2018_May_06_1231,60.0436748015,sequenceLearningTask,001,090,
min1.png,min2.png,min3.png,min4.png,allBlank.png,,,,['num_0'],,,,,,0,8,8,8,,,,,,,,,['num_0'],9,0.0570198273053,1,['num_0'],0,[0.10358018020633608],,2018_May_06_1231,60.0436748015,sequenceLearningTask,001,090,
min1.png,min2.png,min3.png,min4.png,allBlank.png,,,,['num_7'],,,,,,0,9,9,9,,,,,,,,,['num_7'],10,0.0491014779545,1,['num_7'],0,[0.09456890926230699],,2018_May_06_1231,60.0436748015,sequenceLearningTask,001,090,
min1.png,min2.png,min3.png,min4.png,allBlank.png,,,,['num_1'],,,,,,0,9,9,9,,,,,,,,,['num_1'],10,0.0503392200917,0,"['num_0', 'num_1']",0,"[0.07788134005386382, 0.7600893209455535]",,2018_May_06_1231,60.0436748015,sequenceLearningTask,001,090,
min1.png,min2.png,min3.png,min4.png,allBlank.png,,,,['num_4'],,,,,,0,9,9,9,,,,,,,,,['num_4'],10,0.0532979856944,1,['num_4'],0,[0.5907894267002121],,2018_May_06_1231,60.0436748015,sequenceLearningTask,001,090,
min1.png,min2.png,min3.png,min4.png,allBlank.png,,,,['num_0'],,,,,,0,9,9,9,,,,,,,,,['num_0'],10,0.049760759226,1,['num_0'],0,[0.24458964762743562],,2018_May_06_1231,60.0436748015,sequenceLearningTask,001,090,
min1.png,min2.png,min3.png,min4.png,allBlank.png,,,,['num_0'],,,,,,0,9,9,9,,,,,,,,,['num_0'],10,0.0515941928606,1,['num_0'],0,[0.3260201115626842],,2018_May_06_1231,60.0436748015,sequenceLearningTask,001,090,
min1.png,min2.png,min3.png,min4.png,allBlank.png,,,,['num_4'],,,,,,0,9,9,9,,,,,,,,,['num_4'],10,0.0497997335624,0,"['num_1', 'num_4']",0,"[0.04525614948943257, 0.5280793500132859]",,2018_May_06_1231,60.0436748015,sequenceLearningTask,001,090,
min1.png,min2.png,min3.png,min4.png,allBlank.png,,,,['num_1'],,,,,,0,9,9,9,,,,,,,,,['num_1'],10,0.0573500832543,1,['num_1'],0,[0.38764998444821686],,2018_May_06_1231,60.0436748015,sequenceLearningTask,001,090,
min1.png,min2.png,min3.png,min4.png,allBlank.png,,,,['num_0'],,,,,,0,9,9,9,,,,,,,,,['num_0'],10,0.0543511125725,1,['num_0'],0,[0.38968321261927485],,2018_May_06_1231,60.0436748015,sequenceLearningTask,001,090,
min1.png,min2.png,min3.png,min4.png,allBlank.png,,,,,,,,,,0,9,9,9,,,,,0,-1,-1,0,,,,,,,,,2018_May_06_1231,60.0436748015,sequenceLearningTask,001,090,
