pawPatrol1,pawPatrol2,pawPatrol3,pawPatrol4,blank,randomPaw,correctKeyPress,allowableKey,correctKey,correctKeyPressNum,trials.thisRepN,trials.thisTrialN,trials.thisN,trials.thisIndex,trials_3.thisRepN,trials_3.thisTrialN,trials_3.thisN,trials_3.thisIndex,trials_2.thisRepN,trials_2.thisTrialN,trials_2.thisN,trials_2.thisIndex,trials_questions.thisRepN,trials_questions.thisTrialN,trials_questions.thisN,trials_questions.thisIndex,correctKey,repetitionNumber,stimulusPresent.t,trialCorrect,key_resp_9.keys,key_resp_9.corr,key_resp_9.rt,keyRespCorrect,date,frameRate,expName,session,participant,
min1.png,min2.png,min3.png,min4.png,allBlank.png,,,,['num_7'],,,,,,0,0,0,0,,,,,,,,,['num_7'],1,0.0289119643858,1,['num_7'],0,[0.5385905165458098],,2018_May_06_1628,60.0263746578,sequenceLearningTask,001,099,
min1.png,min2.png,min3.png,min4.png,allBlank.png,,,,['num_1'],,,,,,0,0,0,0,,,,,,,,,['num_1'],1,0.0236615092726,1,['num_1'],0,[0.6371495748171583],,2018_May_06_1628,60.0263746578,sequenceLearningTask,001,099,
min1.png,min2.png,min3.png,min4.png,allBlank.png,,,,['num_4'],,,,,,0,0,0,0,,,,,,,,,['num_4'],1,0.0235257146414,1,['num_4'],0,[0.7041919538751245],,2018_May_06_1628,60.0263746578,sequenceLearningTask,001,099,
min1.png,min2.png,min3.png,min4.png,allBlank.png,,,,['num_0'],,,,,,0,0,0,0,,,,,,,,,['num_0'],1,0.0236508426024,1,['num_0'],0,[0.553847523406148],,2018_May_06_1628,60.0263746578,sequenceLearningTask,001,099,
min1.png,min2.png,min3.png,min4.png,allBlank.png,,,,['num_0'],,,,,,0,0,0,0,,,,,,,,,['num_0'],1,0.0235454068752,0,"['num_1', 'num_0']",0,"[0.5206828463124111, 1.5538979849079624]",,2018_May_06_1628,60.0263746578,sequenceLearningTask,001,099,
min1.png,min2.png,min3.png,min4.png,allBlank.png,,,,['num_4'],,,,,,0,0,0,0,,,,,,,,,['num_4'],1,0.0231753560947,1,['num_4'],0,[0.7878866200335324],,2018_May_06_1628,60.0263746578,sequenceLearningTask,001,099,
min1.png,min2.png,min3.png,min4.png,allBlank.png,,,,['num_1'],,,,,,0,0,0,0,,,,,,,,,['num_1'],1,0.0235240736511,1,['num_1'],0,[0.6705854310421273],,2018_May_06_1628,60.0263746578,sequenceLearningTask,001,099,
min1.png,min2.png,min3.png,min4.png,allBlank.png,,,,['num_0'],,,,,,0,0,0,0,,,,,,,,,['num_0'],1,0.0237353554694,1,['num_0'],0,[0.4704273184761405],,2018_May_06_1628,60.0263746578,sequenceLearningTask,001,099,
min1.png,min2.png,min3.png,min4.png,allBlank.png,,,,['num_7'],,,,,,0,1,1,1,,,,,,,,,['num_7'],2,0.0231564843562,1,['num_7'],0,[0.38728075416292995],,2018_May_06_1628,60.0263746578,sequenceLearningTask,001,099,
min1.png,min2.png,min3.png,min4.png,allBlank.png,,,,['num_1'],,,,,,0,1,1,1,,,,,,,,,['num_1'],2,0.0242518675514,1,['num_1'],0,[0.5030861500417814],,2018_May_06_1628,60.0263746578,sequenceLearningTask,001,099,
min1.png,min2.png,min3.png,min4.png,allBlank.png,,,,['num_4'],,,,,,0,1,1,1,,,,,,,,,['num_4'],2,0.0212984354002,1,['num_4'],0,[0.6231783099938184],,2018_May_06_1628,60.0263746578,sequenceLearningTask,001,099,
min1.png,min2.png,min3.png,min4.png,allBlank.png,,,,['num_0'],,,,,,0,1,1,1,,,,,,,,,['num_0'],2,0.0238280732883,1,['num_0'],0,[0.4203129186062142],,2018_May_06_1628,60.0263746578,sequenceLearningTask,001,099,
min1.png,min2.png,min3.png,min4.png,allBlank.png,,,,['num_0'],,,,,,0,1,1,1,,,,,,,,,['num_0'],2,0.023237304762,0,"['num_1', 'num_0']",0,"[0.4542792357970029, 1.1376141895307228]",,2018_May_06_1628,60.0263746578,sequenceLearningTask,001,099,
min1.png,min2.png,min3.png,min4.png,allBlank.png,,,,['num_4'],,,,,,0,1,1,1,,,,,,,,,['num_4'],2,0.0235404837877,0,"['num_7', 'num_4']",0,"[0.5537732670782134, 0.6039516668533906]",,2018_May_06_1628,60.0263746578,sequenceLearningTask,001,099,
min1.png,min2.png,min3.png,min4.png,allBlank.png,,,,['num_1'],,,,,,0,1,1,1,,,,,,,,,['num_1'],2,0.0235343299573,1,['num_1'],0,[0.9041629896964878],,2018_May_06_1628,60.0263746578,sequenceLearningTask,001,099,
min1.png,min2.png,min3.png,min4.png,allBlank.png,,,,['num_0'],,,,,,0,1,1,1,,,,,,,,,['num_0'],2,0.0234321762109,1,['num_0'],0,[0.4874160154722631],,2018_May_06_1628,60.0263746578,sequenceLearningTask,001,099,
min1.png,min2.png,min3.png,min4.png,allBlank.png,,,,['num_7'],,,,,,0,2,2,2,,,,,,,,,['num_7'],3,0.0234096121276,0,"['num_1', 'num_7']",0,"[0.00019528181292116642, 0.5233724840218201]",,2018_May_06_1628,60.0263746578,sequenceLearningTask,001,099,
min1.png,min2.png,min3.png,min4.png,allBlank.png,,,,['num_1'],,,,,,0,2,2,2,,,,,,,,,['num_1'],3,0.0610292581841,1,['num_1'],0,[0.48285273904912174],,2018_May_06_1628,60.0263746578,sequenceLearningTask,001,099,
min1.png,min2.png,min3.png,min4.png,allBlank.png,,,,['num_4'],,,,,,0,2,2,2,,,,,,,,,['num_4'],3,0.0522030126303,1,['num_4'],0,[0.774908174527809],,2018_May_06_1628,60.0263746578,sequenceLearningTask,001,099,
min1.png,min2.png,min3.png,min4.png,allBlank.png,,,,['num_0'],,,,,,0,2,2,2,,,,,,,,,['num_0'],3,0.0582169539994,0,"['num_1', 'num_0']",0,"[0.48544924857560545, 1.0697156063979492]",,2018_May_06_1628,60.0263746578,sequenceLearningTask,001,099,
min1.png,min2.png,min3.png,min4.png,allBlank.png,,,,['num_0'],,,,,,0,2,2,2,,,,,,,,,['num_0'],3,0.0509287578752,0,"['num_1', 'num_0', 'num_0']",0,"[0.6779651142423972, 1.2604304486885667]",,2018_May_06_1628,60.0263746578,sequenceLearningTask,001,099,
min1.png,min2.png,min3.png,min4.png,allBlank.png,,,,['num_4'],,,,,,0,2,2,2,,,,,,,,,['num_4'],3,0.0600146953948,1,['num_4'],0,[0.38321716932114214],,2018_May_06_1628,60.0263746578,sequenceLearningTask,001,099,
min1.png,min2.png,min3.png,min4.png,allBlank.png,,,,['num_1'],,,,,,0,2,2,2,,,,,,,,,['num_1'],3,0.0591646450339,1,['num_1'],0,[0.7179683471331373],,2018_May_06_1628,60.0263746578,sequenceLearningTask,001,099,
min1.png,min2.png,min3.png,min4.png,allBlank.png,,,,['num_0'],,,,,,0,2,2,2,,,,,,,,,['num_0'],3,0.0491437343881,1,['num_0'],0,[0.41251600510440767],,2018_May_06_1628,60.0263746578,sequenceLearningTask,001,099,
min1.png,min2.png,min3.png,min4.png,allBlank.png,,,,['num_7'],,,,,,0,3,3,3,,,,,,,,,['num_7'],4,0.0482465046225,1,['num_7'],0,[0.4113283143378794],,2018_May_06_1628,60.0263746578,sequenceLearningTask,001,099,
min1.png,min2.png,min3.png,min4.png,allBlank.png,,,,['num_1'],,,,,,0,3,3,3,,,,,,,,,['num_1'],4,0.0572085449239,1,['num_1'],0,[0.5873116874136031],,2018_May_06_1628,60.0263746578,sequenceLearningTask,001,099,
min1.png,min2.png,min3.png,min4.png,allBlank.png,,,,['num_4'],,,,,,0,3,3,3,,,,,,,,,['num_4'],4,0.0602403361117,0,"['num_0', 'num_4']",0,"[0.3823794268537313, 0.7994861955521628]",,2018_May_06_1628,60.0263746578,sequenceLearningTask,001,099,
min1.png,min2.png,min3.png,min4.png,allBlank.png,,,,['num_0'],,,,,,0,3,3,3,,,,,,,,,['num_0'],4,0.05956587533,1,['num_0'],0,[0.934618336847052],,2018_May_06_1628,60.0263746578,sequenceLearningTask,001,099,
min1.png,min2.png,min3.png,min4.png,allBlank.png,,,,['num_0'],,,,,,0,3,3,3,,,,,,,,,['num_0'],4,0.0579166467069,0,"['num_1', 'num_0']",0,"[0.719743934692815, 0.7700835650321096]",,2018_May_06_1628,60.0263746578,sequenceLearningTask,001,099,
min1.png,min2.png,min3.png,min4.png,allBlank.png,,,,['num_4'],,,,,,0,3,3,3,,,,,,,,,['num_4'],4,0.0557993159164,0,"['num_0', 'num_4']",0,"[0.0006629736162722111, 2.670938661438413]",,2018_May_06_1628,60.0263746578,sequenceLearningTask,001,099,
min1.png,min2.png,min3.png,min4.png,allBlank.png,,,,['num_1'],,,,,,0,3,3,3,,,,,,,,,['num_1'],4,0.0563498793636,0,"['num_4', 'num_1']",0,"[6.253613226348534, 6.787143646623008]",,2018_May_06_1628,60.0263746578,sequenceLearningTask,001,099,
min1.png,min2.png,min3.png,min4.png,allBlank.png,,,,['num_0'],,,,,,0,3,3,3,,,,,,,,,['num_0'],4,0.0554883419536,1,['num_0'],0,[0.7886111319530755],,2018_May_06_1628,60.0263746578,sequenceLearningTask,001,099,
min1.png,min2.png,min3.png,min4.png,allBlank.png,,,,['num_7'],,,,,,0,4,4,4,,,,,,,,,['num_7'],5,0.0535031136824,1,['num_7'],0,[0.6392402389319614],,2018_May_06_1628,60.0263746578,sequenceLearningTask,001,099,
min1.png,min2.png,min3.png,min4.png,allBlank.png,,,,['num_1'],,,,,,0,4,4,4,,,,,,,,,['num_1'],5,0.0567273148336,1,['num_1'],0,[0.6537436057114974],,2018_May_06_1628,60.0263746578,sequenceLearningTask,001,099,
min1.png,min2.png,min3.png,min4.png,allBlank.png,,,,['num_4'],,,,,,0,4,4,4,,,,,,,,,['num_4'],5,0.05164957745,0,"['num_7', 'num_4']",0,"[0.7922217941377312, 0.8931730545591563]",,2018_May_06_1628,60.0263746578,sequenceLearningTask,001,099,
min1.png,min2.png,min3.png,min4.png,allBlank.png,,,,['num_0'],,,,,,0,4,4,4,,,,,,,,,['num_0'],5,0.058026595274,1,['num_0'],0,[0.5020539461402223],,2018_May_06_1628,60.0263746578,sequenceLearningTask,001,099,
min1.png,min2.png,min3.png,min4.png,allBlank.png,,,,['num_0'],,,,,,0,4,4,4,,,,,,,,,['num_0'],5,0.0525123456027,1,['num_0'],0,[0.3088156199082732],,2018_May_06_1628,60.0263746578,sequenceLearningTask,001,099,
min1.png,min2.png,min3.png,min4.png,allBlank.png,,,,['num_4'],,,,,,0,4,4,4,,,,,,,,,['num_4'],5,0.0540631129406,1,['num_4'],0,[0.6735044018132612],,2018_May_06_1628,60.0263746578,sequenceLearningTask,001,099,
min1.png,min2.png,min3.png,min4.png,allBlank.png,,,,['num_1'],,,,,,0,4,4,4,,,,,,,,,['num_1'],5,0.0508487579646,1,['num_1'],0,[0.5446389194112271],,2018_May_06_1628,60.0263746578,sequenceLearningTask,001,099,
min1.png,min2.png,min3.png,min4.png,allBlank.png,,,,['num_0'],,,,,,0,4,4,4,,,,,,,,,['num_0'],5,0.054954599007,1,['num_0'],0,[0.7229927511652932],,2018_May_06_1628,60.0263746578,sequenceLearningTask,001,099,
min1.png,min2.png,min3.png,min4.png,allBlank.png,,,,['num_7'],,,,,,0,5,5,5,,,,,,,,,['num_7'],6,0.0475154287415,1,['num_7'],0,[0.6471290496410802],,2018_May_06_1628,60.0263746578,sequenceLearningTask,001,099,
min1.png,min2.png,min3.png,min4.png,allBlank.png,,,,['num_1'],,,,,,0,5,5,5,,,,,,,,,['num_1'],6,0.0594239268685,1,['num_1'],0,[0.6010273628635332],,2018_May_06_1628,60.0263746578,sequenceLearningTask,001,099,
min1.png,min2.png,min3.png,min4.png,allBlank.png,,,,['num_4'],,,,,,0,5,5,5,,,,,,,,,['num_4'],6,0.0575166471535,1,['num_4'],0,[0.9871852465439588],,2018_May_06_1628,60.0263746578,sequenceLearningTask,001,099,
min1.png,min2.png,min3.png,min4.png,allBlank.png,,,,['num_0'],,,,,,0,5,5,5,,,,,,,,,['num_0'],6,0.0527002428425,1,['num_0'],0,[0.40837447182275355],,2018_May_06_1628,60.0263746578,sequenceLearningTask,001,099,
min1.png,min2.png,min3.png,min4.png,allBlank.png,,,,['num_0'],,,,,,0,5,5,5,,,,,,,,,['num_0'],6,0.0543215741636,1,['num_0'],0,[0.50640635099262],,2018_May_06_1628,60.0263746578,sequenceLearningTask,001,099,
min1.png,min2.png,min3.png,min4.png,allBlank.png,,,,['num_4'],,,,,,0,5,5,5,,,,,,,,,['num_4'],6,0.0552442396292,0,"['num_1', 'num_4']",0,"[0.7588216301519424, 1.2732936124084517]",,2018_May_06_1628,60.0263746578,sequenceLearningTask,001,099,
min1.png,min2.png,min3.png,min4.png,allBlank.png,,,,['num_1'],,,,,,0,5,5,5,,,,,,,,,['num_1'],6,0.0532380883815,0,"['num_7', 'num_4', 'num_1']",0,"[0.7902665145229548, 1.2241584933362901, 1.859486942179501]",,2018_May_06_1628,60.0263746578,sequenceLearningTask,001,099,
min1.png,min2.png,min3.png,min4.png,allBlank.png,,,,['num_0'],,,,,,0,5,5,5,,,,,,,,,['num_0'],6,0.0588889531791,1,['num_0'],0,[0.5357745201326907],,2018_May_06_1628,60.0263746578,sequenceLearningTask,001,099,
min1.png,min2.png,min3.png,min4.png,allBlank.png,,,,['num_7'],,,,,,0,6,6,6,,,,,,,,,['num_7'],7,0.0505180916516,1,['num_7'],0,[0.5919635790633038],,2018_May_06_1628,60.0263746578,sequenceLearningTask,001,099,
min1.png,min2.png,min3.png,min4.png,allBlank.png,,,,['num_1'],,,,,,0,6,6,6,,,,,,,,,['num_1'],7,0.0571560321841,0,"['num_4', 'num_1']",0,"[0.654810270993039, 0.6892816132167354]",,2018_May_06_1628,60.0263746578,sequenceLearningTask,001,099,
min1.png,min2.png,min3.png,min4.png,allBlank.png,,,,['num_4'],,,,,,0,6,6,6,,,,,,,,,['num_4'],7,0.0514112187084,1,['num_4'],0,[0.4762217729585245],,2018_May_06_1628,60.0263746578,sequenceLearningTask,001,099,
min1.png,min2.png,min3.png,min4.png,allBlank.png,,,,['num_0'],,,,,,0,6,6,6,,,,,,,,,['num_0'],7,0.0575925444718,1,['num_0'],0,[0.42083066154737025],,2018_May_06_1628,60.0263746578,sequenceLearningTask,001,099,
min1.png,min2.png,min3.png,min4.png,allBlank.png,,,,['num_0'],,,,,,0,6,6,6,,,,,,,,,['num_0'],7,0.0537139852531,1,['num_0'],0,[0.424453221145086],,2018_May_06_1628,60.0263746578,sequenceLearningTask,001,099,
min1.png,min2.png,min3.png,min4.png,allBlank.png,,,,['num_4'],,,,,,0,6,6,6,,,,,,,,,['num_4'],7,0.054253471666,1,['num_4'],0,[0.672723684925586],,2018_May_06_1628,60.0263746578,sequenceLearningTask,001,099,
min1.png,min2.png,min3.png,min4.png,allBlank.png,,,,['num_1'],,,,,,0,6,6,6,,,,,,,,,['num_1'],7,0.0495371697471,1,['num_1'],0,[0.3784791239304468],,2018_May_06_1628,60.0263746578,sequenceLearningTask,001,099,
min1.png,min2.png,min3.png,min4.png,allBlank.png,,,,['num_0'],,,,,,0,6,6,6,,,,,,,,,['num_0'],7,0.0565808534157,1,['num_0'],0,[0.3703749288106337],,2018_May_06_1628,60.0263746578,sequenceLearningTask,001,099,
min1.png,min2.png,min3.png,min4.png,allBlank.png,,,,['num_7'],,,,,,0,7,7,7,,,,,,,,,['num_7'],8,0.0597496700939,1,['num_7'],0,[0.46483183826785535],,2018_May_06_1628,60.0263746578,sequenceLearningTask,001,099,
min1.png,min2.png,min3.png,min4.png,allBlank.png,,,,['num_1'],,,,,,0,7,7,7,,,,,,,,,['num_1'],8,0.0561718282988,0,"['num_4', 'num_1']",0,"[0.43672069325111806, 0.8205417593708262]",,2018_May_06_1628,60.0263746578,sequenceLearningTask,001,099,
min1.png,min2.png,min3.png,min4.png,allBlank.png,,,,['num_4'],,,,,,0,7,7,7,,,,,,,,,['num_4'],8,0.0538563439623,0,"['num_7', 'num_4']",0,"[0.6234433351783082, 1.0577861852943897]",,2018_May_06_1628,60.0263746578,sequenceLearningTask,001,099,
min1.png,min2.png,min3.png,min4.png,allBlank.png,,,,['num_0'],,,,,,0,7,7,7,,,,,,,,,['num_0'],8,0.0563117255224,1,['num_0'],0,[0.4537971850950271],,2018_May_06_1628,60.0263746578,sequenceLearningTask,001,099,
min1.png,min2.png,min3.png,min4.png,allBlank.png,,,,['num_0'],,,,,,0,7,7,7,,,,,,,,,['num_0'],8,0.0537427031668,1,['num_0'],0,[0.45743656519334763],,2018_May_06_1628,60.0263746578,sequenceLearningTask,001,099,
min1.png,min2.png,min3.png,min4.png,allBlank.png,,,,['num_4'],,,,,,0,7,7,7,,,,,,,,,['num_4'],8,0.0492479393724,0,"['num_7', 'num_4', 'num_4']",0,"[0.9295627532992512, 1.462340353988111]",,2018_May_06_1628,60.0263746578,sequenceLearningTask,001,099,
min1.png,min2.png,min3.png,min4.png,allBlank.png,,,,['num_1'],,,,,,0,7,7,7,,,,,,,,,['num_1'],8,0.0541443437105,1,['num_1'],0,[0.8067719300743192],,2018_May_06_1628,60.0263746578,sequenceLearningTask,001,099,
min1.png,min2.png,min3.png,min4.png,allBlank.png,,,,['num_0'],,,,,,0,7,7,7,,,,,,,,,['num_0'],8,0.0553870087024,1,['num_0'],0,[0.5560723412781954],,2018_May_06_1628,60.0263746578,sequenceLearningTask,001,099,
min1.png,min2.png,min3.png,min4.png,allBlank.png,,,,['num_7'],,,,,,0,8,8,8,,,,,,,,,['num_7'],9,0.056088546291,1,['num_7'],0,[0.7868839545408264],,2018_May_06_1628,60.0263746578,sequenceLearningTask,001,099,
min1.png,min2.png,min3.png,min4.png,allBlank.png,,,,['num_1'],,,,,,0,8,8,8,,,,,,,,,['num_1'],9,0.0574042369844,1,['num_1'],0,[0.6520353000378236],,2018_May_06_1628,60.0263746578,sequenceLearningTask,001,099,
min1.png,min2.png,min3.png,min4.png,allBlank.png,,,,['num_4'],,,,,,0,8,8,8,,,,,,,,,['num_4'],9,0.0504138866672,1,['num_4'],0,[0.6112488887738436],,2018_May_06_1628,60.0263746578,sequenceLearningTask,001,099,
min1.png,min2.png,min3.png,min4.png,allBlank.png,,,,['num_0'],,,,,,0,8,8,8,,,,,,,,,['num_0'],9,0.0494222980924,1,['num_0'],0,[0.31248371792025864],,2018_May_06_1628,60.0263746578,sequenceLearningTask,001,099,
min1.png,min2.png,min3.png,min4.png,allBlank.png,,,,['num_0'],,,,,,0,8,8,8,,,,,,,,,['num_0'],9,0.0512647574069,1,['num_0'],0,[0.3936811564490199],,2018_May_06_1628,60.0263746578,sequenceLearningTask,001,099,
min1.png,min2.png,min3.png,min4.png,allBlank.png,,,,['num_4'],,,,,,0,8,8,8,,,,,,,,,['num_4'],9,0.0558358287672,1,['num_4'],0,[1.0385279526235536],,2018_May_06_1628,60.0263746578,sequenceLearningTask,001,099,
min1.png,min2.png,min3.png,min4.png,allBlank.png,,,,['num_1'],,,,,,0,8,8,8,,,,,,,,,['num_1'],9,0.0521669101436,1,['num_1'],0,[0.42559209163300693],,2018_May_06_1628,60.0263746578,sequenceLearningTask,001,099,
min1.png,min2.png,min3.png,min4.png,allBlank.png,,,,['num_0'],,,,,,0,8,8,8,,,,,,,,,['num_0'],9,0.0526596275158,1,['num_0'],0,[0.3919277227250859],,2018_May_06_1628,60.0263746578,sequenceLearningTask,001,099,
min1.png,min2.png,min3.png,min4.png,allBlank.png,,,,['num_7'],,,,,,0,9,9,9,,,,,,,,,['num_7'],10,0.0557808544254,1,['num_7'],0,[0.45558343932498246],,2018_May_06_1628,60.0263746578,sequenceLearningTask,001,099,
min1.png,min2.png,min3.png,min4.png,allBlank.png,,,,['num_1'],,,,,,0,9,9,9,,,,,,,,,['num_1'],10,0.0507708092919,1,['num_1'],0,[0.6424935682443902],,2018_May_06_1628,60.0263746578,sequenceLearningTask,001,099,
min1.png,min2.png,min3.png,min4.png,allBlank.png,,,,['num_4'],,,,,,0,9,9,9,,,,,,,,,['num_4'],10,0.0505783993285,1,['num_4'],0,[0.3939707970712334],,2018_May_06_1628,60.0263746578,sequenceLearningTask,001,099,
min1.png,min2.png,min3.png,min4.png,allBlank.png,,,,['num_0'],,,,,,0,9,9,9,,,,,,,,,['num_0'],10,0.0546025994699,1,['num_0'],0,[0.3401821454754099],,2018_May_06_1628,60.0263746578,sequenceLearningTask,001,099,
min1.png,min2.png,min3.png,min4.png,allBlank.png,,,,['num_0'],,,,,,0,9,9,9,,,,,,,,,['num_0'],10,0.0596770547563,1,['num_0'],0,[0.3347819469636306],,2018_May_06_1628,60.0263746578,sequenceLearningTask,001,099,
min1.png,min2.png,min3.png,min4.png,allBlank.png,,,,['num_4'],,,,,,0,9,9,9,,,,,,,,,['num_4'],10,0.0541353179142,0,"['num_7', 'num_4']",0,"[0.4734238275559619, 1.1405454680789262]",,2018_May_06_1628,60.0263746578,sequenceLearningTask,001,099,
min1.png,min2.png,min3.png,min4.png,allBlank.png,,,,['num_1'],,,,,,0,9,9,9,,,,,,,,,['num_1'],10,0.0581033130875,0,"['num_4', 'num_1']",0,"[0.4201541495276615, 0.9540016977116466]",,2018_May_06_1628,60.0263746578,sequenceLearningTask,001,099,
min1.png,min2.png,min3.png,min4.png,allBlank.png,,,,['num_0'],,,,,,0,9,9,9,,,,,,,,,['num_0'],10,0.0630731531419,1,['num_0'],0,[0.4303494191262871],,2018_May_06_1628,60.0263746578,sequenceLearningTask,001,099,
min1.png,min2.png,min3.png,min4.png,allBlank.png,,,,['num_7'],,,,,,0,0,0,0,,,,,,,,,['num_7'],1,0.0492893751943,1,['num_7'],0,[0.7541012257570401],,2018_May_06_1628,60.0263746578,sequenceLearningTask,001,099,
min1.png,min2.png,min3.png,min4.png,allBlank.png,,,,['num_1'],,,,,,0,0,0,0,,,,,,,,,['num_1'],1,0.0576709033921,1,['num_1'],0,[0.35383956448640674],,2018_May_06_1628,60.0263746578,sequenceLearningTask,001,099,
min1.png,min2.png,min3.png,min4.png,allBlank.png,,,,['num_4'],,,,,,0,0,0,0,,,,,,,,,['num_4'],1,0.0523638329469,1,['num_4'],0,[0.5748419591691345],,2018_May_06_1628,60.0263746578,sequenceLearningTask,001,099,
min1.png,min2.png,min3.png,min4.png,allBlank.png,,,,['num_0'],,,,,,0,0,0,0,,,,,,,,,['num_0'],1,0.0549283425789,1,['num_0'],0,[0.3395273769274354],,2018_May_06_1628,60.0263746578,sequenceLearningTask,001,099,
min1.png,min2.png,min3.png,min4.png,allBlank.png,,,,['num_0'],,,,,,0,0,0,0,,,,,,,,,['num_0'],1,0.0551630089758,1,['num_0'],0,[0.5550007527926937],,2018_May_06_1628,60.0263746578,sequenceLearningTask,001,099,
min1.png,min2.png,min3.png,min4.png,allBlank.png,,,,['num_4'],,,,,,0,0,0,0,,,,,,,,,['num_4'],1,0.0612048477633,0,"['num_7', 'num_4']",0,"[0.46573932422325015, 0.6000070564914495]",,2018_May_06_1628,60.0263746578,sequenceLearningTask,001,099,
min1.png,min2.png,min3.png,min4.png,allBlank.png,,,,['num_1'],,,,,,0,0,0,0,,,,,,,,,['num_1'],1,0.0541316256858,0,"['num_4', 'num_1']",0,"[0.000298256054520607, 1.0569898785324767]",,2018_May_06_1628,60.0263746578,sequenceLearningTask,001,099,
min1.png,min2.png,min3.png,min4.png,allBlank.png,,,,['num_0'],,,,,,0,0,0,0,,,,,,,,,['num_0'],1,0.0524782943539,0,"['num_1', 'num_1', 'num_1', 'num_0']",0,"[0.27479761047288775, 1.5425318450434133, 1.7425640090368688, 2.009043681086041]",,2018_May_06_1628,60.0263746578,sequenceLearningTask,001,099,
min1.png,min2.png,min3.png,min4.png,allBlank.png,,,,['num_7'],,,,,,0,1,1,1,,,,,,,,,['num_7'],2,0.0605361306807,1,['num_7'],0,[0.6821173143107444],,2018_May_06_1628,60.0263746578,sequenceLearningTask,001,099,
min1.png,min2.png,min3.png,min4.png,allBlank.png,,,,['num_1'],,,,,,0,1,1,1,,,,,,,,,['num_1'],2,0.0542596256128,1,['num_1'],0,[0.3566678686765954],,2018_May_06_1628,60.0263746578,sequenceLearningTask,001,099,
min1.png,min2.png,min3.png,min4.png,allBlank.png,,,,['num_4'],,,,,,0,1,1,1,,,,,,,,,['num_4'],2,0.0572343911044,0,"['num_7', 'num_4']",0,"[0.6711359944893047, 0.7542681999038905]",,2018_May_06_1628,60.0263746578,sequenceLearningTask,001,099,
min1.png,min2.png,min3.png,min4.png,allBlank.png,,,,['num_0'],,,,,,0,1,1,1,,,,,,,,,['num_0'],2,0.0552487524692,1,['num_0'],0,[0.3889086495619267],,2018_May_06_1628,60.0263746578,sequenceLearningTask,001,099,
min1.png,min2.png,min3.png,min4.png,allBlank.png,,,,['num_0'],,,,,,0,1,1,1,,,,,,,,,['num_0'],2,0.0478551206179,1,['num_0'],0,[0.42994367599021643],,2018_May_06_1628,60.0263746578,sequenceLearningTask,001,099,
min1.png,min2.png,min3.png,min4.png,allBlank.png,,,,['num_4'],,,,,,0,1,1,1,,,,,,,,,['num_4'],2,0.0533648573328,0,"['num_7', 'num_4']",0,"[0.42551168135832995, 0.8411460416391492]",,2018_May_06_1628,60.0263746578,sequenceLearningTask,001,099,
min1.png,min2.png,min3.png,min4.png,allBlank.png,,,,['num_1'],,,,,,0,1,1,1,,,,,,,,,['num_1'],2,0.0560335720656,1,['num_1'],0,[0.5555164444958791],,2018_May_06_1628,60.0263746578,sequenceLearningTask,001,099,
min1.png,min2.png,min3.png,min4.png,allBlank.png,,,,['num_0'],,,,,,0,1,1,1,,,,,,,,,['num_0'],2,0.0531174731441,1,['num_0'],0,[0.39143254386726767],,2018_May_06_1628,60.0263746578,sequenceLearningTask,001,099,
min1.png,min2.png,min3.png,min4.png,allBlank.png,,,,['num_7'],,,,,,0,2,2,2,,,,,,,,,['num_7'],3,0.0576298778178,1,['num_7'],0,[0.3849591158796102],,2018_May_06_1628,60.0263746578,sequenceLearningTask,001,099,
min1.png,min2.png,min3.png,min4.png,allBlank.png,,,,['num_1'],,,,,,0,2,2,2,,,,,,,,,['num_1'],3,0.0508175784489,1,['num_1'],0,[0.4770201308419928],,2018_May_06_1628,60.0263746578,sequenceLearningTask,001,099,
min1.png,min2.png,min3.png,min4.png,allBlank.png,,,,['num_4'],,,,,,0,2,2,2,,,,,,,,,['num_4'],3,0.0215630503371,1,['num_4'],0,[0.8753375892993063],,2018_May_06_1628,60.0263746578,sequenceLearningTask,001,099,
min1.png,min2.png,min3.png,min4.png,allBlank.png,,,,['num_0'],,,,,,0,2,2,2,,,,,,,,,['num_0'],3,0.0579252620228,0,"['num_1', 'num_0']",0,"[0.5696202220860869, 0.8637511420529336]",,2018_May_06_1628,60.0263746578,sequenceLearningTask,001,099,
min1.png,min2.png,min3.png,min4.png,allBlank.png,,,,['num_0'],,,,,,0,2,2,2,,,,,,,,,['num_0'],3,0.05264198652,0,"['num_1', 'num_0']",0,"[0.5416949230711907, 0.909582880558446]",,2018_May_06_1628,60.0263746578,sequenceLearningTask,001,099,
min1.png,min2.png,min3.png,min4.png,allBlank.png,,,,['num_4'],,,,,,0,2,2,2,,,,,,,,,['num_4'],3,0.0565320330206,0,"['num_7', 'num_4']",0,"[0.42037240567151457, 0.7536437903763726]",,2018_May_06_1628,60.0263746578,sequenceLearningTask,001,099,
min1.png,min2.png,min3.png,min4.png,allBlank.png,,,,['num_1'],,,,,,0,2,2,2,,,,,,,,,['num_1'],3,0.053535934072,0,"['num_0', 'num_1']",0,"[1.20740733447019, 1.8245360108558089]",,2018_May_06_1628,60.0263746578,sequenceLearningTask,001,099,
min1.png,min2.png,min3.png,min4.png,allBlank.png,,,,['num_0'],,,,,,0,2,2,2,,,,,,,,,['num_0'],3,0.0519843462389,1,['num_0'],0,[1.2585486049065366],,2018_May_06_1628,60.0263746578,sequenceLearningTask,001,099,
min1.png,min2.png,min3.png,min4.png,allBlank.png,,,,['num_7'],,,,,,0,3,3,3,,,,,,,,,['num_7'],4,0.0548512146343,1,['num_7'],0,[0.5041187640745193],,2018_May_06_1628,60.0263746578,sequenceLearningTask,001,099,
min1.png,min2.png,min3.png,min4.png,allBlank.png,,,,['num_1'],,,,,,0,3,3,3,,,,,,,,,['num_1'],4,0.0486362478696,1,['num_1'],0,[0.7956055849790573],,2018_May_06_1628,60.0263746578,sequenceLearningTask,001,099,
min1.png,min2.png,min3.png,min4.png,allBlank.png,,,,['num_4'],,,,,,0,3,3,3,,,,,,,,,['num_4'],4,0.0510748089291,1,['num_4'],0,[0.8096552086062729],,2018_May_06_1628,60.0263746578,sequenceLearningTask,001,099,
min1.png,min2.png,min3.png,min4.png,allBlank.png,,,,['num_0'],,,,,,0,3,3,3,,,,,,,,,['num_0'],4,0.0634189988486,1,['num_0'],0,[0.5132161888759583],,2018_May_06_1628,60.0263746578,sequenceLearningTask,001,099,
min1.png,min2.png,min3.png,min4.png,allBlank.png,,,,['num_0'],,,,,,0,3,3,3,,,,,,,,,['num_0'],4,0.0570428016363,1,['num_0'],0,[0.5193683864781633],,2018_May_06_1628,60.0263746578,sequenceLearningTask,001,099,
min1.png,min2.png,min3.png,min4.png,allBlank.png,,,,['num_4'],,,,,,0,3,3,3,,,,,,,,,['num_4'],4,0.0549254708458,1,['num_4'],0,[0.7886993369320408],,2018_May_06_1628,60.0263746578,sequenceLearningTask,001,099,
min1.png,min2.png,min3.png,min4.png,allBlank.png,,,,['num_1'],,,,,,0,3,3,3,,,,,,,,,['num_1'],4,0.0508610656252,1,['num_1'],0,[0.5924242965411395],,2018_May_06_1628,60.0263746578,sequenceLearningTask,001,099,
min1.png,min2.png,min3.png,min4.png,allBlank.png,,,,['num_0'],,,,,,0,3,3,3,,,,,,,,,['num_0'],4,0.0487293759361,1,['num_0'],0,[0.3947748987702653],,2018_May_06_1628,60.0263746578,sequenceLearningTask,001,099,
min1.png,min2.png,min3.png,min4.png,allBlank.png,,,,['num_7'],,,,,,0,4,4,4,,,,,,,,,['num_7'],5,0.0511109114159,1,['num_7'],0,[0.4417881742119789],,2018_May_06_1628,60.0263746578,sequenceLearningTask,001,099,
min1.png,min2.png,min3.png,min4.png,allBlank.png,,,,['num_1'],,,,,,0,4,4,4,,,,,,,,,['num_1'],5,0.0616081292974,1,['num_1'],0,[0.5650093558942899],,2018_May_06_1628,60.0263746578,sequenceLearningTask,001,099,
min1.png,min2.png,min3.png,min4.png,allBlank.png,,,,['num_4'],,,,,,0,4,4,4,,,,,,,,,['num_4'],5,0.0496713235043,0,"['num_0', 'num_4']",0,"[0.39567171805538237, 0.6951252982253209]",,2018_May_06_1628,60.0263746578,sequenceLearningTask,001,099,
min1.png,min2.png,min3.png,min4.png,allBlank.png,,,,['num_0'],,,,,,0,4,4,4,,,,,,,,,['num_0'],5,0.0545545994537,1,['num_0'],0,[0.4568457966670394],,2018_May_06_1628,60.0263746578,sequenceLearningTask,001,099,
min1.png,min2.png,min3.png,min4.png,allBlank.png,,,,['num_0'],,,,,,0,4,4,4,,,,,,,,,['num_0'],5,0.0558489568066,0,"['num_1', 'num_0']",0,"[0.5718475013272837, 0.6887146395165473]",,2018_May_06_1628,60.0263746578,sequenceLearningTask,001,099,
min1.png,min2.png,min3.png,min4.png,allBlank.png,,,,['num_4'],,,,,,0,4,4,4,,,,,,,,,['num_4'],5,0.059570798534,1,['num_4'],0,[0.4519859052961692],,2018_May_06_1628,60.0263746578,sequenceLearningTask,001,099,
min1.png,min2.png,min3.png,min4.png,allBlank.png,,,,['num_1'],,,,,,0,4,4,4,,,,,,,,,['num_1'],5,0.0488996321801,1,['num_1'],0,[0.546435019816272],,2018_May_06_1628,60.0263746578,sequenceLearningTask,001,099,
min1.png,min2.png,min3.png,min4.png,allBlank.png,,,,['num_0'],,,,,,0,4,4,4,,,,,,,,,['num_0'],5,0.0540192155167,0,"['num_1', 'num_4', 'num_0']",0,"[2.740167704410851, 3.4573996420949697, 3.956626925151795]",,2018_May_06_1628,60.0263746578,sequenceLearningTask,001,099,
min1.png,min2.png,min3.png,min4.png,allBlank.png,,,,['num_7'],,,,,,0,5,5,5,,,,,,,,,['num_7'],6,0.0576146983076,1,['num_7'],0,[0.6853452078066766],,2018_May_06_1628,60.0263746578,sequenceLearningTask,001,099,
min1.png,min2.png,min3.png,min4.png,allBlank.png,,,,['num_1'],,,,,,0,5,5,5,,,,,,,,,['num_1'],6,0.0559900848893,1,['num_1'],0,[0.4047067839419469],,2018_May_06_1628,60.0263746578,sequenceLearningTask,001,099,
min1.png,min2.png,min3.png,min4.png,allBlank.png,,,,['num_4'],,,,,,0,5,5,5,,,,,,,,,['num_4'],6,0.0631568452809,0,"['num_1', 'num_1', 'num_4']",0,"[0.8311739513883367, 1.4138567213667557, 2.5797006199136376]",,2018_May_06_1628,60.0263746578,sequenceLearningTask,001,099,
min1.png,min2.png,min3.png,min4.png,allBlank.png,,,,['num_0'],,,,,,0,5,5,5,,,,,,,,,['num_0'],6,0.0607621816453,1,['num_0'],0,[0.41697179444599897],,2018_May_06_1628,60.0263746578,sequenceLearningTask,001,099,
min1.png,min2.png,min3.png,min4.png,allBlank.png,,,,['num_0'],,,,,,0,5,5,5,,,,,,,,,['num_0'],6,0.0503720405977,1,['num_0'],0,[0.5601900797337294],,2018_May_06_1628,60.0263746578,sequenceLearningTask,001,099,
min1.png,min2.png,min3.png,min4.png,allBlank.png,,,,['num_4'],,,,,,0,5,5,5,,,,,,,,,['num_4'],6,0.0598649519961,1,['num_4'],0,[0.6840578246628866],,2018_May_06_1628,60.0263746578,sequenceLearningTask,001,099,
min1.png,min2.png,min3.png,min4.png,allBlank.png,,,,['num_1'],,,,,,0,5,5,5,,,,,,,,,['num_1'],6,0.052625165903,1,['num_1'],0,[1.140562288579531],,2018_May_06_1628,60.0263746578,sequenceLearningTask,001,099,
min1.png,min2.png,min3.png,min4.png,allBlank.png,,,,['num_0'],,,,,,0,5,5,5,,,,,,,,,['num_0'],6,0.0575753137236,1,['num_0'],0,[0.5532571652438492],,2018_May_06_1628,60.0263746578,sequenceLearningTask,001,099,
min1.png,min2.png,min3.png,min4.png,allBlank.png,,,,['num_7'],,,,,,0,6,6,6,,,,,,,,,['num_7'],7,0.051803423441,1,['num_7'],0,[0.7580466567305848],,2018_May_06_1628,60.0263746578,sequenceLearningTask,001,099,
min1.png,min2.png,min3.png,min4.png,allBlank.png,,,,['num_1'],,,,,,0,6,6,6,,,,,,,,,['num_1'],7,0.0536134724971,1,['num_1'],0,[0.507539477897808],,2018_May_06_1628,60.0263746578,sequenceLearningTask,001,099,
min1.png,min2.png,min3.png,min4.png,allBlank.png,,,,['num_4'],,,,,,0,6,6,6,,,,,,,,,['num_4'],7,0.0515375776449,0,"['num_7', 'num_4']",0,"[0.4425783271435648, 0.8096687471261248]",,2018_May_06_1628,60.0263746578,sequenceLearningTask,001,099,
min1.png,min2.png,min3.png,min4.png,allBlank.png,,,,['num_0'],,,,,,0,6,6,6,,,,,,,,,['num_0'],7,0.0541299846955,1,['num_0'],0,[0.5238500218838453],,2018_May_06_1628,60.0263746578,sequenceLearningTask,001,099,
min1.png,min2.png,min3.png,min4.png,allBlank.png,,,,['num_0'],,,,,,0,6,6,6,,,,,,,,,['num_0'],7,0.0532926523592,0,"['num_1', 'num_0']",0,"[0.8069471094058827, 1.2574048114474863]",,2018_May_06_1628,60.0263746578,sequenceLearningTask,001,099,
min1.png,min2.png,min3.png,min4.png,allBlank.png,,,,['num_4'],,,,,,0,6,6,6,,,,,,,,,['num_4'],7,0.0573447499191,0,"['num_7', 'num_4']",0,"[0.5882204042281955, 1.0208446922479197]",,2018_May_06_1628,60.0263746578,sequenceLearningTask,001,099,
min1.png,min2.png,min3.png,min4.png,allBlank.png,,,,['num_1'],,,,,,0,6,6,6,,,,,,,,,['num_1'],7,0.0502239381894,1,['num_1'],0,[0.41078677645418793],,2018_May_06_1628,60.0263746578,sequenceLearningTask,001,099,
min1.png,min2.png,min3.png,min4.png,allBlank.png,,,,['num_0'],,,,,,0,6,6,6,,,,,,,,,['num_0'],7,0.0562994178617,1,['num_0'],0,[0.28615062218159437],,2018_May_06_1628,60.0263746578,sequenceLearningTask,001,099,
min1.png,min2.png,min3.png,min4.png,allBlank.png,,,,['num_7'],,,,,,0,7,7,7,,,,,,,,,['num_7'],8,0.0533406523755,1,['num_7'],0,[0.47312228952068835],,2018_May_06_1628,60.0263746578,sequenceLearningTask,001,099,
min1.png,min2.png,min3.png,min4.png,allBlank.png,,,,['num_1'],,,,,,0,7,7,7,,,,,,,,,['num_1'],8,0.0511236294406,1,['num_1'],0,[0.27649483911227435],,2018_May_06_1628,60.0263746578,sequenceLearningTask,001,099,
min1.png,min2.png,min3.png,min4.png,allBlank.png,,,,['num_4'],,,,,,0,7,7,7,,,,,,,,,['num_4'],8,0.0522670125356,0,"['num_0', 'num_4']",0,"[0.1921929941745475, 0.6252152305096388]",,2018_May_06_1628,60.0263746578,sequenceLearningTask,001,099,
min1.png,min2.png,min3.png,min4.png,allBlank.png,,,,['num_0'],,,,,,0,7,7,7,,,,,,,,,['num_0'],8,0.0543379844166,1,['num_0'],0,[0.2397437049075961],,2018_May_06_1628,60.0263746578,sequenceLearningTask,001,099,
min1.png,min2.png,min3.png,min4.png,allBlank.png,,,,['num_0'],,,,,,0,7,7,7,,,,,,,,,['num_0'],8,0.0500015794532,1,['num_0'],0,[0.17750501225236803],,2018_May_06_1628,60.0263746578,sequenceLearningTask,001,099,
min1.png,min2.png,min3.png,min4.png,allBlank.png,,,,['num_4'],,,,,,0,7,7,7,,,,,,,,,['num_4'],8,0.0537135748891,0,"['num_7', 'num_4']",0,"[0.3918834150535986, 0.7412150877062231]",,2018_May_06_1628,60.0263746578,sequenceLearningTask,001,099,
min1.png,min2.png,min3.png,min4.png,allBlank.png,,,,['num_1'],,,,,,0,7,7,7,,,,,,,,,['num_1'],8,0.0530854731333,1,['num_1'],0,[0.44234201963990927],,2018_May_06_1628,60.0263746578,sequenceLearningTask,001,099,
min1.png,min2.png,min3.png,min4.png,allBlank.png,,,,['num_0'],,,,,,0,7,7,7,,,,,,,,,['num_0'],8,0.0541566512547,1,['num_0'],0,[0.42258860811125487],,2018_May_06_1628,60.0263746578,sequenceLearningTask,001,099,
min1.png,min2.png,min3.png,min4.png,allBlank.png,,,,['num_7'],,,,,,0,8,8,8,,,,,,,,,['num_7'],9,0.0515740903793,1,['num_7'],0,[0.45638795115519315],,2018_May_06_1628,60.0263746578,sequenceLearningTask,001,099,
min1.png,min2.png,min3.png,min4.png,allBlank.png,,,,['num_1'],,,,,,0,8,8,8,,,,,,,,,['num_1'],9,0.0517316287151,1,['num_1'],0,[0.492899906123057],,2018_May_06_1628,60.0263746578,sequenceLearningTask,001,099,
min1.png,min2.png,min3.png,min4.png,allBlank.png,,,,['num_4'],,,,,,0,8,8,8,,,,,,,,,['num_4'],9,0.0518739874242,0,"['num_7', 'num_4']",0,"[0.6593903679167852, 0.9264599878806621]",,2018_May_06_1628,60.0263746578,sequenceLearningTask,001,099,
min1.png,min2.png,min3.png,min4.png,allBlank.png,,,,['num_0'],,,,,,0,8,8,8,,,,,,,,,['num_0'],9,0.0593328500399,1,['num_0'],0,[0.6014294136548415],,2018_May_06_1628,60.0263746578,sequenceLearningTask,001,099,
min1.png,min2.png,min3.png,min4.png,allBlank.png,,,,['num_0'],,,,,,0,8,8,8,,,,,,,,,['num_0'],9,0.0572873140918,1,['num_0'],0,[0.6712742508389056],,2018_May_06_1628,60.0263746578,sequenceLearningTask,001,099,
min1.png,min2.png,min3.png,min4.png,allBlank.png,,,,['num_4'],,,,,,0,8,8,8,,,,,,,,,['num_4'],9,0.0597664904781,1,['num_4'],0,[0.7342202245490626],,2018_May_06_1628,60.0263746578,sequenceLearningTask,001,099,
min1.png,min2.png,min3.png,min4.png,allBlank.png,,,,['num_1'],,,,,,0,8,8,8,,,,,,,,,['num_1'],9,0.0521533717401,0,"['num_1', 'num_1']",0,"[0.00027076900005340576, 0.7756101223640144]",,2018_May_06_1628,60.0263746578,sequenceLearningTask,001,099,
min1.png,min2.png,min3.png,min4.png,allBlank.png,,,,['num_0'],,,,,,0,8,8,8,,,,,,,,,['num_0'],9,0.0521336795064,1,['num_0'],0,[0.34186378435697407],,2018_May_06_1628,60.0263746578,sequenceLearningTask,001,099,
min1.png,min2.png,min3.png,min4.png,allBlank.png,,,,['num_7'],,,,,,0,9,9,9,,,,,,,,,['num_7'],10,0.0528807553928,1,['num_7'],0,[0.40697755047585815],,2018_May_06_1628,60.0263746578,sequenceLearningTask,001,099,
min1.png,min2.png,min3.png,min4.png,allBlank.png,,,,['num_1'],,,,,,0,9,9,9,,,,,,,,,['num_1'],10,0.0497919387417,1,['num_1'],0,[0.494588109315373],,2018_May_06_1628,60.0263746578,sequenceLearningTask,001,099,
min1.png,min2.png,min3.png,min4.png,allBlank.png,,,,['num_4'],,,,,,0,9,9,9,,,,,,,,,['num_4'],10,0.0498190155486,1,['num_4'],0,[0.5936870641307905],,2018_May_06_1628,60.0263746578,sequenceLearningTask,001,099,
min1.png,min2.png,min3.png,min4.png,allBlank.png,,,,['num_0'],,,,,,0,9,9,9,,,,,,,,,['num_0'],10,0.0546177789802,1,['num_0'],0,[0.3070970580447465],,2018_May_06_1628,60.0263746578,sequenceLearningTask,001,099,
min1.png,min2.png,min3.png,min4.png,allBlank.png,,,,['num_0'],,,,,,0,9,9,9,,,,,,,,,['num_0'],10,0.055898187682,1,['num_0'],0,[0.48863898834679276],,2018_May_06_1628,60.0263746578,sequenceLearningTask,001,099,
min1.png,min2.png,min3.png,min4.png,allBlank.png,,,,['num_4'],,,,,,0,9,9,9,,,,,,,,,['num_4'],10,0.0566817763029,0,"['num_1', 'num_4']",0,"[0.5205011029029265, 0.6873538206564263]",,2018_May_06_1628,60.0263746578,sequenceLearningTask,001,099,
min1.png,min2.png,min3.png,min4.png,allBlank.png,,,,['num_1'],,,,,,0,9,9,9,,,,,,,,,['num_1'],10,0.042090614792,0,"['num_7', 'num_4', 'num_0', 'num_1']",0,"[0.4706923437770456, 0.5539406514726579, 0.9378335123183206, 1.3374018410686404]",,2018_May_06_1628,60.0263746578,sequenceLearningTask,001,099,
min1.png,min2.png,min3.png,min4.png,allBlank.png,,,,['num_0'],,,,,,0,9,9,9,,,,,,,,,['num_0'],10,0.0523121407023,1,['num_0'],0,[0.6065760739147663],,2018_May_06_1628,60.0263746578,sequenceLearningTask,001,099,
min1.png,min2.png,min3.png,min4.png,images/allBlank.png,images/min4.png,'num_0',"['num_7', 'num_4', 'num_1', 'num_0']",['num_0'],num_0,,,,,0,9,9,9,0,0,0,3,,,,,['num_0'],,0.0520992178936,1,['num_0'],0,[0.6579462671652436],1,2018_May_06_1628,60.0263746578,sequenceLearningTask,001,099,
min1.png,min2.png,min3.png,min4.png,images/allBlank.png,images/min1.png,'num_7',"['num_7', 'num_4', 'num_1', 'num_0']",['num_7'],num_7,,,,,0,9,9,9,0,1,1,0,,,,,['num_7'],,0.0593705936335,1,['num_7'],0,[0.4310058285482228],1,2018_May_06_1628,60.0263746578,sequenceLearningTask,001,099,
min1.png,min2.png,min3.png,min4.png,images/allBlank.png,images/min2.png,'num_4',"['num_7', 'num_4', 'num_1', 'num_0']",['num_4'],num_4,,,,,0,9,9,9,0,2,2,1,,,,,['num_4'],,0.0516323467018,0,"['num_7', 'num_4']",0,"[0.5244116622488946, 0.5743324214126915]",0,2018_May_06_1628,60.0263746578,sequenceLearningTask,001,099,
min1.png,min2.png,min3.png,min4.png,images/allBlank.png,images/min3.png,'num_1',"['num_7', 'num_4', 'num_1', 'num_0']",['num_1'],num_1,,,,,0,9,9,9,0,3,3,2,,,,,['num_1'],,0.0519658847479,1,['num_1'],0,[0.290703231934458],1,2018_May_06_1628,60.0263746578,sequenceLearningTask,001,099,
min1.png,min2.png,min3.png,min4.png,images/allBlank.png,images/min4.png,'num_0',"['num_7', 'num_4', 'num_1', 'num_0']",['num_0'],num_0,,,,,0,9,9,9,1,0,4,3,,,,,['num_0'],,0.0489751192508,1,['num_0'],0,[0.07617877807933837],1,2018_May_06_1628,60.0263746578,sequenceLearningTask,001,099,
min1.png,min2.png,min3.png,min4.png,images/allBlank.png,images/min2.png,'num_4',"['num_7', 'num_4', 'num_1', 'num_0']",['num_4'],num_4,,,,,0,9,9,9,1,1,5,1,,,,,['num_4'],,0.0475310184993,1,['num_4'],0,[0.4614907141076401],1,2018_May_06_1628,60.0263746578,sequenceLearningTask,001,099,
min1.png,min2.png,min3.png,min4.png,images/allBlank.png,images/min3.png,'num_1',"['num_7', 'num_4', 'num_1', 'num_0']",['num_1'],num_1,,,,,0,9,9,9,1,2,6,2,,,,,['num_1'],,0.0553098806413,1,['num_1'],0,[0.3365522011881694],1,2018_May_06_1628,60.0263746578,sequenceLearningTask,001,099,
min1.png,min2.png,min3.png,min4.png,images/allBlank.png,images/min1.png,'num_7',"['num_7', 'num_4', 'num_1', 'num_0']",['num_7'],num_7,,,,,0,9,9,9,1,3,7,0,,,,,['num_7'],,0.0547248556977,1,['num_7'],0,[0.30415018973872066],1,2018_May_06_1628,60.0263746578,sequenceLearningTask,001,099,
min1.png,min2.png,min3.png,min4.png,images/allBlank.png,images/min4.png,'num_0',"['num_7', 'num_4', 'num_1', 'num_0']",['num_0'],num_0,,,,,0,9,9,9,2,0,8,3,,,,,['num_0'],,0.0548126505455,0,"['num_1', 'num_0']",0,"[0.4036265801405534, 0.8029307040851563]",0,2018_May_06_1628,60.0263746578,sequenceLearningTask,001,099,
min1.png,min2.png,min3.png,min4.png,images/allBlank.png,images/min2.png,'num_4',"['num_7', 'num_4', 'num_1', 'num_0']",['num_4'],num_4,,,,,0,9,9,9,2,1,9,1,,,,,['num_4'],,0.0534062932711,1,['num_4'],0,[0.8231198075227439],1,2018_May_06_1628,60.0263746578,sequenceLearningTask,001,099,
min1.png,min2.png,min3.png,min4.png,images/allBlank.png,images/min3.png,'num_1',"['num_7', 'num_4', 'num_1', 'num_0']",['num_1'],num_1,,,,,0,9,9,9,2,2,10,2,,,,,['num_1'],,0.0535958315013,1,['num_1'],0,[0.4223662493750453],1,2018_May_06_1628,60.0263746578,sequenceLearningTask,001,099,
min1.png,min2.png,min3.png,min4.png,images/allBlank.png,images/min1.png,'num_7',"['num_7', 'num_4', 'num_1', 'num_0']",['num_7'],num_7,,,,,0,9,9,9,2,3,11,0,,,,,['num_7'],,0.0552397269057,0,"['num_0', 'num_7']",0,"[0.08720809780061245, 0.5537441390333697]",0,2018_May_06_1628,60.0263746578,sequenceLearningTask,001,099,
min1.png,min2.png,min3.png,min4.png,images/allBlank.png,images/min3.png,'num_1',"['num_7', 'num_4', 'num_1', 'num_0']",['num_1'],num_1,,,,,0,9,9,9,3,0,12,2,,,,,['num_1'],,0.0525213712826,0,"['num_4', 'num_1']",0,"[0.574436626280658, 0.9576275392901152]",0,2018_May_06_1628,60.0263746578,sequenceLearningTask,001,099,
min1.png,min2.png,min3.png,min4.png,images/allBlank.png,images/min4.png,'num_0',"['num_7', 'num_4', 'num_1', 'num_0']",['num_0'],num_0,,,,,0,9,9,9,3,1,13,3,,,,,['num_0'],,0.0585640304489,1,['num_0'],0,[0.5172174148028716],1,2018_May_06_1628,60.0263746578,sequenceLearningTask,001,099,
min1.png,min2.png,min3.png,min4.png,images/allBlank.png,images/min1.png,'num_7',"['num_7', 'num_4', 'num_1', 'num_0']",['num_7'],num_7,,,,,0,9,9,9,3,2,14,0,,,,,['num_7'],,0.0595556190237,1,['num_7'],0,[0.4647165562491864],1,2018_May_06_1628,60.0263746578,sequenceLearningTask,001,099,
min1.png,min2.png,min3.png,min4.png,images/allBlank.png,images/min2.png,'num_4',"['num_7', 'num_4', 'num_1', 'num_0']",['num_4'],num_4,,,,,0,9,9,9,3,3,15,1,,,,,['num_4'],,0.0527182940859,1,['num_4'],0,[0.3894091617548838],1,2018_May_06_1628,60.0263746578,sequenceLearningTask,001,099,
min1.png,min2.png,min3.png,min4.png,images/allBlank.png,images/min4.png,'num_0',"['num_7', 'num_4', 'num_1', 'num_0']",['num_0'],num_0,,,,,0,9,9,9,4,0,16,3,,,,,['num_0'],,0.0547400352079,1,['num_0'],0,[0.471513265860267],1,2018_May_06_1628,60.0263746578,sequenceLearningTask,001,099,
min1.png,min2.png,min3.png,min4.png,images/allBlank.png,images/min3.png,'num_1',"['num_7', 'num_4', 'num_1', 'num_0']",['num_1'],num_1,,,,,0,9,9,9,4,1,17,2,,,,,['num_1'],,0.0505623993231,1,['num_1'],0,[0.30629787943325937],1,2018_May_06_1628,60.0263746578,sequenceLearningTask,001,099,
min1.png,min2.png,min3.png,min4.png,images/allBlank.png,images/min2.png,'num_4',"['num_7', 'num_4', 'num_1', 'num_0']",['num_4'],num_4,,,,,0,9,9,9,4,2,18,1,,,,,['num_4'],,0.0594747986179,0,"['num_7', 'num_4']",0,"[0.3485928017180413, 0.6483179712668061]",0,2018_May_06_1628,60.0263746578,sequenceLearningTask,001,099,
min1.png,min2.png,min3.png,min4.png,images/allBlank.png,images/min1.png,'num_7',"['num_7', 'num_4', 'num_1', 'num_0']",['num_7'],num_7,,,,,0,9,9,9,4,3,19,0,,,,,['num_7'],,0.0565623919247,1,['num_7'],0,[0.653245555004105],1,2018_May_06_1628,60.0263746578,sequenceLearningTask,001,099,
min1.png,min2.png,min3.png,min4.png,images/allBlank.png,images/min3.png,'num_1',"['num_7', 'num_4', 'num_1', 'num_0']",['num_1'],num_1,,,,,0,9,9,9,5,0,20,2,,,,,['num_1'],,0.0505800403189,1,['num_1'],0,[0.37564466590993106],1,2018_May_06_1628,60.0263746578,sequenceLearningTask,001,099,
min1.png,min2.png,min3.png,min4.png,images/allBlank.png,images/min2.png,'num_4',"['num_7', 'num_4', 'num_1', 'num_0']",['num_4'],num_4,,,,,0,9,9,9,5,1,21,1,,,,,['num_4'],,0.0499950153753,0,"['num_0', 'num_4']",0,"[0.2595820394344628, 0.7261857728008181]",0,2018_May_06_1628,60.0263746578,sequenceLearningTask,001,099,
min1.png,min2.png,min3.png,min4.png,images/allBlank.png,images/min1.png,'num_7',"['num_7', 'num_4', 'num_1', 'num_0']",['num_7'],num_7,,,,,0,9,9,9,5,2,22,0,,,,,['num_7'],,0.0515847570496,0,"['num_4', 'num_0', 'num_1', 'num_7']",0,"[0.5411812826059759, 0.9724882389418781, 0.9902547812089324, 2.039753797231242]",0,2018_May_06_1628,60.0263746578,sequenceLearningTask,001,099,
min1.png,min2.png,min3.png,min4.png,images/allBlank.png,images/min4.png,'num_0',"['num_7', 'num_4', 'num_1', 'num_0']",['num_0'],num_0,,,,,0,9,9,9,5,3,23,3,,,,,['num_0'],,0.0549566503614,1,['num_0'],0,[4.80410403595306],1,2018_May_06_1628,60.0263746578,sequenceLearningTask,001,099,
min1.png,min2.png,min3.png,min4.png,images/allBlank.png,images/min1.png,'num_7',"['num_7', 'num_4', 'num_1', 'num_0']",['num_7'],num_7,,,,,0,9,9,9,6,0,24,0,,,,,['num_7'],,0.0572069039335,1,['num_7'],0,[0.48518012079875916],1,2018_May_06_1628,60.0263746578,sequenceLearningTask,001,099,
min1.png,min2.png,min3.png,min4.png,images/allBlank.png,images/min3.png,'num_1',"['num_7', 'num_4', 'num_1', 'num_0']",['num_1'],num_1,,,,,0,9,9,9,6,1,25,2,,,,,['num_1'],,0.056857365882,0,"['num_4', 'num_1']",0,"[0.4014370443765074, 0.7851760592311621]",0,2018_May_06_1628,60.0263746578,sequenceLearningTask,001,099,
min1.png,min2.png,min3.png,min4.png,images/allBlank.png,images/min4.png,'num_0',"['num_7', 'num_4', 'num_1', 'num_0']",['num_0'],num_0,,,,,0,9,9,9,6,2,26,3,,,,,['num_0'],,0.0481644535903,0,"['num_1', 'num_0']",0,"[0.4448979140724987, 0.5450405599549413]",0,2018_May_06_1628,60.0263746578,sequenceLearningTask,001,099,
min1.png,min2.png,min3.png,min4.png,images/allBlank.png,images/min2.png,'num_4',"['num_7', 'num_4', 'num_1', 'num_0']",['num_4'],num_4,,,,,0,9,9,9,6,3,27,1,,,,,['num_4'],,0.0497394258855,1,['num_4'],0,[0.8769314334494993],1,2018_May_06_1628,60.0263746578,sequenceLearningTask,001,099,
min1.png,min2.png,min3.png,min4.png,images/allBlank.png,images/min4.png,'num_0',"['num_7', 'num_4', 'num_1', 'num_0']",['num_0'],num_0,,,,,0,9,9,9,7,0,28,3,,,,,['num_0'],,0.0529402425746,0,"['num_7', 'num_4', 'num_1', 'num_0']",0,"[0.00020758947357535362, 0.5726696541532874, 0.6062646897044033, 1.0563429050380364]",0,2018_May_06_1628,60.0263746578,sequenceLearningTask,001,099,
min1.png,min2.png,min3.png,min4.png,images/allBlank.png,images/min1.png,'num_7',"['num_7', 'num_4', 'num_1', 'num_0']",['num_7'],num_7,,,,,0,9,9,9,7,1,29,0,,,,,['num_7'],,0.0557472134242,1,['num_7'],0,[0.8187669923063368],1,2018_May_06_1628,60.0263746578,sequenceLearningTask,001,099,
min1.png,min2.png,min3.png,min4.png,images/allBlank.png,images/min2.png,'num_4',"['num_7', 'num_4', 'num_1', 'num_0']",['num_4'],num_4,,,,,0,9,9,9,7,2,30,1,,,,,['num_4'],,0.0556918288348,1,['num_4'],0,[0.6699589703930542],1,2018_May_06_1628,60.0263746578,sequenceLearningTask,001,099,
min1.png,min2.png,min3.png,min4.png,images/allBlank.png,images/min3.png,'num_1',"['num_7', 'num_4', 'num_1', 'num_0']",['num_1'],num_1,,,,,0,9,9,9,7,3,31,2,,,,,['num_1'],,0.0536725494312,1,['num_1'],0,[0.5709884254029021],1,2018_May_06_1628,60.0263746578,sequenceLearningTask,001,099,
min1.png,min2.png,min3.png,min4.png,images/allBlank.png,images/min1.png,'num_7',"['num_7', 'num_4', 'num_1', 'num_0']",['num_7'],num_7,,,,,0,9,9,9,8,0,32,0,,,,,['num_7'],,0.0553718293086,0,"['num_0', 'num_7']",0,"[0.20272385305725038, 0.5529650630196556]",0,2018_May_06_1628,60.0263746578,sequenceLearningTask,001,099,
min1.png,min2.png,min3.png,min4.png,images/allBlank.png,images/min4.png,'num_0',"['num_7', 'num_4', 'num_1', 'num_0']",['num_0'],num_0,,,,,0,9,9,9,8,1,33,3,,,,,['num_0'],,0.0511396293296,1,['num_0'],0,[0.4082530359737575],1,2018_May_06_1628,60.0263746578,sequenceLearningTask,001,099,
min1.png,min2.png,min3.png,min4.png,images/allBlank.png,images/min3.png,'num_1',"['num_7', 'num_4', 'num_1', 'num_0']",['num_1'],num_1,,,,,0,9,9,9,8,2,34,2,,,,,['num_1'],,0.0501710152021,0,"['num_4', 'num_1']",0,"[0.6425583886448294, 1.1256437428528443]",0,2018_May_06_1628,60.0263746578,sequenceLearningTask,001,099,
min1.png,min2.png,min3.png,min4.png,images/allBlank.png,images/min2.png,'num_4',"['num_7', 'num_4', 'num_1', 'num_0']",['num_4'],num_4,,,,,0,9,9,9,8,3,35,1,,,,,['num_4'],,0.0539913182147,0,"['num_7', 'num_4']",0,"[0.4204729184275493, 0.7699206934776157]",0,2018_May_06_1628,60.0263746578,sequenceLearningTask,001,099,
min1.png,min2.png,min3.png,min4.png,images/allBlank.png,images/min4.png,'num_0',"['num_7', 'num_4', 'num_1', 'num_0']",['num_0'],num_0,,,,,0,9,9,9,9,0,36,3,,,,,['num_0'],,0.0524122432107,1,['num_0'],0,[0.5069954786449671],1,2018_May_06_1628,60.0263746578,sequenceLearningTask,001,099,
min1.png,min2.png,min3.png,min4.png,images/allBlank.png,images/min1.png,'num_7',"['num_7', 'num_4', 'num_1', 'num_0']",['num_7'],num_7,,,,,0,9,9,9,9,1,37,0,,,,,['num_7'],,0.0484167608665,1,['num_7'],0,[0.5780870834132656],1,2018_May_06_1628,60.0263746578,sequenceLearningTask,001,099,
min1.png,min2.png,min3.png,min4.png,images/allBlank.png,images/min2.png,'num_4',"['num_7', 'num_4', 'num_1', 'num_0']",['num_4'],num_4,,,,,0,9,9,9,9,2,38,1,,,,,['num_4'],,0.0533882420277,0,"['num_1', 'num_4']",0,"[0.3720299011329189, 0.4227203002665192]",0,2018_May_06_1628,60.0263746578,sequenceLearningTask,001,099,
min1.png,min2.png,min3.png,min4.png,images/allBlank.png,images/min3.png,'num_1',"['num_7', 'num_4', 'num_1', 'num_0']",['num_1'],num_1,,,,,0,9,9,9,9,3,39,2,,,,,['num_1'],,0.0517976798583,1,['num_1'],0,[0.32375344762112945],1,2018_May_06_1628,60.0263746578,sequenceLearningTask,001,099,
min1.png,min2.png,min3.png,min4.png,images/allBlank.png,images/min3.png,'num_1',"['num_7', 'num_4', 'num_1', 'num_0']",['num_1'],num_1,,,,,0,9,9,9,10,0,40,2,,,,,['num_1'],,0.0469299935503,0,"['num_0', 'num_1']",0,"[0.2124067129334435, 0.6293218921637163]",0,2018_May_06_1628,60.0263746578,sequenceLearningTask,001,099,
min1.png,min2.png,min3.png,min4.png,images/allBlank.png,images/min4.png,'num_0',"['num_7', 'num_4', 'num_1', 'num_0']",['num_0'],num_0,,,,,0,9,9,9,10,1,41,3,,,,,['num_0'],,0.0607511047274,0,"['num_1', 'num_0']",0,"[0.5290442719124258, 0.6634588757297024]",0,2018_May_06_1628,60.0263746578,sequenceLearningTask,001,099,
min1.png,min2.png,min3.png,min4.png,images/allBlank.png,images/min1.png,'num_7',"['num_7', 'num_4', 'num_1', 'num_0']",['num_7'],num_7,,,,,0,9,9,9,10,2,42,0,,,,,['num_7'],,0.0517390132882,1,['num_7'],0,[0.4417377127101645],1,2018_May_06_1628,60.0263746578,sequenceLearningTask,001,099,
min1.png,min2.png,min3.png,min4.png,images/allBlank.png,images/min2.png,'num_4',"['num_7', 'num_4', 'num_1', 'num_0']",['num_4'],num_4,,,,,0,9,9,9,10,3,43,1,,,,,['num_4'],,0.0505767583381,1,['num_4'],0,[0.3916360307484865],1,2018_May_06_1628,60.0263746578,sequenceLearningTask,001,099,
min1.png,min2.png,min3.png,min4.png,images/allBlank.png,images/min4.png,'num_0',"['num_7', 'num_4', 'num_1', 'num_0']",['num_0'],num_0,,,,,0,9,9,9,11,0,44,3,,,,,['num_0'],,0.0522473203018,0,"['num_1', 'num_0']",0,"[0.19031156064011157, 0.6906063295900822]",0,2018_May_06_1628,60.0263746578,sequenceLearningTask,001,099,
min1.png,min2.png,min3.png,min4.png,images/allBlank.png,images/min3.png,'num_1',"['num_7', 'num_4', 'num_1', 'num_0']",['num_1'],num_1,,,,,0,9,9,9,11,1,45,2,,,,,['num_1'],,0.0570813656086,0,"['num_7', 'num_4', 'num_7', 'num_4', 'num_7', 'num_7', 'num_4', 'num_1']",0,"[0.3666990358615294, 0.7499691281700507, 0.800467117340304, 1.2004990353016183, 1.8170988917117938, 2.4672355274669826, 2.817008225247264, 3.3003848610678688]",0,2018_May_06_1628,60.0263746578,sequenceLearningTask,001,099,
min1.png,min2.png,min3.png,min4.png,images/allBlank.png,images/min1.png,'num_7',"['num_7', 'num_4', 'num_1', 'num_0']",['num_7'],num_7,,,,,0,9,9,9,11,2,46,0,,,,,['num_7'],,0.0584639280569,1,['num_7'],0,[0.46698363043833524],1,2018_May_06_1628,60.0263746578,sequenceLearningTask,001,099,
min1.png,min2.png,min3.png,min4.png,images/allBlank.png,images/min2.png,'num_4',"['num_7', 'num_4', 'num_1', 'num_0']",['num_4'],num_4,,,,,0,9,9,9,11,3,47,1,,,,,['num_4'],,0.0531626011943,0,"['num_1', 'num_1', 'num_7', 'num_4']",0,"[0.6910165854496881, 1.556469468981959, 2.340226863278076, 2.4064536535879597]",0,2018_May_06_1628,60.0263746578,sequenceLearningTask,001,099,
min1.png,min2.png,min3.png,min4.png,images/allBlank.png,images/min3.png,'num_1',"['num_7', 'num_4', 'num_1', 'num_0']",['num_1'],num_1,,,,,0,9,9,9,12,0,48,2,,,,,['num_1'],,0.0549615733325,1,['num_1'],0,[0.5201622316380963],1,2018_May_06_1628,60.0263746578,sequenceLearningTask,001,099,
min1.png,min2.png,min3.png,min4.png,images/allBlank.png,images/min4.png,'num_0',"['num_7', 'num_4', 'num_1', 'num_0']",['num_0'],num_0,,,,,0,9,9,9,12,1,49,3,,,,,['num_0'],,0.0539958309382,1,['num_0'],0,[0.4219285063445568],1,2018_May_06_1628,60.0263746578,sequenceLearningTask,001,099,
min1.png,min2.png,min3.png,min4.png,images/allBlank.png,images/min1.png,'num_7',"['num_7', 'num_4', 'num_1', 'num_0']",['num_7'],num_7,,,,,0,9,9,9,12,2,50,0,,,,,['num_7'],,0.0550821885699,1,['num_7'],0,[0.47012783167883754],1,2018_May_06_1628,60.0263746578,sequenceLearningTask,001,099,
min1.png,min2.png,min3.png,min4.png,images/allBlank.png,images/min2.png,'num_4',"['num_7', 'num_4', 'num_1', 'num_0']",['num_4'],num_4,,,,,0,9,9,9,12,3,51,1,,,,,['num_4'],,0.0518071157858,1,['num_4'],0,[0.5749617539113387],1,2018_May_06_1628,60.0263746578,sequenceLearningTask,001,099,
min1.png,min2.png,min3.png,min4.png,images/allBlank.png,images/min4.png,'num_0',"['num_7', 'num_4', 'num_1', 'num_0']",['num_0'],num_0,,,,,0,9,9,9,13,0,52,3,,,,,['num_0'],,0.0543457792373,0,"['num_1', 'num_0']",0,"[0.6702092264313251, 0.686681411229074]",0,2018_May_06_1628,60.0263746578,sequenceLearningTask,001,099,
min1.png,min2.png,min3.png,min4.png,images/allBlank.png,images/min1.png,'num_7',"['num_7', 'num_4', 'num_1', 'num_0']",['num_7'],num_7,,,,,0,9,9,9,13,1,53,0,,,,,['num_7'],,0.057583929156,1,['num_7'],0,[0.669109740643762],1,2018_May_06_1628,60.0263746578,sequenceLearningTask,001,099,
min1.png,min2.png,min3.png,min4.png,images/allBlank.png,images/min2.png,'num_4',"['num_7', 'num_4', 'num_1', 'num_0']",['num_4'],num_4,,,,,0,9,9,9,13,2,54,1,,,,,['num_4'],,0.0559662901796,1,['num_4'],0,[0.5184818234993145],1,2018_May_06_1628,60.0263746578,sequenceLearningTask,001,099,
min1.png,min2.png,min3.png,min4.png,images/allBlank.png,images/min3.png,'num_1',"['num_7', 'num_4', 'num_1', 'num_0']",['num_1'],num_1,,,,,0,9,9,9,13,3,55,2,,,,,['num_1'],,0.0561037258012,1,['num_1'],0,[0.4352072592591867],1,2018_May_06_1628,60.0263746578,sequenceLearningTask,001,099,
min1.png,min2.png,min3.png,min4.png,images/allBlank.png,images/min1.png,'num_7',"['num_7', 'num_4', 'num_1', 'num_0']",['num_7'],num_7,,,,,0,9,9,9,14,0,56,0,,,,,['num_7'],,0.0516106031137,0,"['num_0', 'num_7']",0,"[0.5409585137385875, 1.0072619398124516]",0,2018_May_06_1628,60.0263746578,sequenceLearningTask,001,099,
min1.png,min2.png,min3.png,min4.png,images/allBlank.png,images/min3.png,'num_1',"['num_7', 'num_4', 'num_1', 'num_0']",['num_1'],num_1,,,,,0,9,9,9,14,1,57,2,,,,,['num_1'],,0.0498099899851,1,['num_1'],0,[0.6094597626943141],1,2018_May_06_1628,60.0263746578,sequenceLearningTask,001,099,
min1.png,min2.png,min3.png,min4.png,images/allBlank.png,images/min2.png,'num_4',"['num_7', 'num_4', 'num_1', 'num_0']",['num_4'],num_4,,,,,0,9,9,9,14,2,58,1,,,,,['num_4'],,0.0499966563657,0,"['num_7', 'num_4']",0,"[0.7096110241254792, 1.2944665093673393]",0,2018_May_06_1628,60.0263746578,sequenceLearningTask,001,099,
min1.png,min2.png,min3.png,min4.png,images/allBlank.png,images/min4.png,'num_0',"['num_7', 'num_4', 'num_1', 'num_0']",['num_0'],num_0,,,,,0,9,9,9,14,3,59,3,,,,,['num_0'],,0.0540007540258,0,"['num_1', 'num_0', 'num_0']",0,"[0.6396788024576381, 1.1889794598100707]",0,2018_May_06_1628,60.0263746578,sequenceLearningTask,001,099,
min1.png,min2.png,min3.png,min4.png,images/allBlank.png,images/min1.png,'num_7',"['num_7', 'num_4', 'num_1', 'num_0']",['num_7'],num_7,,,,,0,9,9,9,15,0,60,0,,,,,['num_7'],,0.0298982195091,1,['num_7'],0,[0.9652131710899994],1,2018_May_06_1628,60.0263746578,sequenceLearningTask,001,099,
min1.png,min2.png,min3.png,min4.png,images/allBlank.png,images/min2.png,'num_4',"['num_7', 'num_4', 'num_1', 'num_0']",['num_4'],num_4,,,,,0,9,9,9,15,1,61,1,,,,,['num_4'],,0.0588885429315,1,['num_4'],0,[0.3823199396720156],1,2018_May_06_1628,60.0263746578,sequenceLearningTask,001,099,
min1.png,min2.png,min3.png,min4.png,images/allBlank.png,images/min4.png,'num_0',"['num_7', 'num_4', 'num_1', 'num_0']",['num_0'],num_0,,,,,0,9,9,9,15,2,62,3,,,,,['num_0'],,0.0534579855157,0,"['num_1', 'num_0']",0,"[0.388461880851537, 0.8226168337278068]",0,2018_May_06_1628,60.0263746578,sequenceLearningTask,001,099,
min1.png,min2.png,min3.png,min4.png,images/allBlank.png,images/min3.png,'num_1',"['num_7', 'num_4', 'num_1', 'num_0']",['num_1'],num_1,,,,,0,9,9,9,15,3,63,2,,,,,['num_1'],,0.0524561406346,0,"['num_4', 'num_1']",0,"[0.7569758888566867, 1.1407473139697686]",0,2018_May_06_1628,60.0263746578,sequenceLearningTask,001,099,
min1.png,min2.png,min3.png,min4.png,images/allBlank.png,images/min1.png,'num_7',"['num_7', 'num_4', 'num_1', 'num_0']",['num_7'],num_7,,,,,0,9,9,9,16,0,64,0,,,,,['num_7'],,0.0569632119732,1,['num_7'],0,[0.5010168192675337],1,2018_May_06_1628,60.0263746578,sequenceLearningTask,001,099,
min1.png,min2.png,min3.png,min4.png,images/allBlank.png,images/min4.png,'num_0',"['num_7', 'num_4', 'num_1', 'num_0']",['num_0'],num_0,,,,,0,9,9,9,16,1,65,3,,,,,['num_0'],,0.0525509096915,1,['num_0'],0,[0.6888783316826448],1,2018_May_06_1628,60.0263746578,sequenceLearningTask,001,099,
min1.png,min2.png,min3.png,min4.png,images/allBlank.png,images/min2.png,'num_4',"['num_7', 'num_4', 'num_1', 'num_0']",['num_4'],num_4,,,,,0,9,9,9,16,2,66,1,,,,,['num_4'],,0.0551822910784,1,['num_4'],0,[0.6542063743108884],1,2018_May_06_1628,60.0263746578,sequenceLearningTask,001,099,
min1.png,min2.png,min3.png,min4.png,images/allBlank.png,images/min3.png,'num_1',"['num_7', 'num_4', 'num_1', 'num_0']",['num_1'],num_1,,,,,0,9,9,9,16,3,67,2,,,,,['num_1'],,0.0527613708982,1,['num_1'],0,[0.45595882344059646],1,2018_May_06_1628,60.0263746578,sequenceLearningTask,001,099,
min1.png,min2.png,min3.png,min4.png,images/allBlank.png,images/min3.png,'num_1',"['num_7', 'num_4', 'num_1', 'num_0']",['num_1'],num_1,,,,,0,9,9,9,17,0,68,2,,,,,['num_1'],,0.0518657823559,1,['num_1'],0,[0.5399045662488788],1,2018_May_06_1628,60.0263746578,sequenceLearningTask,001,099,
min1.png,min2.png,min3.png,min4.png,images/allBlank.png,images/min1.png,'num_7',"['num_7', 'num_4', 'num_1', 'num_0']",['num_7'],num_7,,,,,0,9,9,9,17,1,69,0,,,,,['num_7'],,0.0538674208801,0,"['num_0', 'num_7']",0,"[0.00021005107555538416, 0.5059054285520688]",0,2018_May_06_1628,60.0263746578,sequenceLearningTask,001,099,
min1.png,min2.png,min3.png,min4.png,images/allBlank.png,images/min2.png,'num_4',"['num_7', 'num_4', 'num_1', 'num_0']",['num_4'],num_4,,,,,0,9,9,9,17,2,70,1,,,,,['num_4'],,0.0581898770761,1,['num_4'],0,[0.4838492505950853],1,2018_May_06_1628,60.0263746578,sequenceLearningTask,001,099,
min1.png,min2.png,min3.png,min4.png,images/allBlank.png,images/min4.png,'num_0',"['num_7', 'num_4', 'num_1', 'num_0']",['num_0'],num_0,,,,,0,9,9,9,17,3,71,3,,,,,['num_0'],,0.0494382980978,1,['num_0'],0,[0.3439991663908586],1,2018_May_06_1628,60.0263746578,sequenceLearningTask,001,099,
min1.png,min2.png,min3.png,min4.png,images/allBlank.png,images/min4.png,'num_0',"['num_7', 'num_4', 'num_1', 'num_0']",['num_0'],num_0,,,,,0,9,9,9,18,0,72,3,,,,,['num_0'],,0.0513123470591,0,"['num_1', 'num_0']",0,"[0.5406266166828573, 0.5578257750021294]",0,2018_May_06_1628,60.0263746578,sequenceLearningTask,001,099,
min1.png,min2.png,min3.png,min4.png,images/allBlank.png,images/min1.png,'num_7',"['num_7', 'num_4', 'num_1', 'num_0']",['num_7'],num_7,,,,,0,9,9,9,18,1,73,0,,,,,['num_7'],,0.0582821846474,0,"['num_1', 'num_7']",0,"[0.3496832619421184, 0.6667499486356974]",0,2018_May_06_1628,60.0263746578,sequenceLearningTask,001,099,
min1.png,min2.png,min3.png,min4.png,images/allBlank.png,images/min3.png,'num_1',"['num_7', 'num_4', 'num_1', 'num_0']",['num_1'],num_1,,,,,0,9,9,9,18,2,74,2,,,,,['num_1'],,0.0554333677283,1,['num_1'],0,[0.41926061210688204],1,2018_May_06_1628,60.0263746578,sequenceLearningTask,001,099,
min1.png,min2.png,min3.png,min4.png,images/allBlank.png,images/min2.png,'num_4',"['num_7', 'num_4', 'num_1', 'num_0']",['num_4'],num_4,,,,,0,9,9,9,18,3,75,1,,,,,['num_4'],,0.0558702901471,1,['num_4'],0,[0.5707139641745016],1,2018_May_06_1628,60.0263746578,sequenceLearningTask,001,099,
min1.png,min2.png,min3.png,min4.png,images/allBlank.png,images/min4.png,'num_0',"['num_7', 'num_4', 'num_1', 'num_0']",['num_0'],num_0,,,,,0,9,9,9,19,0,76,3,,,,,['num_0'],,0.0591047478374,1,['num_0'],0,[0.43326962052378803],1,2018_May_06_1628,60.0263746578,sequenceLearningTask,001,099,
min1.png,min2.png,min3.png,min4.png,images/allBlank.png,images/min1.png,'num_7',"['num_7', 'num_4', 'num_1', 'num_0']",['num_7'],num_7,,,,,0,9,9,9,19,1,77,0,,,,,['num_7'],,0.0515781928552,1,['num_7'],0,[0.6251897945767269],1,2018_May_06_1628,60.0263746578,sequenceLearningTask,001,099,
min1.png,min2.png,min3.png,min4.png,images/allBlank.png,images/min3.png,'num_1',"['num_7', 'num_4', 'num_1', 'num_0']",['num_1'],num_1,,,,,0,9,9,9,19,2,78,2,,,,,['num_1'],,0.0503753225785,0,"['num_4', 'num_1']",0,"[0.00023876898922026157, 0.40890821465291083]",0,2018_May_06_1628,60.0263746578,sequenceLearningTask,001,099,
min1.png,min2.png,min3.png,min4.png,images/allBlank.png,images/min2.png,'num_4',"['num_7', 'num_4', 'num_1', 'num_0']",['num_4'],num_4,,,,,0,9,9,9,19,3,79,1,,,,,['num_4'],,0.0501771690324,0,"['num_4', 'num_7', 'num_4']",0,"[0.0002276919549331069, 0.5429921521572396, 0.9595266139367595]",0,2018_May_06_1628,60.0263746578,sequenceLearningTask,001,099,
min1.png,min2.png,min3.png,min4.png,allBlank.png,,,,['num_7'],,,,,,0,0,0,0,,,,,,,,,['num_7'],1,0.0566432123305,1,['num_7'],0,[0.5236887913197279],,2018_May_06_1628,60.0263746578,sequenceLearningTask,001,099,
min1.png,min2.png,min3.png,min4.png,allBlank.png,,,,['num_1'],,,,,,0,0,0,0,,,,,,,,,['num_1'],1,0.0591966450447,1,['num_1'],0,[0.35161925957072526],,2018_May_06_1628,60.0263746578,sequenceLearningTask,001,099,
min1.png,min2.png,min3.png,min4.png,allBlank.png,,,,['num_4'],,,,,,0,0,0,0,,,,,,,,,['num_4'],1,0.0548101889435,1,['num_4'],0,[0.5553269062656909],,2018_May_06_1628,60.0263746578,sequenceLearningTask,001,099,
min1.png,min2.png,min3.png,min4.png,allBlank.png,,,,['num_0'],,,,,,0,0,0,0,,,,,,,,,['num_0'],1,0.0489107089816,1,['num_0'],0,[0.41226780030410737],,2018_May_06_1628,60.0263746578,sequenceLearningTask,001,099,
min1.png,min2.png,min3.png,min4.png,allBlank.png,,,,['num_0'],,,,,,0,0,0,0,,,,,,,,,['num_0'],1,0.057439518976,1,['num_0'],0,[0.4877495535183698],,2018_May_06_1628,60.0263746578,sequenceLearningTask,001,099,
min1.png,min2.png,min3.png,min4.png,allBlank.png,,,,['num_4'],,,,,,0,0,0,0,,,,,,,,,['num_4'],1,0.0578341851942,0,"['num_7', 'num_4']",0,"[0.4196216374402866, 0.819788119290024]",,2018_May_06_1628,60.0263746578,sequenceLearningTask,001,099,
min1.png,min2.png,min3.png,min4.png,allBlank.png,,,,['num_1'],,,,,,0,0,0,0,,,,,,,,,['num_1'],1,0.0590592094231,1,['num_1'],0,[0.434548388235271],,2018_May_06_1628,60.0263746578,sequenceLearningTask,001,099,
min1.png,min2.png,min3.png,min4.png,allBlank.png,,,,['num_0'],,,,,,0,0,0,0,,,,,,,,,['num_0'],1,0.0536692672176,1,['num_0'],0,[0.340834042057395],,2018_May_06_1628,60.0263746578,sequenceLearningTask,001,099,
min1.png,min2.png,min3.png,min4.png,allBlank.png,,,,['num_7'],,,,,,0,1,1,1,,,,,,,,,['num_7'],2,0.0529119347921,1,['num_7'],0,[0.40646678174380213],,2018_May_06_1628,60.0263746578,sequenceLearningTask,001,099,
min1.png,min2.png,min3.png,min4.png,allBlank.png,,,,['num_1'],,,,,,0,1,1,1,,,,,,,,,['num_1'],2,0.0507585016312,0,"['num_4', 'num_1', 'num_1']",0,"[0.42759619164280593, 0.8611045811558142]",,2018_May_06_1628,60.0263746578,sequenceLearningTask,001,099,
min1.png,min2.png,min3.png,min4.png,allBlank.png,,,,['num_4'],,,,,,0,1,1,1,,,,,,,,,['num_4'],2,0.0582222873345,0,"['num_4', 'num_7', 'num_4']",0,"[0.0002879996318370104, 0.4860465811798349, 0.803528857184574]",,2018_May_06_1628,60.0263746578,sequenceLearningTask,001,099,
min1.png,min2.png,min3.png,min4.png,allBlank.png,,,,['num_0'],,,,,,0,1,1,1,,,,,,,,,['num_0'],2,0.0539818822872,1,['num_0'],0,[0.3576980213401839],,2018_May_06_1628,60.0263746578,sequenceLearningTask,001,099,
min1.png,min2.png,min3.png,min4.png,allBlank.png,,,,['num_0'],,,,,,0,1,1,1,,,,,,,,,['num_0'],2,0.059409978101,1,['num_0'],0,[0.6346917316550389],,2018_May_06_1628,60.0263746578,sequenceLearningTask,001,099,
min1.png,min2.png,min3.png,min4.png,allBlank.png,,,,['num_4'],,,,,,0,1,1,1,,,,,,,,,['num_4'],2,0.0564733664505,0,"['num_7', 'num_4']",0,"[0.5036309699062258, 0.8049495733575895]",,2018_May_06_1628,60.0263746578,sequenceLearningTask,001,099,
min1.png,min2.png,min3.png,min4.png,allBlank.png,,,,['num_1'],,,,,,0,1,1,1,,,,,,,,,['num_1'],2,0.055983931059,0,"['num_4', 'num_1']",0,"[0.42079291795380414, 0.7713602813892066]",,2018_May_06_1628,60.0263746578,sequenceLearningTask,001,099,
min1.png,min2.png,min3.png,min4.png,allBlank.png,,,,['num_0'],,,,,,0,1,1,1,,,,,,,,,['num_0'],2,0.0613094629953,1,['num_0'],0,[0.4492376010166481],,2018_May_06_1628,60.0263746578,sequenceLearningTask,001,099,
min1.png,min2.png,min3.png,min4.png,allBlank.png,,,,['num_7'],,,,,,0,2,2,2,,,,,,,,,['num_7'],3,0.0554079317953,1,['num_7'],0,[0.4370862313080579],,2018_May_06_1628,60.0263746578,sequenceLearningTask,001,099,
min1.png,min2.png,min3.png,min4.png,allBlank.png,,,,['num_1'],,,,,,0,2,2,2,,,,,,,,,['num_1'],3,0.0676220706664,0,"['num_4', 'num_1']",0,"[0.3751929741119966, 0.7589127069804817]",,2018_May_06_1628,60.0263746578,sequenceLearningTask,001,099,
min1.png,min2.png,min3.png,min4.png,allBlank.png,,,,['num_4'],,,,,,0,2,2,2,,,,,,,,,['num_4'],3,0.0506300915731,1,['num_4'],0,[0.5772386741591617],,2018_May_06_1628,60.0263746578,sequenceLearningTask,001,099,
min1.png,min2.png,min3.png,min4.png,allBlank.png,,,,['num_0'],,,,,,0,2,2,2,,,,,,,,,['num_0'],3,0.0550891630119,0,"['num_1', 'num_0']",0,"[0.40507027064450085, 0.7049784143455327]",,2018_May_06_1628,60.0263746578,sequenceLearningTask,001,099,
min1.png,min2.png,min3.png,min4.png,allBlank.png,,,,['num_0'],,,,,,0,2,2,2,,,,,,,,,['num_0'],3,0.0492110163905,0,"['num_1', 'num_0']",0,"[0.4956514926161617, 0.5456034310627729]",,2018_May_06_1628,60.0263746578,sequenceLearningTask,001,099,
min1.png,min2.png,min3.png,min4.png,allBlank.png,,,,['num_4'],,,,,,0,2,2,2,,,,,,,,,['num_4'],3,0.0520840384997,0,"['num_7', 'num_4']",0,"[0.47569705557543784, 0.8601162747945637]",,2018_May_06_1628,60.0263746578,sequenceLearningTask,001,099,
min1.png,min2.png,min3.png,min4.png,allBlank.png,,,,['num_1'],,,,,,0,2,2,2,,,,,,,,,['num_1'],3,0.0642920234241,1,['num_1'],0,[0.38049183937255293],,2018_May_06_1628,60.0263746578,sequenceLearningTask,001,099,
min1.png,min2.png,min3.png,min4.png,allBlank.png,,,,['num_0'],,,,,,0,2,2,2,,,,,,,,,['num_0'],3,0.0560282387305,1,['num_0'],0,[0.5382270298432559],,2018_May_06_1628,60.0263746578,sequenceLearningTask,001,099,
min1.png,min2.png,min3.png,min4.png,allBlank.png,,,,['num_7'],,,,,,0,3,3,3,,,,,,,,,['num_7'],4,0.0481053767726,1,['num_7'],0,[0.4118349802447483],,2018_May_06_1628,60.0263746578,sequenceLearningTask,001,099,
min1.png,min2.png,min3.png,min4.png,allBlank.png,,,,['num_1'],,,,,,0,3,3,3,,,,,,,,,['num_1'],4,0.0600126440404,1,['num_1'],0,[0.7335231998004019],,2018_May_06_1628,60.0263746578,sequenceLearningTask,001,099,
min1.png,min2.png,min3.png,min4.png,allBlank.png,,,,['num_4'],,,,,,0,3,3,3,,,,,,,,,['num_4'],4,0.0545628046384,0,"['num_7', 'num_4']",0,"[0.7731752535328269, 1.1070008939132094]",,2018_May_06_1628,60.0263746578,sequenceLearningTask,001,099,
min1.png,min2.png,min3.png,min4.png,allBlank.png,,,,['num_0'],,,,,,0,3,3,3,,,,,,,,,['num_0'],4,0.0627691535046,1,['num_0'],0,[0.5129782403819263],,2018_May_06_1628,60.0263746578,sequenceLearningTask,001,099,
min1.png,min2.png,min3.png,min4.png,allBlank.png,,,,['num_0'],,,,,,0,3,3,3,,,,,,,,,['num_0'],4,0.0556278289296,1,['num_0'],0,[0.4395744332578033],,2018_May_06_1628,60.0263746578,sequenceLearningTask,001,099,
min1.png,min2.png,min3.png,min4.png,allBlank.png,,,,['num_4'],,,,,,0,3,3,3,,,,,,,,,['num_4'],4,0.0534961393569,0,"['num_7', 'num_4']",0,"[0.47435223672073334, 0.875097589683719]",,2018_May_06_1628,60.0263746578,sequenceLearningTask,001,099,
min1.png,min2.png,min3.png,min4.png,allBlank.png,,,,['num_1'],,,,,,0,3,3,3,,,,,,,,,['num_1'],4,0.0560799309751,1,['num_1'],0,[0.6721472752979025],,2018_May_06_1628,60.0263746578,sequenceLearningTask,001,099,
min1.png,min2.png,min3.png,min4.png,allBlank.png,,,,['num_0'],,,,,,0,3,3,3,,,,,,,,,['num_0'],4,0.0561463923659,1,['num_0'],0,[0.48789888666942716],,2018_May_06_1628,60.0263746578,sequenceLearningTask,001,099,
min1.png,min2.png,min3.png,min4.png,allBlank.png,,,,['num_7'],,,,,,0,4,4,4,,,,,,,,,['num_7'],5,0.0788339542923,1,['num_7'],0,[0.4926496500847861],,2018_May_06_1628,60.0263746578,sequenceLearningTask,001,099,
min1.png,min2.png,min3.png,min4.png,allBlank.png,,,,['num_1'],,,,,,0,4,4,4,,,,,,,,,['num_1'],5,0.053724651807,1,['num_1'],0,[0.35719176556449383],,2018_May_06_1628,60.0263746578,sequenceLearningTask,001,099,
min1.png,min2.png,min3.png,min4.png,allBlank.png,,,,['num_4'],,,,,,0,4,4,4,,,,,,,,,['num_4'],5,0.0598272084026,0,"['num_1', 'num_7', 'num_4']",0,"[0.41796420351602137, 0.5673843274125829, 0.667926152353175]",,2018_May_06_1628,60.0263746578,sequenceLearningTask,001,099,
min1.png,min2.png,min3.png,min4.png,allBlank.png,,,,['num_0'],,,,,,0,4,4,4,,,,,,,,,['num_0'],5,0.0632495632162,1,['num_0'],0,[0.7972125572850928],,2018_May_06_1628,60.0263746578,sequenceLearningTask,001,099,
min1.png,min2.png,min3.png,min4.png,allBlank.png,,,,['num_0'],,,,,,0,4,4,4,,,,,,,,,['num_0'],5,0.053086703876,0,"['num_1', 'num_0']",0,"[0.7073070269543678, 1.107743046944961]",,2018_May_06_1628,60.0263746578,sequenceLearningTask,001,099,
min1.png,min2.png,min3.png,min4.png,allBlank.png,,,,['num_4'],,,,,,0,4,4,4,,,,,,,,,['num_4'],5,0.0566066995962,0,"['num_0', 'num_4']",0,"[0.4053504754556343, 0.9386983319418505]",,2018_May_06_1628,60.0263746578,sequenceLearningTask,001,099,
min1.png,min2.png,min3.png,min4.png,allBlank.png,,,,['num_1'],,,,,,0,4,4,4,,,,,,,,,['num_1'],5,0.0575207497459,0,"['num_4', 'num_1']",0,"[0.6541349897161126, 0.7866825188975781]",,2018_May_06_1628,60.0263746578,sequenceLearningTask,001,099,
min1.png,min2.png,min3.png,min4.png,allBlank.png,,,,['num_0'],,,,,,0,4,4,4,,,,,,,,,['num_0'],5,0.0563396229409,1,['num_0'],0,[0.45410651806741953],,2018_May_06_1628,60.0263746578,sequenceLearningTask,001,099,
min1.png,min2.png,min3.png,min4.png,allBlank.png,,,,['num_7'],,,,,,0,5,5,5,,,,,,,,,['num_7'],6,0.0570990066044,1,['num_7'],0,[0.4838837122078985],,2018_May_06_1628,60.0263746578,sequenceLearningTask,001,099,
min1.png,min2.png,min3.png,min4.png,allBlank.png,,,,['num_1'],,,,,,0,5,5,5,,,,,,,,,['num_1'],6,0.0583392103435,0,"['num_0', 'num_1']",0,"[0.436298539978452, 0.8521232589846477]",,2018_May_06_1628,60.0263746578,sequenceLearningTask,001,099,
min1.png,min2.png,min3.png,min4.png,allBlank.png,,,,['num_4'],,,,,,0,5,5,5,,,,,,,,,['num_4'],6,0.0562079307856,1,['num_4'],0,[0.5712189893238246],,2018_May_06_1628,60.0263746578,sequenceLearningTask,001,099,
min1.png,min2.png,min3.png,min4.png,allBlank.png,,,,['num_0'],,,,,,0,5,5,5,,,,,,,,,['num_0'],6,0.0581205438357,1,['num_0'],0,[0.4847013521939516],,2018_May_06_1628,60.0263746578,sequenceLearningTask,001,099,
min1.png,min2.png,min3.png,min4.png,allBlank.png,,,,['num_0'],,,,,,0,5,5,5,,,,,,,,,['num_0'],6,0.0587490558391,0,"['num_1', 'num_0']",0,"[0.6343717320123687, 0.9354162845993415]",,2018_May_06_1628,60.0263746578,sequenceLearningTask,001,099,
min1.png,min2.png,min3.png,min4.png,allBlank.png,,,,['num_4'],,,,,,0,5,5,5,,,,,,,,,['num_4'],6,0.057970800437,0,"['num_7', 'num_4']",0,"[0.5199337190715596, 0.9031533499946818]",,2018_May_06_1628,60.0263746578,sequenceLearningTask,001,099,
min1.png,min2.png,min3.png,min4.png,allBlank.png,,,,['num_1'],,,,,,0,5,5,5,,,,,,,,,['num_1'],6,0.0589870042168,0,"['num_1', 'num_1']",0,"[0.0005033839261159301, 0.6011771062621847]",,2018_May_06_1628,60.0263746578,sequenceLearningTask,001,099,
min1.png,min2.png,min3.png,min4.png,allBlank.png,,,,['num_0'],,,,,,0,5,5,5,,,,,,,,,['num_0'],6,0.0514103983296,0,"['num_4', 'num_0']",0,"[0.00032738421577960253, 0.45999738259706646]",,2018_May_06_1628,60.0263746578,sequenceLearningTask,001,099,
min1.png,min2.png,min3.png,min4.png,allBlank.png,,,,['num_7'],,,,,,0,6,6,6,,,,,,,,,['num_7'],7,0.0507129632169,1,['num_7'],0,[0.375743537559174],,2018_May_06_1628,60.0263746578,sequenceLearningTask,001,099,
min1.png,min2.png,min3.png,min4.png,allBlank.png,,,,['num_1'],,,,,,0,6,6,6,,,,,,,,,['num_1'],7,0.0515740903793,1,['num_1'],0,[0.44256478862371296],,2018_May_06_1628,60.0263746578,sequenceLearningTask,001,099,
min1.png,min2.png,min3.png,min4.png,allBlank.png,,,,['num_4'],,,,,,0,6,6,6,,,,,,,,,['num_4'],7,0.0555761368014,1,['num_4'],0,[0.5887336344458163],,2018_May_06_1628,60.0263746578,sequenceLearningTask,001,099,
min1.png,min2.png,min3.png,min4.png,allBlank.png,,,,['num_0'],,,,,,0,6,6,6,,,,,,,,,['num_0'],7,0.0593697731383,1,['num_0'],0,[0.3362867656396702],,2018_May_06_1628,60.0263746578,sequenceLearningTask,001,099,
min1.png,min2.png,min3.png,min4.png,allBlank.png,,,,['num_0'],,,,,,0,6,6,6,,,,,,,,,['num_0'],7,0.0549139836803,1,['num_0'],0,[0.5060235823038965],,2018_May_06_1628,60.0263746578,sequenceLearningTask,001,099,
min1.png,min2.png,min3.png,min4.png,allBlank.png,,,,['num_4'],,,,,,0,6,6,6,,,,,,,,,['num_4'],7,0.0602612590883,0,"['num_7', 'num_4']",0,"[0.3017239363398403, 0.7011708293575794]",,2018_May_06_1628,60.0263746578,sequenceLearningTask,001,099,
min1.png,min2.png,min3.png,min4.png,allBlank.png,,,,['num_1'],,,,,,0,6,6,6,,,,,,,,,['num_1'],7,0.0565882381052,0,"['num_4', 'num_1']",0,"[0.5544965482549742, 0.9374105385504663]",,2018_May_06_1628,60.0263746578,sequenceLearningTask,001,099,
min1.png,min2.png,min3.png,min4.png,allBlank.png,,,,['num_0'],,,,,,0,6,6,6,,,,,,,,,['num_0'],7,0.0538493696367,1,['num_0'],0,[0.49053642188664526],,2018_May_06_1628,60.0263746578,sequenceLearningTask,001,099,
min1.png,min2.png,min3.png,min4.png,allBlank.png,,,,['num_7'],,,,,,0,7,7,7,,,,,,,,,['num_7'],8,0.0550021886593,0,"['num_1', 'num_7']",0,"[0.0003048201324418187, 0.4547707223100588]",,2018_May_06_1628,60.0263746578,sequenceLearningTask,001,099,
min1.png,min2.png,min3.png,min4.png,allBlank.png,,,,['num_1'],,,,,,0,7,7,7,,,,,,,,,['num_1'],8,0.0573291601613,0,"['num_4', 'num_1']",0,"[0.3375737383030355, 0.7537135338643566]",,2018_May_06_1628,60.0263746578,sequenceLearningTask,001,099,
min1.png,min2.png,min3.png,min4.png,allBlank.png,,,,['num_4'],,,,,,0,7,7,7,,,,,,,,,['num_4'],8,0.0590981837595,1,['num_4'],0,[0.501389741897583],,2018_May_06_1628,60.0263746578,sequenceLearningTask,001,099,
min1.png,min2.png,min3.png,min4.png,allBlank.png,,,,['num_0'],,,,,,0,7,7,7,,,,,,,,,['num_0'],8,0.0510805525118,1,['num_0'],0,[0.4431867365492508],,2018_May_06_1628,60.0263746578,sequenceLearningTask,001,099,
min1.png,min2.png,min3.png,min4.png,allBlank.png,,,,['num_0'],,,,,,0,7,7,7,,,,,,,,,['num_0'],8,0.0598961313954,1,['num_0'],0,[0.6008850040379912],,2018_May_06_1628,60.0263746578,sequenceLearningTask,001,099,
min1.png,min2.png,min3.png,min4.png,allBlank.png,,,,['num_4'],,,,,,0,7,7,7,,,,,,,,,['num_4'],8,0.0483490687329,1,['num_4'],0,[0.7631982401944697],,2018_May_06_1628,60.0263746578,sequenceLearningTask,001,099,
min1.png,min2.png,min3.png,min4.png,allBlank.png,,,,['num_1'],,,,,,0,7,7,7,,,,,,,,,['num_1'],8,0.0516618852271,0,"['num_4', 'num_1']",0,"[0.5264243776910007, 0.6094076602021232]",,2018_May_06_1628,60.0263746578,sequenceLearningTask,001,099,
min1.png,min2.png,min3.png,min4.png,allBlank.png,,,,['num_0'],,,,,,0,7,7,7,,,,,,,,,['num_0'],8,0.0535256776493,1,['num_0'],0,[0.4253471688134596],,2018_May_06_1628,60.0263746578,sequenceLearningTask,001,099,
min1.png,min2.png,min3.png,min4.png,allBlank.png,,,,['num_7'],,,,,,0,8,8,8,,,,,,,,,['num_7'],9,0.0548471119255,1,['num_7'],0,[0.35442376893479377],,2018_May_06_1628,60.0263746578,sequenceLearningTask,001,099,
min1.png,min2.png,min3.png,min4.png,allBlank.png,,,,['num_1'],,,,,,0,8,8,8,,,,,,,,,['num_1'],9,0.0607703867136,1,['num_1'],0,[0.4496687799692154],,2018_May_06_1628,60.0263746578,sequenceLearningTask,001,099,
min1.png,min2.png,min3.png,min4.png,allBlank.png,,,,['num_4'],,,,,,0,8,8,8,,,,,,,,,['num_4'],9,0.048360966146,0,"['num_0', 'num_4']",0,"[0.34637331729754806, 0.846890855114907]",,2018_May_06_1628,60.0263746578,sequenceLearningTask,001,099,
min1.png,min2.png,min3.png,min4.png,allBlank.png,,,,['num_0'],,,,,,0,8,8,8,,,,,,,,,['num_0'],9,0.0541886512656,0,"['num_1', 'num_0']",0,"[0.53901800327003, 0.9055521163390949]",,2018_May_06_1628,60.0263746578,sequenceLearningTask,001,099,
min1.png,min2.png,min3.png,min4.png,allBlank.png,,,,['num_0'],,,,,,0,8,8,8,,,,,,,,,['num_0'],9,0.0540877282619,1,['num_0'],0,[0.4902434991672635],,2018_May_06_1628,60.0263746578,sequenceLearningTask,001,099,
min1.png,min2.png,min3.png,min4.png,allBlank.png,,,,['num_4'],,,,,,0,8,8,8,,,,,,,,,['num_4'],9,0.0554333676118,0,"['num_7', 'num_4']",0,"[0.43835433234926313, 0.8386988652637228]",,2018_May_06_1628,60.0263746578,sequenceLearningTask,001,099,
min1.png,min2.png,min3.png,min4.png,allBlank.png,,,,['num_1'],,,,,,0,8,8,8,,,,,,,,,['num_1'],9,0.0590616709087,1,['num_1'],0,[0.4680478342343122],,2018_May_06_1628,60.0263746578,sequenceLearningTask,001,099,
min1.png,min2.png,min3.png,min4.png,allBlank.png,,,,['num_0'],,,,,,0,8,8,8,,,,,,,,,['num_0'],9,0.0549993169261,1,['num_0'],0,[0.47235511092003435],,2018_May_06_1628,60.0263746578,sequenceLearningTask,001,099,
min1.png,min2.png,min3.png,min4.png,allBlank.png,,,,['num_7'],,,,,,0,9,9,9,,,,,,,,,['num_7'],10,0.0512524497462,0,"['num_4', 'num_7']",0,"[0.39112567249685526, 0.7576281958026811]",,2018_May_06_1628,60.0263746578,sequenceLearningTask,001,099,
min1.png,min2.png,min3.png,min4.png,allBlank.png,,,,['num_1'],,,,,,0,9,9,9,,,,,,,,,['num_1'],10,0.0507523478009,1,['num_1'],0,[0.5280883756931871],,2018_May_06_1628,60.0263746578,sequenceLearningTask,001,099,
min1.png,min2.png,min3.png,min4.png,allBlank.png,,,,['num_4'],,,,,,0,9,9,9,,,,,,,,,['num_4'],10,0.0582842358854,0,"['num_1', 'num_4']",0,"[0.5687714024679735, 0.9511541113024577]",,2018_May_06_1628,60.0263746578,sequenceLearningTask,001,099,
min1.png,min2.png,min3.png,min4.png,allBlank.png,,,,['num_0'],,,,,,0,9,9,9,,,,,,,,,['num_0'],10,0.0557193161221,1,['num_0'],0,[0.7715662298724055],,2018_May_06_1628,60.0263746578,sequenceLearningTask,001,099,
min1.png,min2.png,min3.png,min4.png,allBlank.png,,,,['num_0'],,,,,,0,9,9,9,,,,,,,,,['num_0'],10,0.0488487604307,1,['num_0'],0,[0.5793157998705283],,2018_May_06_1628,60.0263746578,sequenceLearningTask,001,099,
min1.png,min2.png,min3.png,min4.png,allBlank.png,,,,['num_4'],,,,,,0,9,9,9,,,,,,,,,['num_4'],10,0.0525697814301,0,"['num_7', 'num_4']",0,"[0.5081384514924139, 0.9248152719810605]",,2018_May_06_1628,60.0263746578,sequenceLearningTask,001,099,
min1.png,min2.png,min3.png,min4.png,allBlank.png,,,,['num_1'],,,,,,0,9,9,9,,,,,,,,,['num_1'],10,0.065546996193,1,['num_1'],0,[0.5104248076677322],,2018_May_06_1628,60.0263746578,sequenceLearningTask,001,099,
min1.png,min2.png,min3.png,min4.png,allBlank.png,,,,['num_0'],,,,,,0,9,9,9,,,,,,,,,['num_0'],10,0.0570485451026,1,['num_0'],0,[0.45352108287625015],,2018_May_06_1628,60.0263746578,sequenceLearningTask,001,099,
min1.png,min2.png,min3.png,min4.png,allBlank.png,,,,,,,,,,0,9,9,9,,,,,0,-1,-1,0,,,,,,,,,2018_May_06_1628,60.0263746578,sequenceLearningTask,001,099,
