pawPatrol1,pawPatrol2,pawPatrol3,pawPatrol4,blank,randomPaw,correctKeyPress,allowableKey,correctKey,correctKeyPressNum,trials.thisRepN,trials.thisTrialN,trials.thisN,trials.thisIndex,trials_3.thisRepN,trials_3.thisTrialN,trials_3.thisN,trials_3.thisIndex,trials_2.thisRepN,trials_2.thisTrialN,trials_2.thisN,trials_2.thisIndex,trials_questions.thisRepN,trials_questions.thisTrialN,trials_questions.thisN,trials_questions.thisIndex,correctKey,repetitionNumber,stimulusPresent.t,trialCorrect,key_resp_9.keys,key_resp_9.corr,key_resp_9.rt,keyRespCorrect,date,frameRate,expName,session,participant,
min1.png,min2.png,min3.png,min4.png,allBlank.png,,,,['num_7'],,,,,,0,0,0,0,,,,,,,,,['num_7'],1,0.083436615183,1,['num_7'],0,[0.6665472821332514],,2018_May_06_1139,59.8878899923,sequenceLearningTask,001,091,
min1.png,min2.png,min3.png,min4.png,allBlank.png,,,,['num_1'],,,,,,0,0,0,0,,,,,,,,,['num_1'],1,0.0847609213088,1,['num_1'],0,[0.6114080679835752],,2018_May_06_1139,59.8878899923,sequenceLearningTask,001,091,
min1.png,min2.png,min3.png,min4.png,allBlank.png,,,,['num_4'],,,,,,0,0,0,0,,,,,,,,,['num_4'],1,0.0785668777535,1,['num_4'],0,[0.5819549760781229],,2018_May_06_1139,59.8878899923,sequenceLearningTask,001,091,
min1.png,min2.png,min3.png,min4.png,allBlank.png,,,,['num_0'],,,,,,0,0,0,0,,,,,,,,,['num_0'],1,0.0812876948621,1,['num_0'],0,[0.5461363533977419],,2018_May_06_1139,59.8878899923,sequenceLearningTask,001,091,
min1.png,min2.png,min3.png,min4.png,allBlank.png,,,,['num_0'],,,,,,0,0,0,0,,,,,,,,,['num_0'],1,0.0585968510713,1,['num_0'],0,[0.535144777270034],,2018_May_06_1139,59.8878899923,sequenceLearningTask,001,091,
min1.png,min2.png,min3.png,min4.png,allBlank.png,,,,['num_4'],,,,,,0,0,0,0,,,,,,,,,['num_4'],1,0.0614124372369,1,['num_4'],0,[0.6495680209482089],,2018_May_06_1139,59.8878899923,sequenceLearningTask,001,091,
min1.png,min2.png,min3.png,min4.png,allBlank.png,,,,['num_1'],,,,,,0,0,0,0,,,,,,,,,['num_1'],1,0.0678854548605,1,['num_1'],0,[0.5107123971683905],,2018_May_06_1139,59.8878899923,sequenceLearningTask,001,091,
min1.png,min2.png,min3.png,min4.png,allBlank.png,,,,['num_0'],,,,,,0,0,0,0,,,,,,,,,['num_0'],1,0.0532700882759,1,['num_0'],0,[0.42543619428761303],,2018_May_06_1139,59.8878899923,sequenceLearningTask,001,091,
min1.png,min2.png,min3.png,min4.png,allBlank.png,,,,['num_7'],,,,,,0,1,1,1,,,,,,,,,['num_7'],2,0.0551219835179,1,['num_7'],0,[0.4869975544279441],,2018_May_06_1139,59.8878899923,sequenceLearningTask,001,091,
min1.png,min2.png,min3.png,min4.png,allBlank.png,,,,['num_1'],,,,,,0,1,1,1,,,,,,,,,['num_1'],2,0.0558665978024,1,['num_1'],0,[0.4733446481404826],,2018_May_06_1139,59.8878899923,sequenceLearningTask,001,091,
min1.png,min2.png,min3.png,min4.png,allBlank.png,,,,['num_4'],,,,,,0,1,1,1,,,,,,,,,['num_4'],2,0.0534735751571,1,['num_4'],0,[0.4580925643676892],,2018_May_06_1139,59.8878899923,sequenceLearningTask,001,091,
min1.png,min2.png,min3.png,min4.png,allBlank.png,,,,['num_0'],,,,,,0,1,1,1,,,,,,,,,['num_0'],2,0.0532175755361,1,['num_0'],0,[0.4909130367450416],,2018_May_06_1139,59.8878899923,sequenceLearningTask,001,091,
min1.png,min2.png,min3.png,min4.png,allBlank.png,,,,['num_0'],,,,,,0,1,1,1,,,,,,,,,['num_0'],2,0.0543310100911,1,['num_0'],0,[0.43838674249127507],,2018_May_06_1139,59.8878899923,sequenceLearningTask,001,091,
min1.png,min2.png,min3.png,min4.png,allBlank.png,,,,['num_4'],,,,,,0,1,1,1,,,,,,,,,['num_4'],2,0.0590920298127,1,['num_4'],0,[0.7531572268344462],,2018_May_06_1139,59.8878899923,sequenceLearningTask,001,091,
min1.png,min2.png,min3.png,min4.png,allBlank.png,,,,['num_1'],,,,,,0,1,1,1,,,,,,,,,['num_1'],2,0.0621812568279,1,['num_1'],0,[0.7142871208488941],,2018_May_06_1139,59.8878899923,sequenceLearningTask,001,091,
min1.png,min2.png,min3.png,min4.png,allBlank.png,,,,['num_0'],,,,,,0,1,1,1,,,,,,,,,['num_0'],2,0.0503552200971,1,['num_0'],0,[0.5456530720693991],,2018_May_06_1139,59.8878899923,sequenceLearningTask,001,091,
min1.png,min2.png,min3.png,min4.png,allBlank.png,,,,['num_7'],,,,,,0,2,2,2,,,,,,,,,['num_7'],3,0.0546883429633,1,['num_7'],0,[0.4554053882602602],,2018_May_06_1139,59.8878899923,sequenceLearningTask,001,091,
min1.png,min2.png,min3.png,min4.png,allBlank.png,,,,['num_1'],,,,,,0,2,2,2,,,,,,,,,['num_1'],3,0.0578624928603,1,['num_1'],0,[0.7192647558404133],,2018_May_06_1139,59.8878899923,sequenceLearningTask,001,091,
min1.png,min2.png,min3.png,min4.png,allBlank.png,,,,['num_4'],,,,,,0,2,2,2,,,,,,,,,['num_4'],3,0.0536778826499,1,['num_4'],0,[0.9085904714884236],,2018_May_06_1139,59.8878899923,sequenceLearningTask,001,091,
min1.png,min2.png,min3.png,min4.png,allBlank.png,,,,['num_0'],,,,,,0,2,2,2,,,,,,,,,['num_0'],3,0.0488360425225,1,['num_0'],0,[0.49613436369691044],,2018_May_06_1139,59.8878899923,sequenceLearningTask,001,091,
min1.png,min2.png,min3.png,min4.png,allBlank.png,,,,['num_0'],,,,,,0,2,2,2,,,,,,,,,['num_0'],3,0.0569082376314,1,['num_0'],0,[0.5203296160325408],,2018_May_06_1139,59.8878899923,sequenceLearningTask,001,091,
min1.png,min2.png,min3.png,min4.png,allBlank.png,,,,['num_4'],,,,,,0,2,2,2,,,,,,,,,['num_4'],3,0.0578313133446,1,['num_4'],0,[0.5213404865935445],,2018_May_06_1139,59.8878899923,sequenceLearningTask,001,091,
min1.png,min2.png,min3.png,min4.png,allBlank.png,,,,['num_1'],,,,,,0,2,2,2,,,,,,,,,['num_1'],3,0.05939151661,1,['num_1'],0,[0.3850961414864287],,2018_May_06_1139,59.8878899923,sequenceLearningTask,001,091,
min1.png,min2.png,min3.png,min4.png,allBlank.png,,,,['num_0'],,,,,,0,2,2,2,,,,,,,,,['num_0'],3,0.0510157321114,1,['num_0'],0,[0.4602529719704762],,2018_May_06_1139,59.8878899923,sequenceLearningTask,001,091,
min1.png,min2.png,min3.png,min4.png,allBlank.png,,,,['num_7'],,,,,,0,3,3,3,,,,,,,,,['num_7'],4,0.0510891678277,1,['num_7'],0,[0.5082734257448465],,2018_May_06_1139,59.8878899923,sequenceLearningTask,001,091,
min1.png,min2.png,min3.png,min4.png,allBlank.png,,,,['num_1'],,,,,,0,3,3,3,,,,,,,,,['num_1'],4,0.059221260366,1,['num_1'],0,[0.5183275671442971],,2018_May_06_1139,59.8878899923,sequenceLearningTask,001,091,
min1.png,min2.png,min3.png,min4.png,allBlank.png,,,,['num_4'],,,,,,0,3,3,3,,,,,,,,,['num_4'],4,0.0584368511336,1,['num_4'],0,[0.335896612261422],,2018_May_06_1139,59.8878899923,sequenceLearningTask,001,091,
min1.png,min2.png,min3.png,min4.png,allBlank.png,,,,['num_0'],,,,,,0,3,3,3,,,,,,,,,['num_0'],4,0.0573779805563,1,['num_0'],0,[0.32033765700180084],,2018_May_06_1139,59.8878899923,sequenceLearningTask,001,091,
min1.png,min2.png,min3.png,min4.png,allBlank.png,,,,['num_0'],,,,,,0,3,3,3,,,,,,,,,['num_0'],4,0.0567740839906,1,['num_0'],0,[0.42088481527753174],,2018_May_06_1139,59.8878899923,sequenceLearningTask,001,091,
min1.png,min2.png,min3.png,min4.png,allBlank.png,,,,['num_4'],,,,,,0,3,3,3,,,,,,,,,['num_4'],4,0.0513365522493,0,"['num_7', 'num_4']",0,"[0.4600043569225818, 1.0939371151616797]",,2018_May_06_1139,59.8878899923,sequenceLearningTask,001,091,
min1.png,min2.png,min3.png,min4.png,allBlank.png,,,,['num_1'],,,,,,0,3,3,3,,,,,,,,,['num_1'],4,0.0533948061056,1,['num_1'],0,[0.7914021027972922],,2018_May_06_1139,59.8878899923,sequenceLearningTask,001,091,
min1.png,min2.png,min3.png,min4.png,allBlank.png,,,,['num_0'],,,,,,0,3,3,3,,,,,,,,,['num_0'],4,0.0515478339512,1,['num_0'],0,[0.5766130338888615],,2018_May_06_1139,59.8878899923,sequenceLearningTask,001,091,
min1.png,min2.png,min3.png,min4.png,allBlank.png,,,,['num_7'],,,,,,0,4,4,4,,,,,,,,,['num_7'],5,0.0543051639106,1,['num_7'],0,[0.571354373707436],,2018_May_06_1139,59.8878899923,sequenceLearningTask,001,091,
min1.png,min2.png,min3.png,min4.png,allBlank.png,,,,['num_1'],,,,,,0,4,4,4,,,,,,,,,['num_1'],5,0.0564717253437,1,['num_1'],0,[0.5382089785998687],,2018_May_06_1139,59.8878899923,sequenceLearningTask,001,091,
min1.png,min2.png,min3.png,min4.png,allBlank.png,,,,['num_4'],,,,,,0,4,4,4,,,,,,,,,['num_4'],5,0.0524077303708,0,"['num_7', 'num_4']",0,"[0.3918850561603904, 0.8086381842149422]",,2018_May_06_1139,59.8878899923,sequenceLearningTask,001,091,
min1.png,min2.png,min3.png,min4.png,allBlank.png,,,,['num_0'],,,,,,0,4,4,4,,,,,,,,,['num_0'],5,0.0560245463857,1,['num_0'],0,[0.5225047927815467],,2018_May_06_1139,59.8878899923,sequenceLearningTask,001,091,
min1.png,min2.png,min3.png,min4.png,allBlank.png,,,,['num_0'],,,,,,0,4,4,4,,,,,,,,,['num_0'],5,0.0545094714034,1,['num_0'],0,[0.5562335718423128],,2018_May_06_1139,59.8878899923,sequenceLearningTask,001,091,
min1.png,min2.png,min3.png,min4.png,allBlank.png,,,,['num_4'],,,,,,0,4,4,4,,,,,,,,,['num_4'],5,0.0497254772345,1,['num_4'],0,[0.6119114520261064],,2018_May_06_1139,59.8878899923,sequenceLearningTask,001,091,
min1.png,min2.png,min3.png,min4.png,allBlank.png,,,,['num_1'],,,,,,0,4,4,4,,,,,,,,,['num_1'],5,0.0550087527372,1,['num_1'],0,[1.9564476433442906],,2018_May_06_1139,59.8878899923,sequenceLearningTask,001,091,
min1.png,min2.png,min3.png,min4.png,allBlank.png,,,,['num_0'],,,,,,0,4,4,4,,,,,,,,,['num_0'],5,0.0557681365171,1,['num_0'],0,[0.455803336459212],,2018_May_06_1139,59.8878899923,sequenceLearningTask,001,091,
min1.png,min2.png,min3.png,min4.png,allBlank.png,,,,['num_7'],,,,,,0,5,5,5,,,,,,,,,['num_7'],6,0.0554883419536,1,['num_7'],0,[0.45367123652249575],,2018_May_06_1139,59.8878899923,sequenceLearningTask,001,091,
min1.png,min2.png,min3.png,min4.png,allBlank.png,,,,['num_1'],,,,,,0,5,5,5,,,,,,,,,['num_1'],6,0.0580315182451,1,['num_1'],0,[0.519222745555453],,2018_May_06_1139,59.8878899923,sequenceLearningTask,001,091,
min1.png,min2.png,min3.png,min4.png,allBlank.png,,,,['num_4'],,,,,,0,5,5,5,,,,,,,,,['num_4'],6,0.0545090610394,1,['num_4'],0,[0.32329396111890674],,2018_May_06_1139,59.8878899923,sequenceLearningTask,001,091,
min1.png,min2.png,min3.png,min4.png,allBlank.png,,,,['num_0'],,,,,,0,5,5,5,,,,,,,,,['num_0'],6,0.0510891679442,1,['num_0'],0,[0.4434177107177675],,2018_May_06_1139,59.8878899923,sequenceLearningTask,001,091,
min1.png,min2.png,min3.png,min4.png,allBlank.png,,,,['num_0'],,,,,,0,5,5,5,,,,,,,,,['num_0'],6,0.0589997222414,1,['num_0'],0,[0.5029470731969923],,2018_May_06_1139,59.8878899923,sequenceLearningTask,001,091,
min1.png,min2.png,min3.png,min4.png,allBlank.png,,,,['num_4'],,,,,,0,5,5,5,,,,,,,,,['num_4'],6,0.0525878326735,1,['num_4'],0,[0.6251106151612476],,2018_May_06_1139,59.8878899923,sequenceLearningTask,001,091,
min1.png,min2.png,min3.png,min4.png,allBlank.png,,,,['num_1'],,,,,,0,5,5,5,,,,,,,,,['num_1'],6,0.0557775723282,1,['num_1'],0,[0.4061307822121307],,2018_May_06_1139,59.8878899923,sequenceLearningTask,001,091,
min1.png,min2.png,min3.png,min4.png,allBlank.png,,,,['num_0'],,,,,,0,5,5,5,,,,,,,,,['num_0'],6,0.0551301885862,1,['num_0'],0,[0.5396444640355185],,2018_May_06_1139,59.8878899923,sequenceLearningTask,001,091,
min1.png,min2.png,min3.png,min4.png,allBlank.png,,,,['num_7'],,,,,,0,6,6,6,,,,,,,,,['num_7'],7,0.0524709097808,1,['num_7'],0,[0.4415727899177],,2018_May_06_1139,59.8878899923,sequenceLearningTask,001,091,
min1.png,min2.png,min3.png,min4.png,allBlank.png,,,,['num_1'],,,,,,0,6,6,6,,,,,,,,,['num_1'],7,0.0551068040077,0,"['num_4', 'num_1']",0,"[0.35595238232053816, 0.8387234804686159]",,2018_May_06_1139,59.8878899923,sequenceLearningTask,001,091,
min1.png,min2.png,min3.png,min4.png,allBlank.png,,,,['num_4'],,,,,,0,6,6,6,,,,,,,,,['num_4'],7,0.0621086414903,1,['num_4'],0,[0.7479601050727069],,2018_May_06_1139,59.8878899923,sequenceLearningTask,001,091,
min1.png,min2.png,min3.png,min4.png,allBlank.png,,,,['num_0'],,,,,,0,6,6,6,,,,,,,,,['num_0'],7,0.0614715140546,1,['num_0'],0,[0.4988945653894916],,2018_May_06_1139,59.8878899923,sequenceLearningTask,001,091,
min1.png,min2.png,min3.png,min4.png,allBlank.png,,,,['num_0'],,,,,,0,6,6,6,,,,,,,,,['num_0'],7,0.0546825993806,1,['num_0'],0,[0.5067681968212128],,2018_May_06_1139,59.8878899923,sequenceLearningTask,001,091,
min1.png,min2.png,min3.png,min4.png,allBlank.png,,,,['num_4'],,,,,,0,6,6,6,,,,,,,,,['num_4'],7,0.0612204375211,1,['num_4'],0,[0.5657211497891694],,2018_May_06_1139,59.8878899923,sequenceLearningTask,001,091,
min1.png,min2.png,min3.png,min4.png,allBlank.png,,,,['num_1'],,,,,,0,6,6,6,,,,,,,,,['num_1'],7,0.0504778865725,1,['num_1'],0,[0.41060175106395036],,2018_May_06_1139,59.8878899923,sequenceLearningTask,001,091,
min1.png,min2.png,min3.png,min4.png,allBlank.png,,,,['num_0'],,,,,,0,6,6,6,,,,,,,,,['num_0'],7,0.0555297778919,1,['num_0'],0,[0.6386625985614955],,2018_May_06_1139,59.8878899923,sequenceLearningTask,001,091,
min1.png,min2.png,min3.png,min4.png,allBlank.png,,,,['num_7'],,,,,,0,7,7,7,,,,,,,,,['num_7'],8,0.0582682359964,1,['num_7'],0,[0.4843288396950811],,2018_May_06_1139,59.8878899923,sequenceLearningTask,001,091,
min1.png,min2.png,min3.png,min4.png,allBlank.png,,,,['num_1'],,,,,,0,7,7,7,,,,,,,,,['num_1'],8,0.0592015681323,1,['num_1'],0,[0.6683105620322749],,2018_May_06_1139,59.8878899923,sequenceLearningTask,001,091,
min1.png,min2.png,min3.png,min4.png,allBlank.png,,,,['num_4'],,,,,,0,7,7,7,,,,,,,,,['num_4'],8,0.0602809514385,1,['num_4'],0,[0.5335242663277313],,2018_May_06_1139,59.8878899923,sequenceLearningTask,001,091,
min1.png,min2.png,min3.png,min4.png,allBlank.png,,,,['num_0'],,,,,,0,7,7,7,,,,,,,,,['num_0'],8,0.0511051678332,1,['num_0'],0,[0.3934157209005207],,2018_May_06_1139,59.8878899923,sequenceLearningTask,001,091,
min1.png,min2.png,min3.png,min4.png,allBlank.png,,,,['num_0'],,,,,,0,7,7,7,,,,,,,,,['num_0'],8,0.0552499833284,1,['num_0'],0,[0.42311127413995564],,2018_May_06_1139,59.8878899923,sequenceLearningTask,001,091,
min1.png,min2.png,min3.png,min4.png,allBlank.png,,,,['num_4'],,,,,,0,7,7,7,,,,,,,,,['num_4'],8,0.0575855701463,1,['num_4'],0,[0.5537539852084592],,2018_May_06_1139,59.8878899923,sequenceLearningTask,001,091,
min1.png,min2.png,min3.png,min4.png,allBlank.png,,,,['num_1'],,,,,,0,7,7,7,,,,,,,,,['num_1'],8,0.0535297802417,1,['num_1'],0,[0.40762616496067494],,2018_May_06_1139,59.8878899923,sequenceLearningTask,001,091,
min1.png,min2.png,min3.png,min4.png,allBlank.png,,,,['num_0'],,,,,,0,7,7,7,,,,,,,,,['num_0'],8,0.0535904981662,1,['num_0'],0,[0.6577735493192449],,2018_May_06_1139,59.8878899923,sequenceLearningTask,001,091,
min1.png,min2.png,min3.png,min4.png,allBlank.png,,,,['num_7'],,,,,,0,8,8,8,,,,,,,,,['num_7'],9,0.0570719297975,1,['num_7'],0,[0.6189038536977023],,2018_May_06_1139,59.8878899923,sequenceLearningTask,001,091,
min1.png,min2.png,min3.png,min4.png,allBlank.png,,,,['num_1'],,,,,,0,8,8,8,,,,,,,,,['num_1'],9,0.0540602412075,1,['num_1'],0,[0.7738259194884449],,2018_May_06_1139,59.8878899923,sequenceLearningTask,001,091,
min1.png,min2.png,min3.png,min4.png,allBlank.png,,,,['num_4'],,,,,,0,8,8,8,,,,,,,,,['num_4'],9,0.0616134626325,1,['num_4'],0,[0.3993915084283799],,2018_May_06_1139,59.8878899923,sequenceLearningTask,001,091,
min1.png,min2.png,min3.png,min4.png,allBlank.png,,,,['num_0'],,,,,,0,8,8,8,,,,,,,,,['num_0'],9,0.0581509028561,1,['num_0'],0,[0.4538751336513087],,2018_May_06_1139,59.8878899923,sequenceLearningTask,001,091,
min1.png,min2.png,min3.png,min4.png,allBlank.png,,,,['num_0'],,,,,,0,8,8,8,,,,,,,,,['num_0'],9,0.0513016803889,1,['num_0'],0,[0.6098343263147399],,2018_May_06_1139,59.8878899923,sequenceLearningTask,001,091,
min1.png,min2.png,min3.png,min4.png,allBlank.png,,,,['num_4'],,,,,,0,8,8,8,,,,,,,,,['num_4'],9,0.0604097718606,1,['num_4'],0,[0.5672661735443398],,2018_May_06_1139,59.8878899923,sequenceLearningTask,001,091,
min1.png,min2.png,min3.png,min4.png,allBlank.png,,,,['num_1'],,,,,,0,8,8,8,,,,,,,,,['num_1'],9,0.0525541916722,1,['num_1'],0,[0.4410209956113249],,2018_May_06_1139,59.8878899923,sequenceLearningTask,001,091,
min1.png,min2.png,min3.png,min4.png,allBlank.png,,,,['num_0'],,,,,,0,8,8,8,,,,,,,,,['num_0'],9,0.0542645485839,1,['num_0'],0,[0.5223049982450902],,2018_May_06_1139,59.8878899923,sequenceLearningTask,001,091,
min1.png,min2.png,min3.png,min4.png,allBlank.png,,,,['num_7'],,,,,,0,9,9,9,,,,,,,,,['num_7'],10,0.0461447637063,1,['num_7'],0,[0.49785456678364426],,2018_May_06_1139,59.8878899923,sequenceLearningTask,001,091,
min1.png,min2.png,min3.png,min4.png,allBlank.png,,,,['num_1'],,,,,,0,9,9,9,,,,,,,,,['num_1'],10,0.0558075211011,1,['num_1'],0,[0.40579765441361815],,2018_May_06_1139,59.8878899923,sequenceLearningTask,001,091,
min1.png,min2.png,min3.png,min4.png,allBlank.png,,,,['num_4'],,,,,,0,9,9,9,,,,,,,,,['num_4'],10,0.0529570630752,1,['num_4'],0,[0.35900058376137167],,2018_May_06_1139,59.8878899923,sequenceLearningTask,001,091,
min1.png,min2.png,min3.png,min4.png,allBlank.png,,,,['num_0'],,,,,,0,9,9,9,,,,,,,,,['num_0'],10,0.0581853642361,1,['num_0'],0,[0.45275800686795264],,2018_May_06_1139,59.8878899923,sequenceLearningTask,001,091,
min1.png,min2.png,min3.png,min4.png,allBlank.png,,,,['num_0'],,,,,,0,9,9,9,,,,,,,,,['num_0'],10,0.0509796296246,1,['num_0'],0,[0.7282887446926907],,2018_May_06_1139,59.8878899923,sequenceLearningTask,001,091,
min1.png,min2.png,min3.png,min4.png,allBlank.png,,,,['num_4'],,,,,,0,9,9,9,,,,,,,,,['num_4'],10,0.0523699867772,0,"['num_7', 'num_4']",0,"[0.4246517850551754, 1.008109528454952]",,2018_May_06_1139,59.8878899923,sequenceLearningTask,001,091,
min1.png,min2.png,min3.png,min4.png,allBlank.png,,,,['num_1'],,,,,,0,9,9,9,,,,,,,,,['num_1'],10,0.0506789119681,1,['num_1'],0,[0.8597273520426825],,2018_May_06_1139,59.8878899923,sequenceLearningTask,001,091,
min1.png,min2.png,min3.png,min4.png,allBlank.png,,,,['num_0'],,,,,,0,9,9,9,,,,,,,,,['num_0'],10,0.0597554136766,1,['num_0'],0,[0.3512401831103489],,2018_May_06_1139,59.8878899923,sequenceLearningTask,001,091,
min1.png,min2.png,min3.png,min4.png,allBlank.png,,,,['num_7'],,,,,,0,0,0,0,,,,,,,,,['num_7'],1,0.0522813715506,1,['num_7'],0,[0.6464246402028948],,2018_May_06_1139,59.8878899923,sequenceLearningTask,001,091,
min1.png,min2.png,min3.png,min4.png,allBlank.png,,,,['num_1'],,,,,,0,0,0,0,,,,,,,,,['num_1'],1,0.0610579762142,1,['num_1'],0,[0.3487253144849092],,2018_May_06_1139,59.8878899923,sequenceLearningTask,001,091,
min1.png,min2.png,min3.png,min4.png,allBlank.png,,,,['num_4'],,,,,,0,0,0,0,,,,,,,,,['num_4'],1,0.0511999370065,1,['num_4'],0,[0.3264795981813222],,2018_May_06_1139,59.8878899923,sequenceLearningTask,001,091,
min1.png,min2.png,min3.png,min4.png,allBlank.png,,,,['num_0'],,,,,,0,0,0,0,,,,,,,,,['num_0'],1,0.0588655686006,1,['num_0'],0,[0.5854922025464475],,2018_May_06_1139,59.8878899923,sequenceLearningTask,001,091,
min1.png,min2.png,min3.png,min4.png,allBlank.png,,,,['num_0'],,,,,,0,0,0,0,,,,,,,,,['num_0'],1,0.0544532663189,1,['num_0'],0,[0.3902280326001346],,2018_May_06_1139,59.8878899923,sequenceLearningTask,001,091,
min1.png,min2.png,min3.png,min4.png,allBlank.png,,,,['num_4'],,,,,,0,0,0,0,,,,,,,,,['num_4'],1,0.0595954138553,1,['num_4'],0,[0.4524133919039741],,2018_May_06_1139,59.8878899923,sequenceLearningTask,001,091,
min1.png,min2.png,min3.png,min4.png,allBlank.png,,,,['num_1'],,,,,,0,0,0,0,,,,,,,,,['num_1'],1,0.0510719370795,1,['num_1'],0,[0.32700103346724063],,2018_May_06_1139,59.8878899923,sequenceLearningTask,001,091,
min1.png,min2.png,min3.png,min4.png,allBlank.png,,,,['num_0'],,,,,,0,0,0,0,,,,,,,,,['num_0'],1,0.0635995115153,1,['num_0'],0,[0.44627596356440336],,2018_May_06_1139,59.8878899923,sequenceLearningTask,001,091,
min1.png,min2.png,min3.png,min4.png,allBlank.png,,,,['num_7'],,,,,,0,1,1,1,,,,,,,,,['num_7'],2,0.0559347003,1,['num_7'],0,[0.604237615247257],,2018_May_06_1139,59.8878899923,sequenceLearningTask,001,091,
min1.png,min2.png,min3.png,min4.png,allBlank.png,,,,['num_1'],,,,,,0,1,1,1,,,,,,,,,['num_1'],2,0.0574452626752,1,['num_1'],0,[0.45458692766260356],,2018_May_06_1139,59.8878899923,sequenceLearningTask,001,091,
min1.png,min2.png,min3.png,min4.png,allBlank.png,,,,['num_4'],,,,,,0,1,1,1,,,,,,,,,['num_4'],2,0.0593246449716,1,['num_4'],0,[0.3021764485165477],,2018_May_06_1139,59.8878899923,sequenceLearningTask,001,091,
min1.png,min2.png,min3.png,min4.png,allBlank.png,,,,['num_0'],,,,,,0,1,1,1,,,,,,,,,['num_0'],2,0.0613972577266,1,['num_0'],0,[0.4838024815544486],,2018_May_06_1139,59.8878899923,sequenceLearningTask,001,091,
min1.png,min2.png,min3.png,min4.png,allBlank.png,,,,['num_0'],,,,,,0,1,1,1,,,,,,,,,['num_0'],2,0.060218182276,1,['num_0'],0,[0.43481874687131494],,2018_May_06_1139,59.8878899923,sequenceLearningTask,001,091,
min1.png,min2.png,min3.png,min4.png,allBlank.png,,,,['num_4'],,,,,,0,1,1,1,,,,,,,,,['num_4'],2,0.0567318275571,1,['num_4'],0,[0.6055820238543674],,2018_May_06_1139,59.8878899923,sequenceLearningTask,001,091,
min1.png,min2.png,min3.png,min4.png,allBlank.png,,,,['num_1'],,,,,,0,1,1,1,,,,,,,,,['num_1'],2,0.0604532589205,1,['num_1'],0,[0.35071874782443047],,2018_May_06_1139,59.8878899923,sequenceLearningTask,001,091,
min1.png,min2.png,min3.png,min4.png,allBlank.png,,,,['num_0'],,,,,,0,1,1,1,,,,,,,,,['num_0'],2,0.052576345508,1,['num_0'],0,[0.37530702527146786],,2018_May_06_1139,59.8878899923,sequenceLearningTask,001,091,
min1.png,min2.png,min3.png,min4.png,allBlank.png,,,,['num_7'],,,,,,0,2,2,2,,,,,,,,,['num_7'],3,0.0528635247611,1,['num_7'],0,[0.3720577984349802],,2018_May_06_1139,59.8878899923,sequenceLearningTask,001,091,
min1.png,min2.png,min3.png,min4.png,allBlank.png,,,,['num_1'],,,,,,0,2,2,2,,,,,,,,,['num_1'],3,0.0222826392855,1,['num_1'],0,[0.40891477873083204],,2018_May_06_1139,59.8878899923,sequenceLearningTask,001,091,
min1.png,min2.png,min3.png,min4.png,allBlank.png,,,,['num_4'],,,,,,0,2,2,2,,,,,,,,,['num_4'],3,0.0616643343819,1,['num_4'],0,[0.29875204246491194],,2018_May_06_1139,59.8878899923,sequenceLearningTask,001,091,
min1.png,min2.png,min3.png,min4.png,allBlank.png,,,,['num_0'],,,,,,0,2,2,2,,,,,,,,,['num_0'],3,0.0633024862036,1,['num_0'],0,[0.29785358207300305],,2018_May_06_1139,59.8878899923,sequenceLearningTask,001,091,
min1.png,min2.png,min3.png,min4.png,allBlank.png,,,,['num_0'],,,,,,0,2,2,2,,,,,,,,,['num_0'],3,0.0408106164541,1,['num_0'],0,[0.40442370739765465],,2018_May_06_1139,59.8878899923,sequenceLearningTask,001,091,
min1.png,min2.png,min3.png,min4.png,allBlank.png,,,,['num_4'],,,,,,0,2,2,2,,,,,,,,,['num_4'],3,0.0558518286562,1,['num_4'],0,[0.42138573771808296],,2018_May_06_1139,59.8878899923,sequenceLearningTask,001,091,
min1.png,min2.png,min3.png,min4.png,allBlank.png,,,,['num_1'],,,,,,0,2,2,2,,,,,,,,,['num_1'],3,0.0570300836116,1,['num_1'],0,[0.4381512555992231],,2018_May_06_1139,59.8878899923,sequenceLearningTask,001,091,
min1.png,min2.png,min3.png,min4.png,allBlank.png,,,,['num_0'],,,,,,0,2,2,2,,,,,,,,,['num_0'],3,0.0530518322485,1,['num_0'],0,[0.5590967477764934],,2018_May_06_1139,59.8878899923,sequenceLearningTask,001,091,
min1.png,min2.png,min3.png,min4.png,allBlank.png,,,,['num_7'],,,,,,0,3,3,3,,,,,,,,,['num_7'],4,0.0551708039129,1,['num_7'],0,[0.3532791549805552],,2018_May_06_1139,59.8878899923,sequenceLearningTask,001,091,
min1.png,min2.png,min3.png,min4.png,allBlank.png,,,,['num_1'],,,,,,0,3,3,3,,,,,,,,,['num_1'],4,0.057954390184,1,['num_1'],0,[0.43615248892456293],,2018_May_06_1139,59.8878899923,sequenceLearningTask,001,091,
min1.png,min2.png,min3.png,min4.png,allBlank.png,,,,['num_4'],,,,,,0,3,3,3,,,,,,,,,['num_4'],4,0.0522288588108,1,['num_4'],0,[0.3423503478989005],,2018_May_06_1139,59.8878899923,sequenceLearningTask,001,091,
min1.png,min2.png,min3.png,min4.png,allBlank.png,,,,['num_0'],,,,,,0,3,3,3,,,,,,,,,['num_0'],4,0.0519946026616,1,['num_0'],0,[0.47623982408549637],,2018_May_06_1139,59.8878899923,sequenceLearningTask,001,091,
min1.png,min2.png,min3.png,min4.png,allBlank.png,,,,['num_0'],,,,,,0,3,3,3,,,,,,,,,['num_0'],4,0.057630698313,1,['num_0'],0,[0.437171564437449],,2018_May_06_1139,59.8878899923,sequenceLearningTask,001,091,
min1.png,min2.png,min3.png,min4.png,allBlank.png,,,,['num_4'],,,,,,0,3,3,3,,,,,,,,,['num_4'],4,0.0546370609663,1,['num_4'],0,[0.4892326286062598],,2018_May_06_1139,59.8878899923,sequenceLearningTask,001,091,
min1.png,min2.png,min3.png,min4.png,allBlank.png,,,,['num_1'],,,,,,0,3,3,3,,,,,,,,,['num_1'],4,0.0551917268895,1,['num_1'],0,[0.5233199712820351],,2018_May_06_1139,59.8878899923,sequenceLearningTask,001,091,
min1.png,min2.png,min3.png,min4.png,allBlank.png,,,,['num_0'],,,,,,0,3,3,3,,,,,,,,,['num_0'],4,0.0572487500031,1,['num_0'],0,[0.3691404686542228],,2018_May_06_1139,59.8878899923,sequenceLearningTask,001,091,
min1.png,min2.png,min3.png,min4.png,allBlank.png,,,,['num_7'],,,,,,0,4,4,4,,,,,,,,,['num_7'],5,0.0510489627486,1,['num_7'],0,[0.39139274903573096],,2018_May_06_1139,59.8878899923,sequenceLearningTask,001,091,
min1.png,min2.png,min3.png,min4.png,allBlank.png,,,,['num_1'],,,,,,0,4,4,4,,,,,,,,,['num_1'],5,0.0565972636687,1,['num_1'],0,[0.6053034601500258],,2018_May_06_1139,59.8878899923,sequenceLearningTask,001,091,
min1.png,min2.png,min3.png,min4.png,allBlank.png,,,,['num_4'],,,,,,0,4,4,4,,,,,,,,,['num_4'],5,0.057937979931,1,['num_4'],0,[0.30366813903674483],,2018_May_06_1139,59.8878899923,sequenceLearningTask,001,091,
min1.png,min2.png,min3.png,min4.png,allBlank.png,,,,['num_0'],,,,,,0,4,4,4,,,,,,,,,['num_0'],5,0.0586263893638,1,['num_0'],0,[0.2708144359057769],,2018_May_06_1139,59.8878899923,sequenceLearningTask,001,091,
min1.png,min2.png,min3.png,min4.png,allBlank.png,,,,['num_0'],,,,,,0,4,4,4,,,,,,,,,['num_0'],5,0.0464220967842,1,['num_0'],0,[0.3976979721337557],,2018_May_06_1139,59.8878899923,sequenceLearningTask,001,091,
min1.png,min2.png,min3.png,min4.png,allBlank.png,,,,['num_4'],,,,,,0,4,4,4,,,,,,,,,['num_4'],5,0.0523490638006,1,['num_4'],0,[0.6256431273650378],,2018_May_06_1139,59.8878899923,sequenceLearningTask,001,091,
min1.png,min2.png,min3.png,min4.png,allBlank.png,,,,['num_1'],,,,,,0,4,4,4,,,,,,,,,['num_1'],5,0.0500274256337,1,['num_1'],0,[0.29477132949978113],,2018_May_06_1139,59.8878899923,sequenceLearningTask,001,091,
min1.png,min2.png,min3.png,min4.png,allBlank.png,,,,['num_0'],,,,,,0,4,4,4,,,,,,,,,['num_0'],5,0.0558735722443,1,['num_0'],0,[0.4720937779638916],,2018_May_06_1139,59.8878899923,sequenceLearningTask,001,091,
min1.png,min2.png,min3.png,min4.png,allBlank.png,,,,['num_7'],,,,,,0,5,5,5,,,,,,,,,['num_7'],6,0.048566094134,1,['num_7'],0,[0.22993489645887166],,2018_May_06_1139,59.8878899923,sequenceLearningTask,001,091,
min1.png,min2.png,min3.png,min4.png,allBlank.png,,,,['num_1'],,,,,,0,5,5,5,,,,,,,,,['num_1'],6,0.0542780869873,1,['num_1'],0,[0.48982339713256806],,2018_May_06_1139,59.8878899923,sequenceLearningTask,001,091,
min1.png,min2.png,min3.png,min4.png,allBlank.png,,,,['num_4'],,,,,,0,5,5,5,,,,,,,,,['num_4'],6,0.0561652642209,1,['num_4'],0,[0.2723717673216015],,2018_May_06_1139,59.8878899923,sequenceLearningTask,001,091,
min1.png,min2.png,min3.png,min4.png,allBlank.png,,,,['num_0'],,,,,,0,5,5,5,,,,,,,,,['num_0'],6,0.052904960583,1,['num_0'],0,[0.29168210248462856],,2018_May_06_1139,59.8878899923,sequenceLearningTask,001,091,
min1.png,min2.png,min3.png,min4.png,allBlank.png,,,,['num_0'],,,,,,0,5,5,5,,,,,,,,,['num_0'],6,0.059722182923,1,['num_0'],0,[0.3002080407459289],,2018_May_06_1139,59.8878899923,sequenceLearningTask,001,091,
min1.png,min2.png,min3.png,min4.png,allBlank.png,,,,['num_4'],,,,,,0,5,5,5,,,,,,,,,['num_4'],6,0.0517037312966,1,['num_4'],0,[0.6583503691945225],,2018_May_06_1139,59.8878899923,sequenceLearningTask,001,091,
min1.png,min2.png,min3.png,min4.png,allBlank.png,,,,['num_1'],,,,,,0,5,5,5,,,,,,,,,['num_1'],6,0.0534243445145,1,['num_1'],0,[0.25756275991443545],,2018_May_06_1139,59.8878899923,sequenceLearningTask,001,091,
min1.png,min2.png,min3.png,min4.png,allBlank.png,,,,['num_0'],,,,,,0,5,5,5,,,,,,,,,['num_0'],6,0.0548421889544,1,['num_0'],0,[0.32257888501044363],,2018_May_06_1139,59.8878899923,sequenceLearningTask,001,091,
min1.png,min2.png,min3.png,min4.png,allBlank.png,,,,['num_7'],,,,,,0,6,6,6,,,,,,,,,['num_7'],7,0.0595227985177,1,['num_7'],0,[0.18256387789733708],,2018_May_06_1139,59.8878899923,sequenceLearningTask,001,091,
min1.png,min2.png,min3.png,min4.png,allBlank.png,,,,['num_1'],,,,,,0,6,6,6,,,,,,,,,['num_1'],7,0.0578391082818,1,['num_1'],0,[0.41966143215540797],,2018_May_06_1139,59.8878899923,sequenceLearningTask,001,091,
min1.png,min2.png,min3.png,min4.png,allBlank.png,,,,['num_4'],,,,,,0,6,6,6,,,,,,,,,['num_4'],7,0.050317066256,1,['num_4'],0,[0.17797844763845205],,2018_May_06_1139,59.8878899923,sequenceLearningTask,001,091,
min1.png,min2.png,min3.png,min4.png,allBlank.png,,,,['num_0'],,,,,,0,6,6,6,,,,,,,,,['num_0'],7,0.0554801368853,1,['num_0'],0,[0.23889283428434283],,2018_May_06_1139,59.8878899923,sequenceLearningTask,001,091,
min1.png,min2.png,min3.png,min4.png,allBlank.png,,,,['num_0'],,,,,,0,6,6,6,,,,,,,,,['num_0'],7,0.0595211575273,1,['num_0'],0,[0.2510876909364015],,2018_May_06_1139,59.8878899923,sequenceLearningTask,001,091,
min1.png,min2.png,min3.png,min4.png,allBlank.png,,,,['num_4'],,,,,,0,6,6,6,,,,,,,,,['num_4'],7,0.0582300821552,1,['num_4'],0,[0.5028904579812661],,2018_May_06_1139,59.8878899923,sequenceLearningTask,001,091,
min1.png,min2.png,min3.png,min4.png,allBlank.png,,,,['num_1'],,,,,,0,6,6,6,,,,,,,,,['num_1'],7,0.0525566532742,1,['num_1'],0,[0.2419828816782683],,2018_May_06_1139,59.8878899923,sequenceLearningTask,001,091,
min1.png,min2.png,min3.png,min4.png,allBlank.png,,,,['num_0'],,,,,,0,6,6,6,,,,,,,,,['num_0'],7,0.0543051639106,0,"['num_7', 'num_0']",0,"[0.19023976591415703, 0.5904636835912243]",,2018_May_06_1139,59.8878899923,sequenceLearningTask,001,091,
min1.png,min2.png,min3.png,min4.png,allBlank.png,,,,['num_7'],,,,,,0,7,7,7,,,,,,,,,['num_7'],8,0.0541176770348,1,['num_7'],0,[0.40453406621236354],,2018_May_06_1139,59.8878899923,sequenceLearningTask,001,091,
min1.png,min2.png,min3.png,min4.png,allBlank.png,,,,['num_1'],,,,,,0,7,7,7,,,,,,,,,['num_1'],8,0.0608286431525,1,['num_1'],0,[0.4494193443097174],,2018_May_06_1139,59.8878899923,sequenceLearningTask,001,091,
min1.png,min2.png,min3.png,min4.png,allBlank.png,,,,['num_4'],,,,,,0,7,7,7,,,,,,,,,['num_4'],8,0.0554711112054,1,['num_4'],0,[0.27155330684036016],,2018_May_06_1139,59.8878899923,sequenceLearningTask,001,091,
min1.png,min2.png,min3.png,min4.png,allBlank.png,,,,['num_0'],,,,,,0,7,7,7,,,,,,,,,['num_0'],8,0.0532048575114,1,['num_0'],0,[0.2754051994998008],,2018_May_06_1139,59.8878899923,sequenceLearningTask,001,091,
min1.png,min2.png,min3.png,min4.png,allBlank.png,,,,['num_0'],,,,,,0,7,7,7,,,,,,,,,['num_0'],8,0.0566428020829,1,['num_0'],0,[0.33834871172439307],,2018_May_06_1139,59.8878899923,sequenceLearningTask,001,091,
min1.png,min2.png,min3.png,min4.png,allBlank.png,,,,['num_4'],,,,,,0,7,7,7,,,,,,,,,['num_4'],8,0.0558071107371,0,"['num_7', 'num_4']",0,"[0.3722009777557105, 0.43875351129099727]",,2018_May_06_1139,59.8878899923,sequenceLearningTask,001,091,
min1.png,min2.png,min3.png,min4.png,allBlank.png,,,,['num_1'],,,,,,0,7,7,7,,,,,,,,,['num_1'],8,0.0637037164997,0,"['num_4', 'num_1']",0,"[0.00031179445795714855, 0.2813826280180365]",,2018_May_06_1139,59.8878899923,sequenceLearningTask,001,091,
min1.png,min2.png,min3.png,min4.png,allBlank.png,,,,['num_0'],,,,,,0,7,7,7,,,,,,,,,['num_0'],8,0.0602190027712,1,['num_0'],0,[0.30203573079779744],,2018_May_06_1139,59.8878899923,sequenceLearningTask,001,091,
min1.png,min2.png,min3.png,min4.png,allBlank.png,,,,['num_7'],,,,,,0,8,8,8,,,,,,,,,['num_7'],9,0.0508032194339,1,['num_7'],0,[0.3749652821570635],,2018_May_06_1139,59.8878899923,sequenceLearningTask,001,091,
min1.png,min2.png,min3.png,min4.png,allBlank.png,,,,['num_1'],,,,,,0,8,8,8,,,,,,,,,['num_1'],9,0.0467523527332,1,['num_1'],0,[0.3651741147041321],,2018_May_06_1139,59.8878899923,sequenceLearningTask,001,091,
min1.png,min2.png,min3.png,min4.png,allBlank.png,,,,['num_4'],,,,,,0,8,8,8,,,,,,,,,['num_4'],9,0.0538772670552,1,['num_4'],0,[0.2254844403360039],,2018_May_06_1139,59.8878899923,sequenceLearningTask,001,091,
min1.png,min2.png,min3.png,min4.png,allBlank.png,,,,['num_0'],,,,,,0,8,8,8,,,,,,,,,['num_0'],9,0.0515228083823,1,['num_0'],0,[0.27698878734372556],,2018_May_06_1139,59.8878899923,sequenceLearningTask,001,091,
min1.png,min2.png,min3.png,min4.png,allBlank.png,,,,['num_0'],,,,,,0,8,8,8,,,,,,,,,['num_0'],9,0.0534604471177,1,['num_0'],0,[0.49154729244764894],,2018_May_06_1139,59.8878899923,sequenceLearningTask,001,091,
min1.png,min2.png,min3.png,min4.png,allBlank.png,,,,['num_4'],,,,,,0,8,8,8,,,,,,,,,['num_4'],9,0.0553336754674,1,['num_4'],0,[0.5903918887488544],,2018_May_06_1139,59.8878899923,sequenceLearningTask,001,091,
min1.png,min2.png,min3.png,min4.png,allBlank.png,,,,['num_1'],,,,,,0,8,8,8,,,,,,,,,['num_1'],9,0.0515117315808,1,['num_1'],0,[0.5763652393361554],,2018_May_06_1139,59.8878899923,sequenceLearningTask,001,091,
min1.png,min2.png,min3.png,min4.png,allBlank.png,,,,['num_0'],,,,,,0,8,8,8,,,,,,,,,['num_0'],9,0.0547109070467,1,['num_0'],0,[0.4900346789509058],,2018_May_06_1139,59.8878899923,sequenceLearningTask,001,091,
min1.png,min2.png,min3.png,min4.png,allBlank.png,,,,['num_7'],,,,,,0,9,9,9,,,,,,,,,['num_7'],10,0.0515720390249,1,['num_7'],0,[0.341711989720352],,2018_May_06_1139,59.8878899923,sequenceLearningTask,001,091,
min1.png,min2.png,min3.png,min4.png,allBlank.png,,,,['num_1'],,,,,,0,9,9,9,,,,,,,,,['num_1'],10,0.0552454704884,1,['num_1'],0,[0.372132875258103],,2018_May_06_1139,59.8878899923,sequenceLearningTask,001,091,
min1.png,min2.png,min3.png,min4.png,allBlank.png,,,,['num_4'],,,,,,0,9,9,9,,,,,,,,,['num_4'],10,0.0534042420331,1,['num_4'],0,[0.2743438674369827],,2018_May_06_1139,59.8878899923,sequenceLearningTask,001,091,
min1.png,min2.png,min3.png,min4.png,allBlank.png,,,,['num_0'],,,,,,0,9,9,9,,,,,,,,,['num_0'],10,0.0548360350076,1,['num_0'],0,[0.3731540022417903],,2018_May_06_1139,59.8878899923,sequenceLearningTask,001,091,
min1.png,min2.png,min3.png,min4.png,allBlank.png,,,,['num_0'],,,,,,0,9,9,9,,,,,,,,,['num_0'],10,0.0506485529477,1,['num_0'],0,[0.494556519552134],,2018_May_06_1139,59.8878899923,sequenceLearningTask,001,091,
min1.png,min2.png,min3.png,min4.png,allBlank.png,,,,['num_4'],,,,,,0,9,9,9,,,,,,,,,['num_4'],10,0.0529320373898,1,['num_4'],0,[0.44236212223768234],,2018_May_06_1139,59.8878899923,sequenceLearningTask,001,091,
min1.png,min2.png,min3.png,min4.png,allBlank.png,,,,['num_1'],,,,,,0,9,9,9,,,,,,,,,['num_1'],10,0.051206911332,1,['num_1'],0,[0.3269879053113982],,2018_May_06_1139,59.8878899923,sequenceLearningTask,001,091,
min1.png,min2.png,min3.png,min4.png,allBlank.png,,,,['num_0'],,,,,,0,9,9,9,,,,,,,,,['num_0'],10,0.0571896733018,1,['num_0'],0,[0.5373248771065846],,2018_May_06_1139,59.8878899923,sequenceLearningTask,001,091,
min1.png,min2.png,min3.png,min4.png,images/allBlank.png,images/min2.png,'num_4',"['num_7', 'num_4', 'num_1', 'num_0']",['num_4'],num_4,,,,,0,9,9,9,0,0,0,1,,,,,['num_4'],,0.0626485382672,1,['num_4'],0,[0.6167175999144092],1,2018_May_06_1139,59.8878899923,sequenceLearningTask,001,091,
min1.png,min2.png,min3.png,min4.png,images/allBlank.png,images/min4.png,'num_0',"['num_7', 'num_4', 'num_1', 'num_0']",['num_0'],num_0,,,,,0,9,9,9,0,1,1,3,,,,,['num_0'],,0.0549656759249,0,"['num_1', 'num_0']",0,"[0.28735144122038037, 0.5546483430080116]",0,2018_May_06_1139,59.8878899923,sequenceLearningTask,001,091,
min1.png,min2.png,min3.png,min4.png,images/allBlank.png,images/min1.png,'num_7',"['num_7', 'num_4', 'num_1', 'num_0']",['num_7'],num_7,,,,,0,9,9,9,0,2,2,0,,,,,['num_7'],,0.056084033451,1,['num_7'],0,[0.40316832426469773],1,2018_May_06_1139,59.8878899923,sequenceLearningTask,001,091,
min1.png,min2.png,min3.png,min4.png,images/allBlank.png,images/min3.png,'num_1',"['num_7', 'num_4', 'num_1', 'num_0']",['num_1'],num_1,,,,,0,9,9,9,0,3,3,2,,,,,['num_1'],,0.0526678325841,1,['num_1'],0,[0.32365129387471825],1,2018_May_06_1139,59.8878899923,sequenceLearningTask,001,091,
min1.png,min2.png,min3.png,min4.png,images/allBlank.png,images/min2.png,'num_4',"['num_7', 'num_4', 'num_1', 'num_0']",['num_4'],num_4,,,,,0,9,9,9,1,0,4,1,,,,,['num_4'],,0.050915629603,1,['num_4'],0,[0.29099615465383977],1,2018_May_06_1139,59.8878899923,sequenceLearningTask,001,091,
min1.png,min2.png,min3.png,min4.png,images/allBlank.png,images/min3.png,'num_1',"['num_7', 'num_4', 'num_1', 'num_0']",['num_1'],num_1,,,,,0,9,9,9,1,1,5,2,,,,,['num_1'],,0.0558350081556,0,"['num_0', 'num_1']",0,"[0.3032480371184647, 0.6205231337808073]",0,2018_May_06_1139,59.8878899923,sequenceLearningTask,001,091,
min1.png,min2.png,min3.png,min4.png,images/allBlank.png,images/min1.png,'num_7',"['num_7', 'num_4', 'num_1', 'num_0']",['num_7'],num_7,,,,,0,9,9,9,1,2,6,0,,,,,['num_7'],,0.0525701916777,1,['num_7'],0,[0.5229060230776668],1,2018_May_06_1139,59.8878899923,sequenceLearningTask,001,091,
min1.png,min2.png,min3.png,min4.png,images/allBlank.png,images/min4.png,'num_0',"['num_7', 'num_4', 'num_1', 'num_0']",['num_0'],num_0,,,,,0,9,9,9,1,3,7,3,,,,,['num_0'],,0.0505098865833,1,['num_0'],0,[0.5577970570884645],1,2018_May_06_1139,59.8878899923,sequenceLearningTask,001,091,
min1.png,min2.png,min3.png,min4.png,images/allBlank.png,images/min1.png,'num_7',"['num_7', 'num_4', 'num_1', 'num_0']",['num_7'],num_7,,,,,0,9,9,9,2,0,8,0,,,,,['num_7'],,0.060784335481,1,['num_7'],0,[0.463755736942403],1,2018_May_06_1139,59.8878899923,sequenceLearningTask,001,091,
min1.png,min2.png,min3.png,min4.png,images/allBlank.png,images/min2.png,'num_4',"['num_7', 'num_4', 'num_1', 'num_0']",['num_4'],num_4,,,,,0,9,9,9,2,1,9,1,,,,,['num_4'],,0.0559457773343,1,['num_4'],0,[0.5878745585214347],1,2018_May_06_1139,59.8878899923,sequenceLearningTask,001,091,
min1.png,min2.png,min3.png,min4.png,images/allBlank.png,images/min3.png,'num_1',"['num_7', 'num_4', 'num_1', 'num_0']",['num_1'],num_1,,,,,0,9,9,9,2,2,10,2,,,,,['num_1'],,0.0534054727759,1,['num_1'],0,[0.42137425066903234],1,2018_May_06_1139,59.8878899923,sequenceLearningTask,001,091,
min1.png,min2.png,min3.png,min4.png,images/allBlank.png,images/min4.png,'num_0',"['num_7', 'num_4', 'num_1', 'num_0']",['num_0'],num_0,,,,,0,9,9,9,2,3,11,3,,,,,['num_0'],,0.054509471287,1,['num_0'],0,[0.2549465580377728],1,2018_May_06_1139,59.8878899923,sequenceLearningTask,001,091,
min1.png,min2.png,min3.png,min4.png,images/allBlank.png,images/min3.png,'num_1',"['num_7', 'num_4', 'num_1', 'num_0']",['num_1'],num_1,,,,,0,9,9,9,3,0,12,2,,,,,['num_1'],,0.051258193329,1,['num_1'],0,[0.44076335499994457],1,2018_May_06_1139,59.8878899923,sequenceLearningTask,001,091,
min1.png,min2.png,min3.png,min4.png,images/allBlank.png,images/min1.png,'num_7',"['num_7', 'num_4', 'num_1', 'num_0']",['num_7'],num_7,,,,,0,9,9,9,3,1,13,0,,,,,['num_7'],,0.0638161265524,0,"['num_4', 'num_7']",0,"[0.1910610981285572, 0.6103282744297758]",0,2018_May_06_1139,59.8878899923,sequenceLearningTask,001,091,
min1.png,min2.png,min3.png,min4.png,images/allBlank.png,images/min4.png,'num_0',"['num_7', 'num_4', 'num_1', 'num_0']",['num_0'],num_0,,,,,0,9,9,9,3,2,14,3,,,,,['num_0'],,0.0565808535321,1,['num_0'],0,[0.3843552191974595],1,2018_May_06_1139,59.8878899923,sequenceLearningTask,001,091,
min1.png,min2.png,min3.png,min4.png,images/allBlank.png,images/min2.png,'num_4',"['num_7', 'num_4', 'num_1', 'num_0']",['num_4'],num_4,,,,,0,9,9,9,3,3,15,1,,,,,['num_4'],,0.0562575717922,1,['num_4'],0,[0.5708641179371625],1,2018_May_06_1139,59.8878899923,sequenceLearningTask,001,091,
min1.png,min2.png,min3.png,min4.png,images/allBlank.png,images/min4.png,'num_0',"['num_7', 'num_4', 'num_1', 'num_0']",['num_0'],num_0,,,,,0,9,9,9,4,0,16,3,,,,,['num_0'],,0.0602592079667,1,['num_0'],0,[0.648701150319539],1,2018_May_06_1139,59.8878899923,sequenceLearningTask,001,091,
min1.png,min2.png,min3.png,min4.png,images/allBlank.png,images/min2.png,'num_4',"['num_7', 'num_4', 'num_1', 'num_0']",['num_4'],num_4,,,,,0,9,9,9,4,1,17,1,,,,,['num_4'],,0.0538161388831,1,['num_4'],0,[0.6058499210048467],1,2018_May_06_1139,59.8878899923,sequenceLearningTask,001,091,
min1.png,min2.png,min3.png,min4.png,images/allBlank.png,images/min3.png,'num_1',"['num_7', 'num_4', 'num_1', 'num_0']",['num_1'],num_1,,,,,0,9,9,9,4,2,18,2,,,,,['num_1'],,0.054018395138,1,['num_1'],0,[0.3387958906823769],1,2018_May_06_1139,59.8878899923,sequenceLearningTask,001,091,
min1.png,min2.png,min3.png,min4.png,images/allBlank.png,images/min1.png,'num_7',"['num_7', 'num_4', 'num_1', 'num_0']",['num_7'],num_7,,,,,0,9,9,9,4,3,19,0,,,,,['num_7'],,0.0585541842738,1,['num_7'],0,[0.43144890491385013],1,2018_May_06_1139,59.8878899923,sequenceLearningTask,001,091,
min1.png,min2.png,min3.png,min4.png,images/allBlank.png,images/min2.png,'num_4',"['num_7', 'num_4', 'num_1', 'num_0']",['num_4'],num_4,,,,,0,9,9,9,5,0,20,1,,,,,['num_4'],,0.050361784175,1,['num_4'],0,[0.5593355167657137],1,2018_May_06_1139,59.8878899923,sequenceLearningTask,001,091,
min1.png,min2.png,min3.png,min4.png,images/allBlank.png,images/min3.png,'num_1',"['num_7', 'num_4', 'num_1', 'num_0']",['num_1'],num_1,,,,,0,9,9,9,5,1,21,2,,,,,['num_1'],,0.0552171628224,1,['num_1'],0,[0.31940965820103884],1,2018_May_06_1139,59.8878899923,sequenceLearningTask,001,091,
min1.png,min2.png,min3.png,min4.png,images/allBlank.png,images/min1.png,'num_7',"['num_7', 'num_4', 'num_1', 'num_0']",['num_7'],num_7,,,,,0,9,9,9,5,2,22,0,,,,,['num_7'],,0.0560922386358,1,['num_7'],0,[0.48484658275265247],1,2018_May_06_1139,59.8878899923,sequenceLearningTask,001,091,
min1.png,min2.png,min3.png,min4.png,images/allBlank.png,images/min4.png,'num_0',"['num_7', 'num_4', 'num_1', 'num_0']",['num_0'],num_0,,,,,0,9,9,9,5,3,23,3,,,,,['num_0'],,0.054702701862,1,['num_0'],0,[0.3876631126040593],1,2018_May_06_1139,59.8878899923,sequenceLearningTask,001,091,
min1.png,min2.png,min3.png,min4.png,images/allBlank.png,images/min1.png,'num_7',"['num_7', 'num_4', 'num_1', 'num_0']",['num_7'],num_7,,,,,0,9,9,9,6,0,24,0,,,,,['num_7'],,0.0490702986717,0,"['num_4', 'num_7']",0,"[0.4104130333289504, 0.811699103564024]",0,2018_May_06_1139,59.8878899923,sequenceLearningTask,001,091,
min1.png,min2.png,min3.png,min4.png,images/allBlank.png,images/min2.png,'num_4',"['num_7', 'num_4', 'num_1', 'num_0']",['num_4'],num_4,,,,,0,9,9,9,6,1,25,1,,,,,['num_4'],,0.0525008584373,0,"['num_7', 'num_4']",0,"[0.38952198217157274, 0.5899065560661256]",0,2018_May_06_1139,59.8878899923,sequenceLearningTask,001,091,
min1.png,min2.png,min3.png,min4.png,images/allBlank.png,images/min3.png,'num_1',"['num_7', 'num_4', 'num_1', 'num_0']",['num_1'],num_1,,,,,0,9,9,9,6,2,26,2,,,,,['num_1'],,0.0506957324687,0,"['num_4', 'num_1']",0,"[0.37497553846333176, 0.7090916400775313]",0,2018_May_06_1139,59.8878899923,sequenceLearningTask,001,091,
min1.png,min2.png,min3.png,min4.png,images/allBlank.png,images/min4.png,'num_0',"['num_7', 'num_4', 'num_1', 'num_0']",['num_0'],num_0,,,,,0,9,9,9,6,3,27,3,,,,,['num_0'],,0.058250184753,1,['num_0'],0,[0.4176835884572938],1,2018_May_06_1139,59.8878899923,sequenceLearningTask,001,091,
min1.png,min2.png,min3.png,min4.png,images/allBlank.png,images/min3.png,'num_1',"['num_7', 'num_4', 'num_1', 'num_0']",['num_1'],num_1,,,,,0,9,9,9,7,0,28,2,,,,,['num_1'],,0.059377567959,1,['num_1'],0,[0.5814507715404034],1,2018_May_06_1139,59.8878899923,sequenceLearningTask,001,091,
min1.png,min2.png,min3.png,min4.png,images/allBlank.png,images/min4.png,'num_0',"['num_7', 'num_4', 'num_1', 'num_0']",['num_0'],num_0,,,,,0,9,9,9,7,1,29,3,,,,,['num_0'],,0.0584881331306,1,['num_0'],0,[0.5165962872561067],1,2018_May_06_1139,59.8878899923,sequenceLearningTask,001,091,
min1.png,min2.png,min3.png,min4.png,images/allBlank.png,images/min2.png,'num_4',"['num_7', 'num_4', 'num_1', 'num_0']",['num_4'],num_4,,,,,0,9,9,9,7,2,30,1,,,,,['num_4'],,0.0565143920248,1,['num_4'],0,[0.5856870739953592],1,2018_May_06_1139,59.8878899923,sequenceLearningTask,001,091,
min1.png,min2.png,min3.png,min4.png,images/allBlank.png,images/min1.png,'num_7',"['num_7', 'num_4', 'num_1', 'num_0']",['num_7'],num_7,,,,,0,9,9,9,7,3,31,0,,,,,['num_7'],,0.0523929611081,0,"['num_4', 'num_7']",0,"[0.4548950297757983, 0.7395806281128898]",0,2018_May_06_1139,59.8878899923,sequenceLearningTask,001,091,
min1.png,min2.png,min3.png,min4.png,images/allBlank.png,images/min1.png,'num_7',"['num_7', 'num_4', 'num_1', 'num_0']",['num_7'],num_7,,,,,0,9,9,9,8,0,32,0,,,,,['num_7'],,0.0486210683594,1,['num_7'],0,[0.6608836994273588],1,2018_May_06_1139,59.8878899923,sequenceLearningTask,001,091,
min1.png,min2.png,min3.png,min4.png,images/allBlank.png,images/min4.png,'num_0',"['num_7', 'num_4', 'num_1', 'num_0']",['num_0'],num_0,,,,,0,9,9,9,8,1,33,3,,,,,['num_0'],,0.053224139614,1,['num_0'],0,[0.5393252850044519],1,2018_May_06_1139,59.8878899923,sequenceLearningTask,001,091,
min1.png,min2.png,min3.png,min4.png,images/allBlank.png,images/min2.png,'num_4',"['num_7', 'num_4', 'num_1', 'num_0']",['num_4'],num_4,,,,,0,9,9,9,8,2,34,1,,,,,['num_4'],,0.0560700849164,1,['num_4'],0,[0.535037700436078],1,2018_May_06_1139,59.8878899923,sequenceLearningTask,001,091,
min1.png,min2.png,min3.png,min4.png,images/allBlank.png,images/min3.png,'num_1',"['num_7', 'num_4', 'num_1', 'num_0']",['num_1'],num_1,,,,,0,9,9,9,8,3,35,2,,,,,['num_1'],,0.0539863951271,1,['num_1'],0,[0.5381269273348153],1,2018_May_06_1139,59.8878899923,sequenceLearningTask,001,091,
min1.png,min2.png,min3.png,min4.png,images/allBlank.png,images/min1.png,'num_7',"['num_7', 'num_4', 'num_1', 'num_0']",['num_7'],num_7,,,,,0,9,9,9,9,0,36,0,,,,,['num_7'],,0.0530592168216,1,['num_7'],0,[0.5396407716907561],1,2018_May_06_1139,59.8878899923,sequenceLearningTask,001,091,
min1.png,min2.png,min3.png,min4.png,images/allBlank.png,images/min4.png,'num_0',"['num_7', 'num_4', 'num_1', 'num_0']",['num_0'],num_0,,,,,0,9,9,9,9,1,37,3,,,,,['num_0'],,0.0467539937235,1,['num_0'],0,[0.46358178835362196],1,2018_May_06_1139,59.8878899923,sequenceLearningTask,001,091,
min1.png,min2.png,min3.png,min4.png,images/allBlank.png,images/min3.png,'num_1',"['num_7', 'num_4', 'num_1', 'num_0']",['num_1'],num_1,,,,,0,9,9,9,9,2,38,2,,,,,['num_1'],,0.0485357351135,1,['num_1'],0,[0.42791783227585256],1,2018_May_06_1139,59.8878899923,sequenceLearningTask,001,091,
min1.png,min2.png,min3.png,min4.png,images/allBlank.png,images/min2.png,'num_4',"['num_7', 'num_4', 'num_1', 'num_0']",['num_4'],num_4,,,,,0,9,9,9,9,3,39,1,,,,,['num_4'],,0.0539712156169,1,['num_4'],0,[0.4541229282040149],1,2018_May_06_1139,59.8878899923,sequenceLearningTask,001,091,
min1.png,min2.png,min3.png,min4.png,images/allBlank.png,images/min1.png,'num_7',"['num_7', 'num_4', 'num_1', 'num_0']",['num_7'],num_7,,,,,0,9,9,9,10,0,40,0,,,,,['num_7'],,0.0503285534214,1,['num_7'],0,[0.4923025736352429],1,2018_May_06_1139,59.8878899923,sequenceLearningTask,001,091,
min1.png,min2.png,min3.png,min4.png,images/allBlank.png,images/min3.png,'num_1',"['num_7', 'num_4', 'num_1', 'num_0']",['num_1'],num_1,,,,,0,9,9,9,10,1,41,2,,,,,['num_1'],,0.0535232161637,1,['num_1'],0,[0.7561927103670314],1,2018_May_06_1139,59.8878899923,sequenceLearningTask,001,091,
min1.png,min2.png,min3.png,min4.png,images/allBlank.png,images/min4.png,'num_0',"['num_7', 'num_4', 'num_1', 'num_0']",['num_0'],num_0,,,,,0,9,9,9,10,2,42,3,,,,,['num_0'],,0.0520819871454,1,['num_0'],0,[0.5907795806415379],1,2018_May_06_1139,59.8878899923,sequenceLearningTask,001,091,
min1.png,min2.png,min3.png,min4.png,images/allBlank.png,images/min2.png,'num_4',"['num_7', 'num_4', 'num_1', 'num_0']",['num_4'],num_4,,,,,0,9,9,9,10,3,43,1,,,,,['num_4'],,0.050470912247,1,['num_4'],0,[0.5256764811929315],1,2018_May_06_1139,59.8878899923,sequenceLearningTask,001,091,
min1.png,min2.png,min3.png,min4.png,images/allBlank.png,images/min4.png,'num_0',"['num_7', 'num_4', 'num_1', 'num_0']",['num_0'],num_0,,,,,0,9,9,9,11,0,44,3,,,,,['num_0'],,0.0487691707676,1,['num_0'],0,[0.4589955375995487],1,2018_May_06_1139,59.8878899923,sequenceLearningTask,001,091,
min1.png,min2.png,min3.png,min4.png,images/allBlank.png,images/min3.png,'num_1',"['num_7', 'num_4', 'num_1', 'num_0']",['num_1'],num_1,,,,,0,9,9,9,11,1,45,2,,,,,['num_1'],,0.0545390098123,1,['num_1'],0,[0.6719749678159133],1,2018_May_06_1139,59.8878899923,sequenceLearningTask,001,091,
min1.png,min2.png,min3.png,min4.png,images/allBlank.png,images/min2.png,'num_4',"['num_7', 'num_4', 'num_1', 'num_0']",['num_4'],num_4,,,,,0,9,9,9,11,2,46,1,,,,,['num_4'],,0.0585053638788,0,"['num_7', 'num_4']",0,"[0.4499617025721818, 0.8674139067297801]",0,2018_May_06_1139,59.8878899923,sequenceLearningTask,001,091,
min1.png,min2.png,min3.png,min4.png,images/allBlank.png,images/min1.png,'num_7',"['num_7', 'num_4', 'num_1', 'num_0']",['num_7'],num_7,,,,,0,9,9,9,11,3,47,0,,,,,['num_7'],,0.051635628799,1,['num_7'],0,[0.39059398078825325],1,2018_May_06_1139,59.8878899923,sequenceLearningTask,001,091,
min1.png,min2.png,min3.png,min4.png,images/allBlank.png,images/min1.png,'num_7',"['num_7', 'num_4', 'num_1', 'num_0']",['num_7'],num_7,,,,,0,9,9,9,12,0,48,0,,,,,['num_7'],,0.0566698790062,1,['num_7'],0,[0.5846971265273169],1,2018_May_06_1139,59.8878899923,sequenceLearningTask,001,091,
min1.png,min2.png,min3.png,min4.png,images/allBlank.png,images/min3.png,'num_1',"['num_7', 'num_4', 'num_1', 'num_0']",['num_1'],num_1,,,,,0,9,9,9,12,1,49,2,,,,,['num_1'],,0.0482473252341,0,"['num_0', 'num_1']",0,"[0.49456431448925287, 0.994792211567983]",0,2018_May_06_1139,59.8878899923,sequenceLearningTask,001,091,
min1.png,min2.png,min3.png,min4.png,images/allBlank.png,images/min2.png,'num_4',"['num_7', 'num_4', 'num_1', 'num_0']",['num_4'],num_4,,,,,0,9,9,9,12,2,50,1,,,,,['num_4'],,0.0534021906788,1,['num_4'],0,[0.6732742483727634],1,2018_May_06_1139,59.8878899923,sequenceLearningTask,001,091,
min1.png,min2.png,min3.png,min4.png,images/allBlank.png,images/min4.png,'num_0',"['num_7', 'num_4', 'num_1', 'num_0']",['num_0'],num_0,,,,,0,9,9,9,12,3,51,3,,,,,['num_0'],,0.0518169618445,1,['num_0'],0,[0.3412110672798008],1,2018_May_06_1139,59.8878899923,sequenceLearningTask,001,091,
min1.png,min2.png,min3.png,min4.png,images/allBlank.png,images/min2.png,'num_4',"['num_7', 'num_4', 'num_1', 'num_0']",['num_4'],num_4,,,,,0,9,9,9,13,0,52,1,,,,,['num_4'],,0.0522300895536,1,['num_4'],0,[0.45838343584910035],1,2018_May_06_1139,59.8878899923,sequenceLearningTask,001,091,
min1.png,min2.png,min3.png,min4.png,images/allBlank.png,images/min1.png,'num_7',"['num_7', 'num_4', 'num_1', 'num_0']",['num_7'],num_7,,,,,0,9,9,9,13,1,53,0,,,,,['num_7'],,0.0527560375631,1,['num_7'],0,[0.5566729558631778],1,2018_May_06_1139,59.8878899923,sequenceLearningTask,001,091,
min1.png,min2.png,min3.png,min4.png,images/allBlank.png,images/min3.png,'num_1',"['num_7', 'num_4', 'num_1', 'num_0']",['num_1'],num_1,,,,,0,9,9,9,13,2,54,2,,,,,['num_1'],,0.0538325491361,1,['num_1'],0,[0.42095332802273333],1,2018_May_06_1139,59.8878899923,sequenceLearningTask,001,091,
min1.png,min2.png,min3.png,min4.png,images/allBlank.png,images/min4.png,'num_0',"['num_7', 'num_4', 'num_1', 'num_0']",['num_0'],num_0,,,,,0,9,9,9,13,3,55,3,,,,,['num_0'],,0.0525148070883,1,['num_0'],0,[0.456076156697236],1,2018_May_06_1139,59.8878899923,sequenceLearningTask,001,091,
min1.png,min2.png,min3.png,min4.png,images/allBlank.png,images/min2.png,'num_4',"['num_7', 'num_4', 'num_1', 'num_0']",['num_4'],num_4,,,,,0,9,9,9,14,0,56,1,,,,,['num_4'],,0.0551937781274,1,['num_4'],0,[0.371321389102377],1,2018_May_06_1139,59.8878899923,sequenceLearningTask,001,091,
min1.png,min2.png,min3.png,min4.png,images/allBlank.png,images/min3.png,'num_1',"['num_7', 'num_4', 'num_1', 'num_0']",['num_1'],num_1,,,,,0,9,9,9,14,1,57,2,,,,,['num_1'],,0.0527974735014,1,['num_1'],0,[0.340349119505845],1,2018_May_06_1139,59.8878899923,sequenceLearningTask,001,091,
min1.png,min2.png,min3.png,min4.png,images/allBlank.png,images/min1.png,'num_7',"['num_7', 'num_4', 'num_1', 'num_0']",['num_7'],num_7,,,,,0,9,9,9,14,2,58,0,,,,,['num_7'],,0.0572869038442,1,['num_7'],0,[0.3500278767896816],1,2018_May_06_1139,59.8878899923,sequenceLearningTask,001,091,
min1.png,min2.png,min3.png,min4.png,images/allBlank.png,images/min4.png,'num_0',"['num_7', 'num_4', 'num_1', 'num_0']",['num_0'],num_0,,,,,0,9,9,9,14,3,59,3,,,,,['num_0'],,0.0601004387718,1,['num_0'],0,[0.4977528232848272],1,2018_May_06_1139,59.8878899923,sequenceLearningTask,001,091,
min1.png,min2.png,min3.png,min4.png,images/allBlank.png,images/min4.png,'num_0',"['num_7', 'num_4', 'num_1', 'num_0']",['num_0'],num_0,,,,,0,9,9,9,15,0,60,3,,,,,['num_0'],,0.0515859877924,1,['num_0'],0,[0.5081343489000574],1,2018_May_06_1139,59.8878899923,sequenceLearningTask,001,091,
min1.png,min2.png,min3.png,min4.png,images/allBlank.png,images/min1.png,'num_7',"['num_7', 'num_4', 'num_1', 'num_0']",['num_7'],num_7,,,,,0,9,9,9,15,1,61,0,,,,,['num_7'],,0.059295927058,1,['num_7'],0,[0.4813150998670608],1,2018_May_06_1139,59.8878899923,sequenceLearningTask,001,091,
min1.png,min2.png,min3.png,min4.png,images/allBlank.png,images/min2.png,'num_4',"['num_7', 'num_4', 'num_1', 'num_0']",['num_4'],num_4,,,,,0,9,9,9,15,2,62,1,,,,,['num_4'],,0.0589947991539,1,['num_4'],0,[0.3154867911944166],1,2018_May_06_1139,59.8878899923,sequenceLearningTask,001,091,
min1.png,min2.png,min3.png,min4.png,images/allBlank.png,images/min3.png,'num_1',"['num_7', 'num_4', 'num_1', 'num_0']",['num_1'],num_1,,,,,0,9,9,9,15,3,63,2,,,,,['num_1'],,0.0531708063791,1,['num_1'],0,[0.2883836451219395],1,2018_May_06_1139,59.8878899923,sequenceLearningTask,001,091,
min1.png,min2.png,min3.png,min4.png,images/allBlank.png,images/min1.png,'num_7',"['num_7', 'num_4', 'num_1', 'num_0']",['num_7'],num_7,,,,,0,9,9,9,16,0,64,0,,,,,['num_7'],,0.0591363374842,1,['num_7'],0,[0.4999345641117543],1,2018_May_06_1139,59.8878899923,sequenceLearningTask,001,091,
min1.png,min2.png,min3.png,min4.png,images/allBlank.png,images/min3.png,'num_1',"['num_7', 'num_4', 'num_1', 'num_0']",['num_1'],num_1,,,,,0,9,9,9,16,1,65,2,,,,,['num_1'],,0.054614907247,1,['num_1'],0,[0.48743160523008555],1,2018_May_06_1139,59.8878899923,sequenceLearningTask,001,091,
min1.png,min2.png,min3.png,min4.png,images/allBlank.png,images/min4.png,'num_0',"['num_7', 'num_4', 'num_1', 'num_0']",['num_0'],num_0,,,,,0,9,9,9,16,2,66,3,,,,,['num_0'],,0.0540224976139,1,['num_0'],0,[0.5038607132155448],1,2018_May_06_1139,59.8878899923,sequenceLearningTask,001,091,
min1.png,min2.png,min3.png,min4.png,images/allBlank.png,images/min2.png,'num_4',"['num_7', 'num_4', 'num_1', 'num_0']",['num_4'],num_4,,,,,0,9,9,9,16,3,67,1,,,,,['num_4'],,0.0586883380311,1,['num_4'],0,[0.4165820514317602],1,2018_May_06_1139,59.8878899923,sequenceLearningTask,001,091,
min1.png,min2.png,min3.png,min4.png,images/allBlank.png,images/min1.png,'num_7',"['num_7', 'num_4', 'num_1', 'num_0']",['num_7'],num_7,,,,,0,9,9,9,17,0,68,0,,,,,['num_7'],,0.0536791135091,1,['num_7'],0,[0.6377469074213877],1,2018_May_06_1139,59.8878899923,sequenceLearningTask,001,091,
min1.png,min2.png,min3.png,min4.png,images/allBlank.png,images/min4.png,'num_0',"['num_7', 'num_4', 'num_1', 'num_0']",['num_0'],num_0,,,,,0,9,9,9,17,1,69,3,,,,,['num_0'],,0.0502128612716,1,['num_0'],0,[0.6248923590173945],1,2018_May_06_1139,59.8878899923,sequenceLearningTask,001,091,
min1.png,min2.png,min3.png,min4.png,images/allBlank.png,images/min3.png,'num_1',"['num_7', 'num_4', 'num_1', 'num_0']",['num_1'],num_1,,,,,0,9,9,9,17,2,70,2,,,,,['num_1'],,0.0569550067885,1,['num_1'],0,[0.33492922876030207],1,2018_May_06_1139,59.8878899923,sequenceLearningTask,001,091,
min1.png,min2.png,min3.png,min4.png,images/allBlank.png,images/min2.png,'num_4',"['num_7', 'num_4', 'num_1', 'num_0']",['num_4'],num_4,,,,,0,9,9,9,17,3,71,1,,,,,['num_4'],,0.0584093640791,1,['num_4'],0,[0.28463472658768296],1,2018_May_06_1139,59.8878899923,sequenceLearningTask,001,091,
min1.png,min2.png,min3.png,min4.png,images/allBlank.png,images/min3.png,'num_1',"['num_7', 'num_4', 'num_1', 'num_0']",['num_1'],num_1,,,,,0,9,9,9,18,0,72,2,,,,,['num_1'],,0.0532581908628,0,"['num_0', 'num_1']",0,"[0.47226157260593027, 0.8059526490978897]",0,2018_May_06_1139,59.8878899923,sequenceLearningTask,001,091,
min1.png,min2.png,min3.png,min4.png,images/allBlank.png,images/min4.png,'num_0',"['num_7', 'num_4', 'num_1', 'num_0']",['num_0'],num_0,,,,,0,9,9,9,18,1,73,3,,,,,['num_0'],,0.0586604406126,1,['num_0'],0,[0.39901489356998354],1,2018_May_06_1139,59.8878899923,sequenceLearningTask,001,091,
min1.png,min2.png,min3.png,min4.png,images/allBlank.png,images/min1.png,'num_7',"['num_7', 'num_4', 'num_1', 'num_0']",['num_7'],num_7,,,,,0,9,9,9,18,2,74,0,,,,,['num_7'],,0.0564668022562,1,['num_7'],0,[0.4184191772947088],1,2018_May_06_1139,59.8878899923,sequenceLearningTask,001,091,
min1.png,min2.png,min3.png,min4.png,images/allBlank.png,images/min2.png,'num_4',"['num_7', 'num_4', 'num_1', 'num_0']",['num_4'],num_4,,,,,0,9,9,9,18,3,75,1,,,,,['num_4'],,0.0618280264316,1,['num_4'],0,[0.49558790284208953],1,2018_May_06_1139,59.8878899923,sequenceLearningTask,001,091,
min1.png,min2.png,min3.png,min4.png,images/allBlank.png,images/min2.png,'num_4',"['num_7', 'num_4', 'num_1', 'num_0']",['num_4'],num_4,,,,,0,9,9,9,19,0,76,1,,,,,['num_4'],,0.0530263961991,0,"['num_1', 'num_4']",0,"[0.3724303109338507, 0.6902928940253332]",0,2018_May_06_1139,59.8878899923,sequenceLearningTask,001,091,
min1.png,min2.png,min3.png,min4.png,images/allBlank.png,images/min3.png,'num_1',"['num_7', 'num_4', 'num_1', 'num_0']",['num_1'],num_1,,,,,0,9,9,9,19,1,77,2,,,,,['num_1'],,0.0559379823972,1,['num_1'],0,[0.5019846128998324],1,2018_May_06_1139,59.8878899923,sequenceLearningTask,001,091,
min1.png,min2.png,min3.png,min4.png,images/allBlank.png,images/min4.png,'num_0',"['num_7', 'num_4', 'num_1', 'num_0']",['num_0'],num_0,,,,,0,9,9,9,19,2,78,3,,,,,['num_0'],,0.0535904980497,1,['num_0'],0,[0.38795275322627276],1,2018_May_06_1139,59.8878899923,sequenceLearningTask,001,091,
min1.png,min2.png,min3.png,min4.png,images/allBlank.png,images/min1.png,'num_7',"['num_7', 'num_4', 'num_1', 'num_0']",['num_7'],num_7,,,,,0,9,9,9,19,3,79,0,,,,,['num_7'],,0.0538555234671,1,['num_7'],0,[0.67083486658521],1,2018_May_06_1139,59.8878899923,sequenceLearningTask,001,091,
min1.png,min2.png,min3.png,min4.png,allBlank.png,,,,['num_7'],,,,,,0,0,0,0,,,,,,,,,['num_7'],1,0.0611371555133,1,['num_7'],0,[0.5834413331467658],,2018_May_06_1139,59.8878899923,sequenceLearningTask,001,091,
min1.png,min2.png,min3.png,min4.png,allBlank.png,,,,['num_1'],,,,,,0,0,0,0,,,,,,,,,['num_1'],1,0.0666563281557,0,"['num_0', 'num_1']",0,"[0.2751807894092053, 0.5918905534781516]",,2018_May_06_1139,59.8878899923,sequenceLearningTask,001,091,
min1.png,min2.png,min3.png,min4.png,allBlank.png,,,,['num_4'],,,,,,0,0,0,0,,,,,,,,,['num_4'],1,0.0490936831338,1,['num_4'],0,[0.5958614203846082],,2018_May_06_1139,59.8878899923,sequenceLearningTask,001,091,
min1.png,min2.png,min3.png,min4.png,allBlank.png,,,,['num_0'],,,,,,0,0,0,0,,,,,,,,,['num_0'],1,0.0579978772439,1,['num_0'],0,[0.48685847769957036],,2018_May_06_1139,59.8878899923,sequenceLearningTask,001,091,
min1.png,min2.png,min3.png,min4.png,allBlank.png,,,,['num_0'],,,,,,0,0,0,0,,,,,,,,,['num_0'],1,0.057560544461,1,['num_0'],0,[0.5695837092353031],,2018_May_06_1139,59.8878899923,sequenceLearningTask,001,091,
min1.png,min2.png,min3.png,min4.png,allBlank.png,,,,['num_4'],,,,,,0,0,0,0,,,,,,,,,['num_4'],1,0.0531334730331,1,['num_4'],0,[0.623956975643523],,2018_May_06_1139,59.8878899923,sequenceLearningTask,001,091,
min1.png,min2.png,min3.png,min4.png,allBlank.png,,,,['num_1'],,,,,,0,0,0,0,,,,,,,,,['num_1'],1,0.0552832139656,1,['num_1'],0,[0.5389560546027496],,2018_May_06_1139,59.8878899923,sequenceLearningTask,001,091,
min1.png,min2.png,min3.png,min4.png,allBlank.png,,,,['num_0'],,,,,,0,0,0,0,,,,,,,,,['num_0'],1,0.0608512071194,1,['num_0'],0,[0.4833725333446637],,2018_May_06_1139,59.8878899923,sequenceLearningTask,001,091,
min1.png,min2.png,min3.png,min4.png,allBlank.png,,,,['num_7'],,,,,,0,1,1,1,,,,,,,,,['num_7'],2,0.0596249522641,1,['num_7'],0,[0.33260800095740706],,2018_May_06_1139,59.8878899923,sequenceLearningTask,001,091,
min1.png,min2.png,min3.png,min4.png,allBlank.png,,,,['num_1'],,,,,,0,1,1,1,,,,,,,,,['num_1'],2,0.0587716199225,0,"['num_4', 'num_1']",0,"[0.40130083938129246, 0.686099668382667]",,2018_May_06_1139,59.8878899923,sequenceLearningTask,001,091,
min1.png,min2.png,min3.png,min4.png,allBlank.png,,,,['num_4'],,,,,,0,1,1,1,,,,,,,,,['num_4'],2,0.0512938855682,1,['num_4'],0,[0.40914247080218047],,2018_May_06_1139,59.8878899923,sequenceLearningTask,001,091,
min1.png,min2.png,min3.png,min4.png,allBlank.png,,,,['num_0'],,,,,,0,1,1,1,,,,,,,,,['num_0'],2,0.057456339593,1,['num_0'],0,[0.4871575542492792],,2018_May_06_1139,59.8878899923,sequenceLearningTask,001,091,
min1.png,min2.png,min3.png,min4.png,allBlank.png,,,,['num_0'],,,,,,0,1,1,1,,,,,,,,,['num_0'],2,0.0633094605291,1,['num_0'],0,[0.4472068342147395],,2018_May_06_1139,59.8878899923,sequenceLearningTask,001,091,
min1.png,min2.png,min3.png,min4.png,allBlank.png,,,,['num_4'],,,,,,0,1,1,1,,,,,,,,,['num_4'],2,0.0495982980356,0,"['num_7', 'num_4']",0,"[0.5457178923534229, 0.7288651542039588]",,2018_May_06_1139,59.8878899923,sequenceLearningTask,001,091,
min1.png,min2.png,min3.png,min4.png,allBlank.png,,,,['num_1'],,,,,,0,1,1,1,,,,,,,,,['num_1'],2,0.0520549102221,1,['num_1'],0,[0.692860275390558],,2018_May_06_1139,59.8878899923,sequenceLearningTask,001,091,
min1.png,min2.png,min3.png,min4.png,allBlank.png,,,,['num_0'],,,,,,0,1,1,1,,,,,,,,,['num_0'],2,0.0550157271791,1,['num_0'],0,[0.3892044440144673],,2018_May_06_1139,59.8878899923,sequenceLearningTask,001,091,
min1.png,min2.png,min3.png,min4.png,allBlank.png,,,,['num_7'],,,,,,0,2,2,2,,,,,,,,,['num_7'],3,0.0604315153323,1,['num_7'],0,[0.5314774997532368],,2018_May_06_1139,59.8878899923,sequenceLearningTask,001,091,
min1.png,min2.png,min3.png,min4.png,allBlank.png,,,,['num_1'],,,,,,0,2,2,2,,,,,,,,,['num_1'],3,0.0530571654672,1,['num_1'],0,[0.5751242152182385],,2018_May_06_1139,59.8878899923,sequenceLearningTask,001,091,
min1.png,min2.png,min3.png,min4.png,allBlank.png,,,,['num_4'],,,,,,0,2,2,2,,,,,,,,,['num_4'],3,0.0541246513603,1,['num_4'],0,[0.32432411366607994],,2018_May_06_1139,59.8878899923,sequenceLearningTask,001,091,
min1.png,min2.png,min3.png,min4.png,allBlank.png,,,,['num_0'],,,,,,0,2,2,2,,,,,,,,,['num_0'],3,0.0520073205698,1,['num_0'],0,[0.742177548003383],,2018_May_06_1139,59.8878899923,sequenceLearningTask,001,091,
min1.png,min2.png,min3.png,min4.png,allBlank.png,,,,['num_0'],,,,,,0,2,2,2,,,,,,,,,['num_0'],3,0.0599753106944,1,['num_0'],0,[0.6329436312662438],,2018_May_06_1139,59.8878899923,sequenceLearningTask,001,091,
min1.png,min2.png,min3.png,min4.png,allBlank.png,,,,['num_4'],,,,,,0,2,2,2,,,,,,,,,['num_4'],3,0.0596791059943,0,"['num_7', 'num_4']",0,"[0.6332246564561501, 0.9179143573855981]",,2018_May_06_1139,59.8878899923,sequenceLearningTask,001,091,
min1.png,min2.png,min3.png,min4.png,allBlank.png,,,,['num_1'],,,,,,0,2,2,2,,,,,,,,,['num_1'],3,0.0514838341624,1,['num_1'],0,[0.8606241715606302],,2018_May_06_1139,59.8878899923,sequenceLearningTask,001,091,
min1.png,min2.png,min3.png,min4.png,allBlank.png,,,,['num_0'],,,,,,0,2,2,2,,,,,,,,,['num_0'],3,0.0526842428371,1,['num_0'],0,[0.3911310057155788],,2018_May_06_1139,59.8878899923,sequenceLearningTask,001,091,
min1.png,min2.png,min3.png,min4.png,allBlank.png,,,,['num_7'],,,,,,0,3,3,3,,,,,,,,,['num_7'],4,0.0576873135287,1,['num_7'],0,[0.550517886527814],,2018_May_06_1139,59.8878899923,sequenceLearningTask,001,091,
min1.png,min2.png,min3.png,min4.png,allBlank.png,,,,['num_1'],,,,,,0,3,3,3,,,,,,,,,['num_1'],4,0.0516705004266,1,['num_1'],0,[0.6096628393279389],,2018_May_06_1139,59.8878899923,sequenceLearningTask,001,091,
min1.png,min2.png,min3.png,min4.png,allBlank.png,,,,['num_4'],,,,,,0,3,3,3,,,,,,,,,['num_4'],4,0.0519872180885,1,['num_4'],0,[0.3600295055657625],,2018_May_06_1139,59.8878899923,sequenceLearningTask,001,091,
min1.png,min2.png,min3.png,min4.png,allBlank.png,,,,['num_0'],,,,,,0,3,3,3,,,,,,,,,['num_0'],4,0.0578460826073,0,"['num_1', 'num_0']",0,"[0.3872979849111289, 0.4703567544929683]",,2018_May_06_1139,59.8878899923,sequenceLearningTask,001,091,
min1.png,min2.png,min3.png,min4.png,allBlank.png,,,,['num_0'],,,,,,0,3,3,3,,,,,,,,,['num_0'],4,0.0516032185405,1,['num_0'],0,[0.5433433313155547],,2018_May_06_1139,59.8878899923,sequenceLearningTask,001,091,
min1.png,min2.png,min3.png,min4.png,allBlank.png,,,,['num_4'],,,,,,0,3,3,3,,,,,,,,,['num_4'],4,0.0571363399504,1,['num_4'],0,[0.9542285691713914],,2018_May_06_1139,59.8878899923,sequenceLearningTask,001,091,
min1.png,min2.png,min3.png,min4.png,allBlank.png,,,,['num_1'],,,,,,0,3,3,3,,,,,,,,,['num_1'],4,0.0521180897485,1,['num_1'],0,[0.6089272506069392],,2018_May_06_1139,59.8878899923,sequenceLearningTask,001,091,
min1.png,min2.png,min3.png,min4.png,allBlank.png,,,,['num_0'],,,,,,0,3,3,3,,,,,,,,,['num_0'],4,0.0519359359751,1,['num_0'],0,[0.44220130192115903],,2018_May_06_1139,59.8878899923,sequenceLearningTask,001,091,
min1.png,min2.png,min3.png,min4.png,allBlank.png,,,,['num_7'],,,,,,0,4,4,4,,,,,,,,,['num_7'],5,0.0596134650987,1,['num_7'],0,[0.5162040826398879],,2018_May_06_1139,59.8878899923,sequenceLearningTask,001,091,
min1.png,min2.png,min3.png,min4.png,allBlank.png,,,,['num_1'],,,,,,0,4,4,4,,,,,,,,,['num_1'],5,0.0602780797053,1,['num_1'],0,[0.5000994871370494],,2018_May_06_1139,59.8878899923,sequenceLearningTask,001,091,
min1.png,min2.png,min3.png,min4.png,allBlank.png,,,,['num_4'],,,,,,0,4,4,4,,,,,,,,,['num_4'],5,0.0525529610459,1,['num_4'],0,[0.5756887273164466],,2018_May_06_1139,59.8878899923,sequenceLearningTask,001,091,
min1.png,min2.png,min3.png,min4.png,allBlank.png,,,,['num_0'],,,,,,0,4,4,4,,,,,,,,,['num_0'],5,0.0519966538996,1,['num_0'],0,[0.3261702652089298],,2018_May_06_1139,59.8878899923,sequenceLearningTask,001,091,
min1.png,min2.png,min3.png,min4.png,allBlank.png,,,,['num_0'],,,,,,0,4,4,4,,,,,,,,,['num_0'],5,0.0600778748048,1,['num_0'],0,[0.45084867579862475],,2018_May_06_1139,59.8878899923,sequenceLearningTask,001,091,
min1.png,min2.png,min3.png,min4.png,allBlank.png,,,,['num_4'],,,,,,0,4,4,4,,,,,,,,,['num_4'],5,0.0516901927767,1,['num_4'],0,[0.7099736902164295],,2018_May_06_1139,59.8878899923,sequenceLearningTask,001,091,
min1.png,min2.png,min3.png,min4.png,allBlank.png,,,,['num_1'],,,,,,0,4,4,4,,,,,,,,,['num_1'],5,0.0543646510923,1,['num_1'],0,[0.3235142685007304],,2018_May_06_1139,59.8878899923,sequenceLearningTask,001,091,
min1.png,min2.png,min3.png,min4.png,allBlank.png,,,,['num_0'],,,,,,0,4,4,4,,,,,,,,,['num_0'],5,0.0539100875612,1,['num_0'],0,[0.5746421645162627],,2018_May_06_1139,59.8878899923,sequenceLearningTask,001,091,
min1.png,min2.png,min3.png,min4.png,allBlank.png,,,,['num_7'],,,,,,0,5,5,5,,,,,,,,,['num_7'],6,0.0562891614391,1,['num_7'],0,[0.3523741305107251],,2018_May_06_1139,59.8878899923,sequenceLearningTask,001,091,
min1.png,min2.png,min3.png,min4.png,allBlank.png,,,,['num_1'],,,,,,0,5,5,5,,,,,,,,,['num_1'],6,0.0502305023838,1,['num_1'],0,[0.5271193512016907],,2018_May_06_1139,59.8878899923,sequenceLearningTask,001,091,
min1.png,min2.png,min3.png,min4.png,allBlank.png,,,,['num_4'],,,,,,0,5,5,5,,,,,,,,,['num_4'],6,0.035865802085,1,['num_4'],0,[0.2933793312404305],,2018_May_06_1139,59.8878899923,sequenceLearningTask,001,091,
min1.png,min2.png,min3.png,min4.png,allBlank.png,,,,['num_0'],,,,,,0,5,5,5,,,,,,,,,['num_0'],6,0.0512947061798,1,['num_0'],0,[0.34375834616366774],,2018_May_06_1139,59.8878899923,sequenceLearningTask,001,091,
min1.png,min2.png,min3.png,min4.png,allBlank.png,,,,['num_0'],,,,,,0,5,5,5,,,,,,,,,['num_0'],6,0.0528093709145,1,['num_0'],0,[0.5087714763358235],,2018_May_06_1139,59.8878899923,sequenceLearningTask,001,091,
min1.png,min2.png,min3.png,min4.png,allBlank.png,,,,['num_4'],,,,,,0,5,5,5,,,,,,,,,['num_4'],6,0.0565521356184,1,['num_4'],0,[0.5557355211349204],,2018_May_06_1139,59.8878899923,sequenceLearningTask,001,091,
min1.png,min2.png,min3.png,min4.png,allBlank.png,,,,['num_1'],,,,,,0,5,5,5,,,,,,,,,['num_1'],6,0.0554013677174,1,['num_1'],0,[0.3395064538344741],,2018_May_06_1139,59.8878899923,sequenceLearningTask,001,091,
min1.png,min2.png,min3.png,min4.png,allBlank.png,,,,['num_0'],,,,,,0,5,5,5,,,,,,,,,['num_0'],6,0.0549808554351,1,['num_0'],0,[0.5065601971000433],,2018_May_06_1139,59.8878899923,sequenceLearningTask,001,091,
min1.png,min2.png,min3.png,min4.png,allBlank.png,,,,['num_7'],,,,,,0,6,6,6,,,,,,,,,['num_7'],7,0.0588667993434,1,['num_7'],0,[0.38257675990462303],,2018_May_06_1139,59.8878899923,sequenceLearningTask,001,091,
min1.png,min2.png,min3.png,min4.png,allBlank.png,,,,['num_1'],,,,,,0,6,6,6,,,,,,,,,['num_1'],7,0.052693268517,1,['num_1'],0,[0.3922977736219764],,2018_May_06_1139,59.8878899923,sequenceLearningTask,001,091,
min1.png,min2.png,min3.png,min4.png,allBlank.png,,,,['num_4'],,,,,,0,6,6,6,,,,,,,,,['num_4'],7,0.0569008530583,1,['num_4'],0,[0.30378054920583963],,2018_May_06_1139,59.8878899923,sequenceLearningTask,001,091,
min1.png,min2.png,min3.png,min4.png,allBlank.png,,,,['num_0'],,,,,,0,6,6,6,,,,,,,,,['num_0'],7,0.0577443392249,1,['num_0'],0,[0.5357585201272741],,2018_May_06_1139,59.8878899923,sequenceLearningTask,001,091,
min1.png,min2.png,min3.png,min4.png,allBlank.png,,,,['num_0'],,,,,,0,6,6,6,,,,,,,,,['num_0'],7,0.0515453724656,1,['num_0'],0,[0.39275151665788144],,2018_May_06_1139,59.8878899923,sequenceLearningTask,001,091,
min1.png,min2.png,min3.png,min4.png,allBlank.png,,,,['num_4'],,,,,,0,6,6,6,,,,,,,,,['num_4'],7,0.0655958167044,1,['num_4'],0,[0.49377621279563755],,2018_May_06_1139,59.8878899923,sequenceLearningTask,001,091,
min1.png,min2.png,min3.png,min4.png,allBlank.png,,,,['num_1'],,,,,,0,6,6,6,,,,,,,,,['num_1'],7,0.0563002383569,1,['num_1'],0,[0.33869209594558924],,2018_May_06_1139,59.8878899923,sequenceLearningTask,001,091,
min1.png,min2.png,min3.png,min4.png,allBlank.png,,,,['num_0'],,,,,,0,6,6,6,,,,,,,,,['num_0'],7,0.0604130538413,1,['num_0'],0,[0.39996791793964803],,2018_May_06_1139,59.8878899923,sequenceLearningTask,001,091,
min1.png,min2.png,min3.png,min4.png,allBlank.png,,,,['num_7'],,,,,,0,7,7,7,,,,,,,,,['num_7'],8,0.0459154306445,1,['num_7'],0,[0.4647001459961757],,2018_May_06_1139,59.8878899923,sequenceLearningTask,001,091,
min1.png,min2.png,min3.png,min4.png,allBlank.png,,,,['num_1'],,,,,,0,7,7,7,,,,,,,,,['num_1'],8,0.0577853647992,1,['num_1'],0,[0.5036830723984167],,2018_May_06_1139,59.8878899923,sequenceLearningTask,001,091,
min1.png,min2.png,min3.png,min4.png,allBlank.png,,,,['num_4'],,,,,,0,7,7,7,,,,,,,,,['num_4'],8,0.0526181915775,1,['num_4'],0,[0.27544089185539633],,2018_May_06_1139,59.8878899923,sequenceLearningTask,001,091,
min1.png,min2.png,min3.png,min4.png,allBlank.png,,,,['num_0'],,,,,,0,7,7,7,,,,,,,,,['num_0'],8,0.0544064971618,1,['num_0'],0,[0.3235790889011696],,2018_May_06_1139,59.8878899923,sequenceLearningTask,001,091,
min1.png,min2.png,min3.png,min4.png,allBlank.png,,,,['num_0'],,,,,,0,7,7,7,,,,,,,,,['num_0'],8,0.0507917322684,1,['num_0'],0,[0.5770483154337853],,2018_May_06_1139,59.8878899923,sequenceLearningTask,001,091,
min1.png,min2.png,min3.png,min4.png,allBlank.png,,,,['num_4'],,,,,,0,7,7,7,,,,,,,,,['num_4'],8,0.0534259856213,1,['num_4'],0,[0.5074315805686638],,2018_May_06_1139,59.8878899923,sequenceLearningTask,001,091,
min1.png,min2.png,min3.png,min4.png,allBlank.png,,,,['num_1'],,,,,,0,7,7,7,,,,,,,,,['num_1'],8,0.0521365512395,1,['num_1'],0,[0.1918069435050711],,2018_May_06_1139,59.8878899923,sequenceLearningTask,001,091,
min1.png,min2.png,min3.png,min4.png,allBlank.png,,,,['num_0'],,,,,,0,7,7,7,,,,,,,,,['num_0'],8,0.057938390295,1,['num_0'],0,[0.3871293696574867],,2018_May_06_1139,59.8878899923,sequenceLearningTask,001,091,
min1.png,min2.png,min3.png,min4.png,allBlank.png,,,,['num_7'],,,,,,0,8,8,8,,,,,,,,,['num_7'],9,0.0483626071364,1,['num_7'],0,[0.49405559711158276],,2018_May_06_1139,59.8878899923,sequenceLearningTask,001,091,
min1.png,min2.png,min3.png,min4.png,allBlank.png,,,,['num_1'],,,,,,0,8,8,8,,,,,,,,,['num_1'],9,0.0515507058008,0,"['num_4', 'num_1']",0,"[0.3766608696896583, 0.660960006993264]",,2018_May_06_1139,59.8878899923,sequenceLearningTask,001,091,
min1.png,min2.png,min3.png,min4.png,allBlank.png,,,,['num_4'],,,,,,0,8,8,8,,,,,,,,,['num_4'],9,0.0547314197756,1,['num_4'],0,[0.27334694552700967],,2018_May_06_1139,59.8878899923,sequenceLearningTask,001,091,
min1.png,min2.png,min3.png,min4.png,allBlank.png,,,,['num_0'],,,,,,0,8,8,8,,,,,,,,,['num_0'],9,0.0562510075979,1,['num_0'],0,[0.438528691069223],,2018_May_06_1139,59.8878899923,sequenceLearningTask,001,091,
min1.png,min2.png,min3.png,min4.png,allBlank.png,,,,['num_0'],,,,,,0,8,8,8,,,,,,,,,['num_0'],9,0.0535137803527,1,['num_0'],0,[0.40805160033050925],,2018_May_06_1139,59.8878899923,sequenceLearningTask,001,091,
min1.png,min2.png,min3.png,min4.png,allBlank.png,,,,['num_4'],,,,,,0,8,8,8,,,,,,,,,['num_4'],9,0.0519576795632,0,"['num_7', 'num_4']",0,"[0.4253328097984195, 0.7604203973896801]",,2018_May_06_1139,59.8878899923,sequenceLearningTask,001,091,
min1.png,min2.png,min3.png,min4.png,allBlank.png,,,,['num_1'],,,,,,0,8,8,8,,,,,,,,,['num_1'],9,0.0532856780337,1,['num_1'],0,[0.2903520528925583],,2018_May_06_1139,59.8878899923,sequenceLearningTask,001,091,
min1.png,min2.png,min3.png,min4.png,allBlank.png,,,,['num_0'],,,,,,0,8,8,8,,,,,,,,,['num_0'],9,0.0530936782015,1,['num_0'],0,[0.27618632675148547],,2018_May_06_1139,59.8878899923,sequenceLearningTask,001,091,
min1.png,min2.png,min3.png,min4.png,allBlank.png,,,,['num_7'],,,,,,0,9,9,9,,,,,,,,,['num_7'],10,0.0497041438939,1,['num_7'],0,[0.21031604893505573],,2018_May_06_1139,59.8878899923,sequenceLearningTask,001,091,
min1.png,min2.png,min3.png,min4.png,allBlank.png,,,,['num_1'],,,,,,0,9,9,9,,,,,,,,,['num_1'],10,0.0559449567227,1,['num_1'],0,[0.3880241378210485],,2018_May_06_1139,59.8878899923,sequenceLearningTask,001,091,
min1.png,min2.png,min3.png,min4.png,allBlank.png,,,,['num_4'],,,,,,0,9,9,9,,,,,,,,,['num_4'],10,0.0503671175102,1,['num_4'],0,[0.2275714122224599],,2018_May_06_1139,59.8878899923,sequenceLearningTask,001,091,
min1.png,min2.png,min3.png,min4.png,allBlank.png,,,,['num_0'],,,,,,0,9,9,9,,,,,,,,,['num_0'],10,0.0583379793679,1,['num_0'],0,[0.30299039639066905],,2018_May_06_1139,59.8878899923,sequenceLearningTask,001,091,
min1.png,min2.png,min3.png,min4.png,allBlank.png,,,,['num_0'],,,,,,0,9,9,9,,,,,,,,,['num_0'],10,0.0593246449716,1,['num_0'],0,[0.41859722847584635],,2018_May_06_1139,59.8878899923,sequenceLearningTask,001,091,
min1.png,min2.png,min3.png,min4.png,allBlank.png,,,,['num_4'],,,,,,0,9,9,9,,,,,,,,,['num_4'],10,0.0507630144712,1,['num_4'],0,[0.460312869399786],,2018_May_06_1139,59.8878899923,sequenceLearningTask,001,091,
min1.png,min2.png,min3.png,min4.png,allBlank.png,,,,['num_1'],,,,,,0,9,9,9,,,,,,,,,['num_1'],10,0.0526883454295,1,['num_1'],0,[0.17438747768756002],,2018_May_06_1139,59.8878899923,sequenceLearningTask,001,091,
min1.png,min2.png,min3.png,min4.png,allBlank.png,,,,['num_0'],,,,,,0,9,9,9,,,,,,,,,['num_0'],10,0.065533047542,1,['num_0'],0,[0.2941288687288761],,2018_May_06_1139,59.8878899923,sequenceLearningTask,001,091,
min1.png,min2.png,min3.png,min4.png,allBlank.png,,,,,,,,,,0,9,9,9,,,,,0,-1,-1,0,,,,,,,,,2018_May_06_1139,59.8878899923,sequenceLearningTask,001,091,
