pawPatrol1,pawPatrol2,pawPatrol3,pawPatrol4,blank,randomPaw,correctKeyPress,allowableKey,correctKey,correctKeyPressNum,trials.thisRepN,trials.thisTrialN,trials.thisN,trials.thisIndex,trials_3.thisRepN,trials_3.thisTrialN,trials_3.thisN,trials_3.thisIndex,trials_2.thisRepN,trials_2.thisTrialN,trials_2.thisN,trials_2.thisIndex,trials_questions.thisRepN,trials_questions.thisTrialN,trials_questions.thisN,trials_questions.thisIndex,trials_test.thisRepN,trials_test.thisTrialN,trials_test.thisN,trials_test.thisIndex,trials_recogtest.thisRepN,trials_recogtest.thisTrialN,trials_recogtest.thisN,trials_recogtest.thisIndex,correctKey,repetitionNumber,stimulusPresent.t,trialCorrect,key_resp_9.keys,key_resp_9.corr,key_resp_9.rt,keyRespCorrect,questionsResponses,AnswerFinished.keys,AnswerFinished.rt,RecordAnswer.keys,RecordAnswer.rt,recallResponse,recallResponseTime,date,frameRate,expName,session,participant,
min1.png,min2.png,min3.png,min4.png,allBlank.png,,,,['num_7'],,,,,,0,0,0,0,,,,,,,,,,,,,,,,,['num_7'],1,0.0641394872218,1,['num_7'],0,[0.5639913845807314],,,,,,,,,2018_Jun_02_1340,59.9701809653,sequenceLearningTask,001,094,
min1.png,min2.png,min3.png,min4.png,allBlank.png,,,,['num_1'],,,,,,0,0,0,0,,,,,,,,,,,,,,,,,['num_1'],1,0.0583269743947,0,"['num_4', 'num_1']",0,"[0.9359216410666704, 1.9696799999801442]",,,,,,,,,2018_Jun_02_1340,59.9701809653,sequenceLearningTask,001,094,
min1.png,min2.png,min3.png,min4.png,allBlank.png,,,,['num_4'],,,,,,0,0,0,0,,,,,,,,,,,,,,,,,['num_4'],1,0.0494642050471,1,['num_4'],0,[1.412221948732622],,,,,,,,,2018_Jun_02_1340,59.9701809653,sequenceLearningTask,001,094,
min1.png,min2.png,min3.png,min4.png,allBlank.png,,,,['num_0'],,,,,,0,0,0,0,,,,,,,,,,,,,,,,,['num_0'],1,0.056948512909,1,['num_0'],0,[0.9209911795333028],,,,,,,,,2018_Jun_02_1340,59.9701809653,sequenceLearningTask,001,094,
min1.png,min2.png,min3.png,min4.png,allBlank.png,,,,['num_0'],,,,,,0,0,0,0,,,,,,,,,,,,,,,,,['num_0'],1,0.0533924102783,1,['num_0'],0,[1.0748607179848477],,,,,,,,,2018_Jun_02_1340,59.9701809653,sequenceLearningTask,001,094,
min1.png,min2.png,min3.png,min4.png,allBlank.png,,,,['num_4'],,,,,,0,0,0,0,,,,,,,,,,,,,,,,,['num_4'],1,0.0545784614515,1,['num_4'],0,[1.4726231794338673],,,,,,,,,2018_Jun_02_1340,59.9701809653,sequenceLearningTask,001,094,
min1.png,min2.png,min3.png,min4.png,allBlank.png,,,,['num_1'],,,,,,0,0,0,0,,,,,,,,,,,,,,,,,['num_1'],1,0.0642080000835,0,"['num_4', 'num_1']",0,"[1.196430358919315, 2.146311794873327]",,,,,,,,,2018_Jun_02_1340,59.9701809653,sequenceLearningTask,001,094,
min1.png,min2.png,min3.png,min4.png,allBlank.png,,,,['num_0'],,,,,,0,0,0,0,,,,,,,,,,,,,,,,,['num_0'],1,0.0570605128305,1,['num_0'],0,[0.9875142563832924],,,,,,,,,2018_Jun_02_1340,59.9701809653,sequenceLearningTask,001,094,
min1.png,min2.png,min3.png,min4.png,allBlank.png,,,,['num_7'],,,,,,0,1,1,1,,,,,,,,,,,,,,,,,['num_7'],2,0.0563577435678,1,['num_7'],0,[1.1203048204770312],,,,,,,,,2018_Jun_02_1340,59.9701809653,sequenceLearningTask,001,094,
min1.png,min2.png,min3.png,min4.png,allBlank.png,,,,['num_1'],,,,,,0,1,1,1,,,,,,,,,,,,,,,,,['num_1'],2,0.0573743589921,1,['num_1'],0,[2.2207048205891624],,,,,,,,,2018_Jun_02_1340,59.9701809653,sequenceLearningTask,001,094,
min1.png,min2.png,min3.png,min4.png,allBlank.png,,,,['num_4'],,,,,,0,1,1,1,,,,,,,,,,,,,,,,,['num_4'],2,0.0609878973337,1,['num_4'],0,[1.334017230779864],,,,,,,,,2018_Jun_02_1340,59.9701809653,sequenceLearningTask,001,094,
min1.png,min2.png,min3.png,min4.png,allBlank.png,,,,['num_0'],,,,,,0,1,1,1,,,,,,,,,,,,,,,,,['num_0'],2,0.0572627692018,1,['num_0'],0,[1.1705940512474626],,,,,,,,,2018_Jun_02_1340,59.9701809653,sequenceLearningTask,001,094,
min1.png,min2.png,min3.png,min4.png,allBlank.png,,,,['num_0'],,,,,,0,1,1,1,,,,,,,,,,,,,,,,,['num_0'],2,0.0625210255384,1,['num_0'],0,[1.1824664615560323],,,,,,,,,2018_Jun_02_1340,59.9701809653,sequenceLearningTask,001,094,
min1.png,min2.png,min3.png,min4.png,allBlank.png,,,,['num_4'],,,,,,0,1,1,1,,,,,,,,,,,,,,,,,['num_4'],2,0.0549940512283,0,"['num_7', 'num_4']",0,"[1.3565956922248006, 1.9894523076945916]",,,,,,,,,2018_Jun_02_1340,59.9701809653,sequenceLearningTask,001,094,
min1.png,min2.png,min3.png,min4.png,allBlank.png,,,,['num_1'],,,,,,0,1,1,1,,,,,,,,,,,,,,,,,['num_1'],2,0.0555384615436,1,['num_1'],0,[2.0052430768264458],,,,,,,,,2018_Jun_02_1340,59.9701809653,sequenceLearningTask,001,094,
min1.png,min2.png,min3.png,min4.png,allBlank.png,,,,['num_0'],,,,,,0,1,1,1,,,,,,,,,,,,,,,,,['num_0'],2,0.0540521026123,1,['num_0'],0,[1.257721025729552],,,,,,,,,2018_Jun_02_1340,59.9701809653,sequenceLearningTask,001,094,
min1.png,min2.png,min3.png,min4.png,allBlank.png,,,,['num_7'],,,,,,0,2,2,2,,,,,,,,,,,,,,,,,['num_7'],3,0.05661620514,1,['num_7'],0,[1.2859565127873793],,,,,,,,,2018_Jun_02_1340,59.9701809653,sequenceLearningTask,001,094,
min1.png,min2.png,min3.png,min4.png,allBlank.png,,,,['num_1'],,,,,,0,2,2,2,,,,,,,,,,,,,,,,,['num_1'],3,0.0503068717662,1,['num_1'],0,[3.877986051258631],,,,,,,,,2018_Jun_02_1340,59.9701809653,sequenceLearningTask,001,094,
min1.png,min2.png,min3.png,min4.png,allBlank.png,,,,['num_4'],,,,,,0,2,2,2,,,,,,,,,,,,,,,,,['num_4'],3,0.0520717948675,1,['num_4'],0,[2.526601435849443],,,,,,,,,2018_Jun_02_1340,59.9701809653,sequenceLearningTask,001,094,
min1.png,min2.png,min3.png,min4.png,allBlank.png,,,,['num_0'],,,,,,0,2,2,2,,,,,,,,,,,,,,,,,['num_0'],3,0.0488443076611,1,['num_0'],0,[0.895884718047455],,,,,,,,,2018_Jun_02_1340,59.9701809653,sequenceLearningTask,001,094,
min1.png,min2.png,min3.png,min4.png,allBlank.png,,,,['num_0'],,,,,,0,2,2,2,,,,,,,,,,,,,,,,,['num_0'],3,0.0578678974416,1,['num_0'],0,[1.5529292307328433],,,,,,,,,2018_Jun_02_1340,59.9701809653,sequenceLearningTask,001,094,
min1.png,min2.png,min3.png,min4.png,allBlank.png,,,,['num_4'],,,,,,0,2,2,2,,,,,,,,,,,,,,,,,['num_4'],3,0.0588697436033,1,['num_4'],0,[1.3185928204329684],,,,,,,,,2018_Jun_02_1340,59.9701809653,sequenceLearningTask,001,094,
min1.png,min2.png,min3.png,min4.png,allBlank.png,,,,['num_1'],,,,,,0,2,2,2,,,,,,,,,,,,,,,,,['num_1'],3,0.0566354871262,1,['num_1'],0,[1.5709431795403361],,,,,,,,,2018_Jun_02_1340,59.9701809653,sequenceLearningTask,001,094,
min1.png,min2.png,min3.png,min4.png,allBlank.png,,,,['num_0'],,,,,,0,2,2,2,,,,,,,,,,,,,,,,,['num_0'],3,0.0580529230647,1,['num_0'],0,[1.9358022563392296],,,,,,,,,2018_Jun_02_1340,59.9701809653,sequenceLearningTask,001,094,
min1.png,min2.png,min3.png,min4.png,allBlank.png,,,,['num_7'],,,,,,0,3,3,3,,,,,,,,,,,,,,,,,['num_7'],4,0.0503975384636,1,['num_7'],0,[0.9758962051710114],,,,,,,,,2018_Jun_02_1340,59.9701809653,sequenceLearningTask,001,094,
min1.png,min2.png,min3.png,min4.png,allBlank.png,,,,['num_1'],,,,,,0,3,3,3,,,,,,,,,,,,,,,,,['num_1'],4,0.0542194872396,1,['num_1'],0,[1.121533538447693],,,,,,,,,2018_Jun_02_1340,59.9701809653,sequenceLearningTask,001,094,
min1.png,min2.png,min3.png,min4.png,allBlank.png,,,,['num_4'],,,,,,0,3,3,3,,,,,,,,,,,,,,,,,['num_4'],4,0.0598658460658,0,"['num_7', 'num_4']",0,"[1.10247671790421, 1.8349058461608365]",,,,,,,,,2018_Jun_02_1340,59.9701809653,sequenceLearningTask,001,094,
min1.png,min2.png,min3.png,min4.png,allBlank.png,,,,['num_0'],,,,,,0,3,3,3,,,,,,,,,,,,,,,,,['num_0'],4,0.0588028718485,1,['num_0'],0,[1.4860918974736705],,,,,,,,,2018_Jun_02_1340,59.9701809653,sequenceLearningTask,001,094,
min1.png,min2.png,min3.png,min4.png,allBlank.png,,,,['num_0'],,,,,,0,3,3,3,,,,,,,,,,,,,,,,,['num_0'],4,0.0564475896535,1,['num_0'],0,[2.5212652307236567],,,,,,,,,2018_Jun_02_1340,59.9701809653,sequenceLearningTask,001,094,
min1.png,min2.png,min3.png,min4.png,allBlank.png,,,,['num_4'],,,,,,0,3,3,3,,,,,,,,,,,,,,,,,['num_4'],4,0.0641357948771,1,['num_4'],0,[1.9123483076691628],,,,,,,,,2018_Jun_02_1340,59.9701809653,sequenceLearningTask,001,094,
min1.png,min2.png,min3.png,min4.png,allBlank.png,,,,['num_1'],,,,,,0,3,3,3,,,,,,,,,,,,,,,,,['num_1'],4,0.0560635897564,1,['num_1'],0,[2.5894752820022404],,,,,,,,,2018_Jun_02_1340,59.9701809653,sequenceLearningTask,001,094,
min1.png,min2.png,min3.png,min4.png,allBlank.png,,,,['num_0'],,,,,,0,3,3,3,,,,,,,,,,,,,,,,,['num_0'],4,0.0556742564077,0,"['num_4', 'num_0']",0,"[0.4566880000056699, 2.0722523076692596]",,,,,,,,,2018_Jun_02_1340,59.9701809653,sequenceLearningTask,001,094,
min1.png,min2.png,min3.png,min4.png,allBlank.png,,,,['num_7'],,,,,,0,4,4,4,,,,,,,,,,,,,,,,,['num_7'],5,0.0552504615625,1,['num_7'],0,[1.086358153843321],,,,,,,,,2018_Jun_02_1340,59.9701809653,sequenceLearningTask,001,094,
min1.png,min2.png,min3.png,min4.png,allBlank.png,,,,['num_1'],,,,,,0,4,4,4,,,,,,,,,,,,,,,,,['num_1'],5,0.0581345641986,0,"['num_4', 'num_4', 'num_1']",0,"[1.0694375385064632, 1.503090051235631, 2.3873062564525753]",,,,,,,,,2018_Jun_02_1340,59.9701809653,sequenceLearningTask,001,094,
min1.png,min2.png,min3.png,min4.png,allBlank.png,,,,['num_4'],,,,,,0,4,4,4,,,,,,,,,,,,,,,,,['num_4'],5,0.0516746666981,1,['num_4'],0,[1.4590683076530695],,,,,,,,,2018_Jun_02_1340,59.9701809653,sequenceLearningTask,001,094,
min1.png,min2.png,min3.png,min4.png,allBlank.png,,,,['num_0'],,,,,,0,4,4,4,,,,,,,,,,,,,,,,,['num_0'],5,0.066694153822,0,"['num_1', 'num_0']",0,"[0.8609924102202058, 1.4267647179076448]",,,,,,,,,2018_Jun_02_1340,59.9701809653,sequenceLearningTask,001,094,
min1.png,min2.png,min3.png,min4.png,allBlank.png,,,,['num_0'],,,,,,0,4,4,4,,,,,,,,,,,,,,,,,['num_0'],5,0.0567232820904,1,['num_0'],0,[1.1541386666940525],,,,,,,,,2018_Jun_02_1340,59.9701809653,sequenceLearningTask,001,094,
min1.png,min2.png,min3.png,min4.png,allBlank.png,,,,['num_4'],,,,,,0,4,4,4,,,,,,,,,,,,,,,,,['num_4'],5,0.0577969230944,0,"['num_7', 'num_4']",0,"[1.0539392820792273, 1.5539413334336132]",,,,,,,,,2018_Jun_02_1340,59.9701809653,sequenceLearningTask,001,094,
min1.png,min2.png,min3.png,min4.png,allBlank.png,,,,['num_1'],,,,,,0,4,4,4,,,,,,,,,,,,,,,,,['num_1'],5,0.0539544615895,1,['num_1'],0,[3.0416693333536386],,,,,,,,,2018_Jun_02_1340,59.9701809653,sequenceLearningTask,001,094,
min1.png,min2.png,min3.png,min4.png,allBlank.png,,,,['num_0'],,,,,,0,4,4,4,,,,,,,,,,,,,,,,,['num_0'],5,0.0637530256063,1,['num_0'],0,[0.747264820500277],,,,,,,,,2018_Jun_02_1340,59.9701809653,sequenceLearningTask,001,094,
min1.png,min2.png,min3.png,min4.png,allBlank.png,,,,['num_7'],,,,,,0,5,5,5,,,,,,,,,,,,,,,,,['num_7'],6,0.0498375383904,1,['num_7'],0,[1.2121144615812227],,,,,,,,,2018_Jun_02_1340,59.9701809653,sequenceLearningTask,001,094,
min1.png,min2.png,min3.png,min4.png,allBlank.png,,,,['num_1'],,,,,,0,5,5,5,,,,,,,,,,,,,,,,,['num_1'],6,0.051611076924,1,['num_1'],0,[1.3432754871901125],,,,,,,,,2018_Jun_02_1340,59.9701809653,sequenceLearningTask,001,094,
min1.png,min2.png,min3.png,min4.png,allBlank.png,,,,['num_4'],,,,,,0,5,5,5,,,,,,,,,,,,,,,,,['num_4'],6,0.0537193845958,1,['num_4'],0,[1.3076057435246184],,,,,,,,,2018_Jun_02_1340,59.9701809653,sequenceLearningTask,001,094,
min1.png,min2.png,min3.png,min4.png,allBlank.png,,,,['num_0'],,,,,,0,5,5,5,,,,,,,,,,,,,,,,,['num_0'],6,0.058147692238,1,['num_0'],0,[1.4020332308718935],,,,,,,,,2018_Jun_02_1340,59.9701809653,sequenceLearningTask,001,094,
min1.png,min2.png,min3.png,min4.png,allBlank.png,,,,['num_0'],,,,,,0,5,5,5,,,,,,,,,,,,,,,,,['num_0'],6,0.0516562050907,1,['num_0'],0,[0.8260065640788525],,,,,,,,,2018_Jun_02_1340,59.9701809653,sequenceLearningTask,001,094,
min1.png,min2.png,min3.png,min4.png,allBlank.png,,,,['num_4'],,,,,,0,5,5,5,,,,,,,,,,,,,,,,,['num_4'],6,0.060162051348,1,['num_4'],0,[1.4350818460807204],,,,,,,,,2018_Jun_02_1340,59.9701809653,sequenceLearningTask,001,094,
min1.png,min2.png,min3.png,min4.png,allBlank.png,,,,['num_1'],,,,,,0,5,5,5,,,,,,,,,,,,,,,,,['num_1'],6,0.0555876923027,1,['num_1'],0,[2.3388873846270144],,,,,,,,,2018_Jun_02_1340,59.9701809653,sequenceLearningTask,001,094,
min1.png,min2.png,min3.png,min4.png,allBlank.png,,,,['num_0'],,,,,,0,5,5,5,,,,,,,,,,,,,,,,,['num_0'],6,0.0435273846379,1,['num_0'],0,[0.5672898461343721],,,,,,,,,2018_Jun_02_1340,59.9701809653,sequenceLearningTask,001,094,
min1.png,min2.png,min3.png,min4.png,allBlank.png,,,,['num_7'],,,,,,0,6,6,6,,,,,,,,,,,,,,,,,['num_7'],7,0.0544196923729,1,['num_7'],0,[1.0377444103360176],,,,,,,,,2018_Jun_02_1340,59.9701809653,sequenceLearningTask,001,094,
min1.png,min2.png,min3.png,min4.png,allBlank.png,,,,['num_1'],,,,,,0,6,6,6,,,,,,,,,,,,,,,,,['num_1'],7,0.0584845127305,0,"['num_4', 'num_1']",0,"[1.3692365129245445, 2.4356455384986475]",,,,,,,,,2018_Jun_02_1340,59.9701809653,sequenceLearningTask,001,094,
min1.png,min2.png,min3.png,min4.png,allBlank.png,,,,['num_4'],,,,,,0,6,6,6,,,,,,,,,,,,,,,,,['num_4'],7,0.0479782564798,1,['num_4'],0,[1.1637230769265443],,,,,,,,,2018_Jun_02_1340,59.9701809653,sequenceLearningTask,001,094,
min1.png,min2.png,min3.png,min4.png,allBlank.png,,,,['num_0'],,,,,,0,6,6,6,,,,,,,,,,,,,,,,,['num_0'],7,0.0553284103516,1,['num_0'],0,[1.0723466665949672],,,,,,,,,2018_Jun_02_1340,59.9701809653,sequenceLearningTask,001,094,
min1.png,min2.png,min3.png,min4.png,allBlank.png,,,,['num_0'],,,,,,0,6,6,6,,,,,,,,,,,,,,,,,['num_0'],7,0.0577981538372,1,['num_0'],0,[1.5528270768700168],,,,,,,,,2018_Jun_02_1340,59.9701809653,sequenceLearningTask,001,094,
min1.png,min2.png,min3.png,min4.png,allBlank.png,,,,['num_4'],,,,,,0,6,6,6,,,,,,,,,,,,,,,,,['num_4'],7,0.0657161024865,1,['num_4'],0,[2.3619638974778354],,,,,,,,,2018_Jun_02_1340,59.9701809653,sequenceLearningTask,001,094,
min1.png,min2.png,min3.png,min4.png,allBlank.png,,,,['num_1'],,,,,,0,6,6,6,,,,,,,,,,,,,,,,,['num_1'],7,0.062250256422,1,['num_1'],0,[3.8810133333317935],,,,,,,,,2018_Jun_02_1340,59.9701809653,sequenceLearningTask,001,094,
min1.png,min2.png,min3.png,min4.png,allBlank.png,,,,['num_0'],,,,,,0,6,6,6,,,,,,,,,,,,,,,,,['num_0'],7,0.0568689230131,1,['num_0'],0,[0.5038818460889161],,,,,,,,,2018_Jun_02_1340,59.9701809653,sequenceLearningTask,001,094,
min1.png,min2.png,min3.png,min4.png,allBlank.png,,,,['num_7'],,,,,,0,7,7,7,,,,,,,,,,,,,,,,,['num_7'],8,0.0523889231263,1,['num_7'],0,[1.0246002051280811],,,,,,,,,2018_Jun_02_1340,59.9701809653,sequenceLearningTask,001,094,
min1.png,min2.png,min3.png,min4.png,allBlank.png,,,,['num_1'],,,,,,0,7,7,7,,,,,,,,,,,,,,,,,['num_1'],8,0.0561189743457,0,"['num_4', 'num_1']",0,"[1.2219897436443716, 1.7879060513805598]",,,,,,,,,2018_Jun_02_1340,59.9701809653,sequenceLearningTask,001,094,
min1.png,min2.png,min3.png,min4.png,allBlank.png,,,,['num_4'],,,,,,0,7,7,7,,,,,,,,,,,,,,,,,['num_4'],8,0.0542473846581,1,['num_4'],0,[1.7570962051395327],,,,,,,,,2018_Jun_02_1340,59.9701809653,sequenceLearningTask,001,094,
min1.png,min2.png,min3.png,min4.png,allBlank.png,,,,['num_0'],,,,,,0,7,7,7,,,,,,,,,,,,,,,,,['num_0'],8,0.0280069743749,1,['num_0'],0,[1.635736615397036],,,,,,,,,2018_Jun_02_1340,59.9701809653,sequenceLearningTask,001,094,
min1.png,min2.png,min3.png,min4.png,allBlank.png,,,,['num_0'],,,,,,0,7,7,7,,,,,,,,,,,,,,,,,['num_0'],8,0.0468127179192,1,['num_0'],0,[3.3474822563584894],,,,,,,,,2018_Jun_02_1340,59.9701809653,sequenceLearningTask,001,094,
min1.png,min2.png,min3.png,min4.png,allBlank.png,,,,['num_4'],,,,,,0,7,7,7,,,,,,,,,,,,,,,,,['num_4'],8,0.057312820456,1,['num_4'],0,[3.6531938462285325],,,,,,,,,2018_Jun_02_1340,59.9701809653,sequenceLearningTask,001,094,
min1.png,min2.png,min3.png,min4.png,allBlank.png,,,,['num_1'],,,,,,0,7,7,7,,,,,,,,,,,,,,,,,['num_1'],8,0.0593846153934,1,['num_1'],0,[1.4518194871488959],,,,,,,,,2018_Jun_02_1340,59.9701809653,sequenceLearningTask,001,094,
min1.png,min2.png,min3.png,min4.png,allBlank.png,,,,['num_0'],,,,,,0,7,7,7,,,,,,,,,,,,,,,,,['num_0'],8,0.0579425641336,1,['num_0'],0,[0.7195913846371695],,,,,,,,,2018_Jun_02_1340,59.9701809653,sequenceLearningTask,001,094,
min1.png,min2.png,min3.png,min4.png,allBlank.png,,,,['num_7'],,,,,,0,8,8,8,,,,,,,,,,,,,,,,,['num_7'],9,0.0601854359265,0,"['num_1', 'num_7']",0,"[0.00045292312279343605, 2.2666806153720245]",,,,,,,,,2018_Jun_02_1340,59.9701809653,sequenceLearningTask,001,094,
min1.png,min2.png,min3.png,min4.png,allBlank.png,,,,['num_1'],,,,,,0,8,8,8,,,,,,,,,,,,,,,,,['num_1'],9,0.0577755897539,1,['num_1'],0,[2.1351593845756724],,,,,,,,,2018_Jun_02_1340,59.9701809653,sequenceLearningTask,001,094,
min1.png,min2.png,min3.png,min4.png,allBlank.png,,,,['num_4'],,,,,,0,8,8,8,,,,,,,,,,,,,,,,,['num_4'],9,0.0634769231547,1,['num_4'],0,[1.8973419487010688],,,,,,,,,2018_Jun_02_1340,59.9701809653,sequenceLearningTask,001,094,
min1.png,min2.png,min3.png,min4.png,allBlank.png,,,,['num_0'],,,,,,0,8,8,8,,,,,,,,,,,,,,,,,['num_0'],9,0.0578379486687,1,['num_0'],0,[2.3870334358653054],,,,,,,,,2018_Jun_02_1340,59.9701809653,sequenceLearningTask,001,094,
min1.png,min2.png,min3.png,min4.png,allBlank.png,,,,['num_0'],,,,,,0,8,8,8,,,,,,,,,,,,,,,,,['num_0'],9,0.0556742564077,1,['num_0'],0,[0.8049969230778515],,,,,,,,,2018_Jun_02_1340,59.9701809653,sequenceLearningTask,001,094,
min1.png,min2.png,min3.png,min4.png,allBlank.png,,,,['num_4'],,,,,,0,8,8,8,,,,,,,,,,,,,,,,,['num_4'],9,0.0487454358954,1,['num_4'],0,[1.961050666635856],,,,,,,,,2018_Jun_02_1340,59.9701809653,sequenceLearningTask,001,094,
min1.png,min2.png,min3.png,min4.png,allBlank.png,,,,['num_1'],,,,,,0,8,8,8,,,,,,,,,,,,,,,,,['num_1'],9,0.0494014358846,1,['num_1'],0,[1.5124824615195394],,,,,,,,,2018_Jun_02_1340,59.9701809653,sequenceLearningTask,001,094,
min1.png,min2.png,min3.png,min4.png,allBlank.png,,,,['num_0'],,,,,,0,8,8,8,,,,,,,,,,,,,,,,,['num_0'],9,0.0558998974739,1,['num_0'],0,[1.1725218461360782],,,,,,,,,2018_Jun_02_1340,59.9701809653,sequenceLearningTask,001,094,
min1.png,min2.png,min3.png,min4.png,allBlank.png,,,,['num_7'],,,,,,0,9,9,9,,,,,,,,,,,,,,,,,['num_7'],10,0.0530629743589,1,['num_7'],0,[1.0382022564299405],,,,,,,,,2018_Jun_02_1340,59.9701809653,sequenceLearningTask,001,094,
min1.png,min2.png,min3.png,min4.png,allBlank.png,,,,['num_1'],,,,,,0,9,9,9,,,,,,,,,,,,,,,,,['num_1'],10,0.0555052306736,1,['num_1'],0,[2.406181743601337],,,,,,,,,2018_Jun_02_1340,59.9701809653,sequenceLearningTask,001,094,
min1.png,min2.png,min3.png,min4.png,allBlank.png,,,,['num_4'],,,,,,0,9,9,9,,,,,,,,,,,,,,,,,['num_4'],10,0.058287999942,0,"['num_7', 'num_4']",0,"[0.968455794849433, 1.636182974325493]",,,,,,,,,2018_Jun_02_1340,59.9701809653,sequenceLearningTask,001,094,
min1.png,min2.png,min3.png,min4.png,allBlank.png,,,,['num_0'],,,,,,0,9,9,9,,,,,,,,,,,,,,,,,['num_0'],10,0.0532775383908,1,['num_0'],0,[1.141402256442234],,,,,,,,,2018_Jun_02_1340,59.9701809653,sequenceLearningTask,001,094,
min1.png,min2.png,min3.png,min4.png,allBlank.png,,,,['num_0'],,,,,,0,9,9,9,,,,,,,,,,,,,,,,,['num_0'],10,0.0555737435352,1,['num_0'],0,[1.3055848205694929],,,,,,,,,2018_Jun_02_1340,59.9701809653,sequenceLearningTask,001,094,
min1.png,min2.png,min3.png,min4.png,allBlank.png,,,,['num_4'],,,,,,0,9,9,9,,,,,,,,,,,,,,,,,['num_4'],10,0.0570875897538,1,['num_4'],0,[1.2373456411296502],,,,,,,,,2018_Jun_02_1340,59.9701809653,sequenceLearningTask,001,094,
min1.png,min2.png,min3.png,min4.png,allBlank.png,,,,['num_1'],,,,,,0,9,9,9,,,,,,,,,,,,,,,,,['num_1'],10,0.0214568205411,1,['num_1'],0,[0.6240123077295721],,,,,,,,,2018_Jun_02_1340,59.9701809653,sequenceLearningTask,001,094,
min1.png,min2.png,min3.png,min4.png,allBlank.png,,,,['num_0'],,,,,,0,9,9,9,,,,,,,,,,,,,,,,,['num_0'],10,0.0525095384801,1,['num_0'],0,[0.4882408204721287],,,,,,,,,2018_Jun_02_1340,59.9701809653,sequenceLearningTask,001,094,
min1.png,min2.png,min3.png,min4.png,allBlank.png,,,,['num_7'],,,,,,0,0,0,0,,,,,,,,,,,,,,,,,['num_7'],1,0.0475195897743,0,"['num_7', 'num_7']",0,"[0.00025558972265571356, 1.3322334359399974]",,,,,,,,,2018_Jun_02_1340,59.9701809653,sequenceLearningTask,001,094,
min1.png,min2.png,min3.png,min4.png,allBlank.png,,,,['num_1'],,,,,,0,0,0,0,,,,,,,,,,,,,,,,,['num_1'],1,0.0570650256705,1,['num_1'],0,[1.7366498461924493],,,,,,,,,2018_Jun_02_1340,59.9701809653,sequenceLearningTask,001,094,
min1.png,min2.png,min3.png,min4.png,allBlank.png,,,,['num_4'],,,,,,0,0,0,0,,,,,,,,,,,,,,,,,['num_4'],1,0.0513608205365,0,"['num_0', 'num_4']",0,"[0.9767954871058464, 2.17617148719728]",,,,,,,,,2018_Jun_02_1340,59.9701809653,sequenceLearningTask,001,094,
min1.png,min2.png,min3.png,min4.png,allBlank.png,,,,['num_0'],,,,,,0,0,0,0,,,,,,,,,,,,,,,,,['num_0'],1,0.0597624614602,1,['num_0'],0,[1.2180192820960656],,,,,,,,,2018_Jun_02_1340,59.9701809653,sequenceLearningTask,001,094,
min1.png,min2.png,min3.png,min4.png,allBlank.png,,,,['num_0'],,,,,,0,0,0,0,,,,,,,,,,,,,,,,,['num_0'],1,0.0550153846852,1,['num_0'],0,[2.3890178460860625],,,,,,,,,2018_Jun_02_1340,59.9701809653,sequenceLearningTask,001,094,
min1.png,min2.png,min3.png,min4.png,allBlank.png,,,,['num_4'],,,,,,0,0,0,0,,,,,,,,,,,,,,,,,['num_4'],1,0.0536697435891,1,['num_4'],0,[3.023879794869572],,,,,,,,,2018_Jun_02_1340,59.9701809653,sequenceLearningTask,001,094,
min1.png,min2.png,min3.png,min4.png,allBlank.png,,,,['num_1'],,,,,,0,0,0,0,,,,,,,,,,,,,,,,,['num_1'],1,0.125756717869,1,['num_1'],0,[3.63666051288601],,,,,,,,,2018_Jun_02_1340,59.9701809653,sequenceLearningTask,001,094,
min1.png,min2.png,min3.png,min4.png,allBlank.png,,,,['num_0'],,,,,,0,0,0,0,,,,,,,,,,,,,,,,,['num_0'],1,0.0500447179656,1,['num_0'],0,[2.243970871786587],,,,,,,,,2018_Jun_02_1340,59.9701809653,sequenceLearningTask,001,094,
min1.png,min2.png,min3.png,min4.png,allBlank.png,,,,['num_7'],,,,,,0,1,1,1,,,,,,,,,,,,,,,,,['num_7'],2,0.0488783590263,1,['num_7'],0,[1.6117624614853412],,,,,,,,,2018_Jun_02_1340,59.9701809653,sequenceLearningTask,001,094,
min1.png,min2.png,min3.png,min4.png,allBlank.png,,,,['num_1'],,,,,,0,1,1,1,,,,,,,,,,,,,,,,,['num_1'],2,0.0487922051689,0,"['num_4', 'num_4', 'num_1']",0,"[2.3456566154491156, 4.879347282112576, 7.613486359012313]",,,,,,,,,2018_Jun_02_1340,59.9701809653,sequenceLearningTask,001,094,
min1.png,min2.png,min3.png,min4.png,allBlank.png,,,,['num_4'],,,,,,0,1,1,1,,,,,,,,,,,,,,,,,['num_4'],2,0.0574026666582,1,['num_4'],0,[2.8361788718029857],,,,,,,,,2018_Jun_02_1340,59.9701809653,sequenceLearningTask,001,094,
min1.png,min2.png,min3.png,min4.png,allBlank.png,,,,['num_0'],,,,,,0,1,1,1,,,,,,,,,,,,,,,,,['num_0'],2,0.0492508718744,1,['num_0'],0,[0.9453534358181059],,,,,,,,,2018_Jun_02_1340,59.9701809653,sequenceLearningTask,001,094,
min1.png,min2.png,min3.png,min4.png,allBlank.png,,,,['num_0'],,,,,,0,1,1,1,,,,,,,,,,,,,,,,,['num_0'],2,0.0587331282441,1,['num_0'],0,[1.1174408205552027],,,,,,,,,2018_Jun_02_1340,59.9701809653,sequenceLearningTask,001,094,
min1.png,min2.png,min3.png,min4.png,allBlank.png,,,,['num_4'],,,,,,0,1,1,1,,,,,,,,,,,,,,,,,['num_4'],2,0.0539679999929,0,"['num_7', 'num_4']",0,"[1.4404873846797273, 2.2409234872320667]",,,,,,,,,2018_Jun_02_1340,59.9701809653,sequenceLearningTask,001,094,
min1.png,min2.png,min3.png,min4.png,allBlank.png,,,,['num_1'],,,,,,0,1,1,1,,,,,,,,,,,,,,,,,['num_1'],2,0.0512053334387,1,['num_1'],0,[0.9928656410193071],,,,,,,,,2018_Jun_02_1340,59.9701809653,sequenceLearningTask,001,094,
min1.png,min2.png,min3.png,min4.png,allBlank.png,,,,['num_0'],,,,,,0,1,1,1,,,,,,,,,,,,,,,,,['num_0'],2,0.0538121025311,1,['num_0'],0,[0.17326687171589583],,,,,,,,,2018_Jun_02_1340,59.9701809653,sequenceLearningTask,001,094,
min1.png,min2.png,min3.png,min4.png,allBlank.png,,,,['num_7'],,,,,,0,2,2,2,,,,,,,,,,,,,,,,,['num_7'],3,0.0577050256543,1,['num_7'],0,[1.1686457435134798],,,,,,,,,2018_Jun_02_1340,59.9701809653,sequenceLearningTask,001,094,
min1.png,min2.png,min3.png,min4.png,allBlank.png,,,,['num_1'],,,,,,0,2,2,2,,,,,,,,,,,,,,,,,['num_1'],3,0.060528820497,1,['num_1'],0,[1.4001390769844875],,,,,,,,,2018_Jun_02_1340,59.9701809653,sequenceLearningTask,001,094,
min1.png,min2.png,min3.png,min4.png,allBlank.png,,,,['num_4'],,,,,,0,2,2,2,,,,,,,,,,,,,,,,,['num_4'],3,0.0623634872027,1,['num_4'],0,[2.648906256421469],,,,,,,,,2018_Jun_02_1340,59.9701809653,sequenceLearningTask,001,094,
min1.png,min2.png,min3.png,min4.png,allBlank.png,,,,['num_0'],,,,,,0,2,2,2,,,,,,,,,,,,,,,,,['num_0'],3,0.0497788718203,1,['num_0'],0,[1.1110670769121498],,,,,,,,,2018_Jun_02_1340,59.9701809653,sequenceLearningTask,001,094,
min1.png,min2.png,min3.png,min4.png,allBlank.png,,,,['num_0'],,,,,,0,2,2,2,,,,,,,,,,,,,,,,,['num_0'],3,0.0507798974868,1,['num_0'],0,[0.9618182564154267],,,,,,,,,2018_Jun_02_1340,59.9701809653,sequenceLearningTask,001,094,
min1.png,min2.png,min3.png,min4.png,allBlank.png,,,,['num_4'],,,,,,0,2,2,2,,,,,,,,,,,,,,,,,['num_4'],3,0.0560479999986,1,['num_4'],0,[1.8378223589388654],,,,,,,,,2018_Jun_02_1340,59.9701809653,sequenceLearningTask,001,094,
min1.png,min2.png,min3.png,min4.png,allBlank.png,,,,['num_1'],,,,,,0,2,2,2,,,,,,,,,,,,,,,,,['num_1'],3,0.0512816410046,1,['num_1'],0,[1.3107265640283003],,,,,,,,,2018_Jun_02_1340,59.9701809653,sequenceLearningTask,001,094,
min1.png,min2.png,min3.png,min4.png,allBlank.png,,,,['num_0'],,,,,,0,2,2,2,,,,,,,,,,,,,,,,,['num_0'],3,0.063443282037,1,['num_0'],0,[0.9460168204968795],,,,,,,,,2018_Jun_02_1340,59.9701809653,sequenceLearningTask,001,094,
min1.png,min2.png,min3.png,min4.png,allBlank.png,,,,['num_7'],,,,,,0,3,3,3,,,,,,,,,,,,,,,,,['num_7'],4,0.0613920000615,1,['num_7'],0,[1.3480377435917035],,,,,,,,,2018_Jun_02_1340,59.9701809653,sequenceLearningTask,001,094,
min1.png,min2.png,min3.png,min4.png,allBlank.png,,,,['num_1'],,,,,,0,3,3,3,,,,,,,,,,,,,,,,,['num_1'],4,0.0626752821263,0,"['num_4', 'num_4', 'num_1', 'num_1']",0,"[1.1971023589139804, 1.899378051282838, 2.396931282011792]",,,,,,,,,2018_Jun_02_1340,59.9701809653,sequenceLearningTask,001,094,
min1.png,min2.png,min3.png,min4.png,allBlank.png,,,,['num_4'],,,,,,0,3,3,3,,,,,,,,,,,,,,,,,['num_4'],4,0.0602609231137,1,['num_4'],0,[1.66717210249044],,,,,,,,,2018_Jun_02_1340,59.9701809653,sequenceLearningTask,001,094,
min1.png,min2.png,min3.png,min4.png,allBlank.png,,,,['num_0'],,,,,,0,3,3,3,,,,,,,,,,,,,,,,,['num_0'],4,0.0557686154498,1,['num_0'],0,[1.1066231795120984],,,,,,,,,2018_Jun_02_1340,59.9701809653,sequenceLearningTask,001,094,
min1.png,min2.png,min3.png,min4.png,allBlank.png,,,,['num_0'],,,,,,0,3,3,3,,,,,,,,,,,,,,,,,['num_0'],4,0.055958974408,1,['num_0'],0,[0.9715437948470935],,,,,,,,,2018_Jun_02_1340,59.9701809653,sequenceLearningTask,001,094,
min1.png,min2.png,min3.png,min4.png,allBlank.png,,,,['num_4'],,,,,,0,3,3,3,,,,,,,,,,,,,,,,,['num_4'],4,0.0517936410615,1,['num_4'],0,[2.2102514872094616],,,,,,,,,2018_Jun_02_1340,59.9701809653,sequenceLearningTask,001,094,
min1.png,min2.png,min3.png,min4.png,allBlank.png,,,,['num_1'],,,,,,0,3,3,3,,,,,,,,,,,,,,,,,['num_1'],4,0.0547388718696,1,['num_1'],0,[1.1063335384242237],,,,,,,,,2018_Jun_02_1340,59.9701809653,sequenceLearningTask,001,094,
min1.png,min2.png,min3.png,min4.png,allBlank.png,,,,['num_0'],,,,,,0,3,3,3,,,,,,,,,,,,,,,,,['num_0'],4,0.0594252308365,1,['num_0'],0,[1.067177435848862],,,,,,,,,2018_Jun_02_1340,59.9701809653,sequenceLearningTask,001,094,
min1.png,min2.png,min3.png,min4.png,allBlank.png,,,,['num_7'],,,,,,0,4,4,4,,,,,,,,,,,,,,,,,['num_7'],5,0.0546149743022,1,['num_7'],0,[1.3388508717762306],,,,,,,,,2018_Jun_02_1340,59.9701809653,sequenceLearningTask,001,094,
min1.png,min2.png,min3.png,min4.png,allBlank.png,,,,['num_1'],,,,,,0,4,4,4,,,,,,,,,,,,,,,,,['num_1'],5,0.0534843077185,0,"['num_4', 'num_1']",0,"[0.12444882048293948, 0.7917140512727201]",,,,,,,,,2018_Jun_02_1340,59.9701809653,sequenceLearningTask,001,094,
min1.png,min2.png,min3.png,min4.png,allBlank.png,,,,['num_4'],,,,,,0,4,4,4,,,,,,,,,,,,,,,,,['num_4'],5,0.0534740512958,0,"['num_0', 'num_4']",0,"[0.6732664614683017, 2.0902765127830207]",,,,,,,,,2018_Jun_02_1340,59.9701809653,sequenceLearningTask,001,094,
min1.png,min2.png,min3.png,min4.png,allBlank.png,,,,['num_0'],,,,,,0,4,4,4,,,,,,,,,,,,,,,,,['num_0'],5,0.0538674872369,1,['num_0'],0,[0.9915585641283542],,,,,,,,,2018_Jun_02_1340,59.9701809653,sequenceLearningTask,001,094,
min1.png,min2.png,min3.png,min4.png,allBlank.png,,,,['num_0'],,,,,,0,4,4,4,,,,,,,,,,,,,,,,,['num_0'],5,0.052411076962,1,['num_0'],0,[1.6427774358307943],,,,,,,,,2018_Jun_02_1340,59.9701809653,sequenceLearningTask,001,094,
min1.png,min2.png,min3.png,min4.png,allBlank.png,,,,['num_4'],,,,,,0,4,4,4,,,,,,,,,,,,,,,,,['num_4'],5,0.0554818460951,1,['num_4'],0,[1.3889977436047047],,,,,,,,,2018_Jun_02_1340,59.9701809653,sequenceLearningTask,001,094,
min1.png,min2.png,min3.png,min4.png,allBlank.png,,,,['num_1'],,,,,,0,4,4,4,,,,,,,,,,,,,,,,,['num_1'],5,0.0509817436105,1,['num_1'],0,[1.4760459486860782],,,,,,,,,2018_Jun_02_1340,59.9701809653,sequenceLearningTask,001,094,
min1.png,min2.png,min3.png,min4.png,allBlank.png,,,,['num_0'],,,,,,0,4,4,4,,,,,,,,,,,,,,,,,['num_0'],5,0.0574732307578,1,['num_0'],0,[0.470626461552456],,,,,,,,,2018_Jun_02_1340,59.9701809653,sequenceLearningTask,001,094,
min1.png,min2.png,min3.png,min4.png,allBlank.png,,,,['num_7'],,,,,,0,5,5,5,,,,,,,,,,,,,,,,,['num_7'],6,0.0508315897314,0,"['num_0', 'num_7']",0,"[0.7919963076710701, 2.158559589763172]",,,,,,,,,2018_Jun_02_1340,59.9701809653,sequenceLearningTask,001,094,
min1.png,min2.png,min3.png,min4.png,allBlank.png,,,,['num_1'],,,,,,0,5,5,5,,,,,,,,,,,,,,,,,['num_1'],6,0.054553025635,1,['num_1'],0,[3.538598974351771],,,,,,,,,2018_Jun_02_1340,59.9701809653,sequenceLearningTask,001,094,
min1.png,min2.png,min3.png,min4.png,allBlank.png,,,,['num_4'],,,,,,0,5,5,5,,,,,,,,,,,,,,,,,['num_4'],6,0.0542309742887,1,['num_4'],0,[2.107394461520016],,,,,,,,,2018_Jun_02_1340,59.9701809653,sequenceLearningTask,001,094,
min1.png,min2.png,min3.png,min4.png,allBlank.png,,,,['num_0'],,,,,,0,5,5,5,,,,,,,,,,,,,,,,,['num_0'],6,0.0515766154276,1,['num_0'],0,[0.9762576409848407],,,,,,,,,2018_Jun_02_1340,59.9701809653,sequenceLearningTask,001,094,
min1.png,min2.png,min3.png,min4.png,allBlank.png,,,,['num_0'],,,,,,0,5,5,5,,,,,,,,,,,,,,,,,['num_0'],6,0.052497641067,1,['num_0'],0,[0.974755282048136],,,,,,,,,2018_Jun_02_1340,59.9701809653,sequenceLearningTask,001,094,
min1.png,min2.png,min3.png,min4.png,allBlank.png,,,,['num_4'],,,,,,0,5,5,5,,,,,,,,,,,,,,,,,['num_4'],6,0.0519294358091,1,['num_4'],0,[1.9258375384379178],,,,,,,,,2018_Jun_02_1340,59.9701809653,sequenceLearningTask,001,094,
min1.png,min2.png,min3.png,min4.png,allBlank.png,,,,['num_1'],,,,,,0,5,5,5,,,,,,,,,,,,,,,,,['num_1'],6,0.048537846189,1,['num_1'],0,[1.2800832820357755],,,,,,,,,2018_Jun_02_1340,59.9701809653,sequenceLearningTask,001,094,
min1.png,min2.png,min3.png,min4.png,allBlank.png,,,,['num_0'],,,,,,0,5,5,5,,,,,,,,,,,,,,,,,['num_0'],6,0.0574912820011,1,['num_0'],0,[0.5031930257100612],,,,,,,,,2018_Jun_02_1340,59.9701809653,sequenceLearningTask,001,094,
min1.png,min2.png,min3.png,min4.png,allBlank.png,,,,['num_7'],,,,,,0,6,6,6,,,,,,,,,,,,,,,,,['num_7'],7,0.0525349742966,1,['num_7'],0,[1.2565029744291678],,,,,,,,,2018_Jun_02_1340,59.9701809653,sequenceLearningTask,001,094,
min1.png,min2.png,min3.png,min4.png,allBlank.png,,,,['num_1'],,,,,,0,6,6,6,,,,,,,,,,,,,,,,,['num_1'],7,0.0545091282111,1,['num_1'],0,[1.8060365128330886],,,,,,,,,2018_Jun_02_1340,59.9701809653,sequenceLearningTask,001,094,
min1.png,min2.png,min3.png,min4.png,allBlank.png,,,,['num_4'],,,,,,0,6,6,6,,,,,,,,,,,,,,,,,['num_4'],7,0.053771897452,1,['num_4'],0,[2.1741439999314025],,,,,,,,,2018_Jun_02_1340,59.9701809653,sequenceLearningTask,001,094,
min1.png,min2.png,min3.png,min4.png,allBlank.png,,,,['num_0'],,,,,,0,6,6,6,,,,,,,,,,,,,,,,,['num_0'],7,0.0585029743379,1,['num_0'],0,[0.8692582563962787],,,,,,,,,2018_Jun_02_1340,59.9701809653,sequenceLearningTask,001,094,
min1.png,min2.png,min3.png,min4.png,allBlank.png,,,,['num_0'],,,,,,0,6,6,6,,,,,,,,,,,,,,,,,['num_0'],7,0.0634465641342,1,['num_0'],0,[0.846663384581916],,,,,,,,,2018_Jun_02_1340,59.9701809653,sequenceLearningTask,001,094,
min1.png,min2.png,min3.png,min4.png,allBlank.png,,,,['num_4'],,,,,,0,6,6,6,,,,,,,,,,,,,,,,,['num_4'],7,0.0544705641223,0,"['num_0', 'num_4']",0,"[0.3401632820023224, 6.9734962050570175]",,,,,,,,,2018_Jun_02_1340,59.9701809653,sequenceLearningTask,001,094,
min1.png,min2.png,min3.png,min4.png,allBlank.png,,,,['num_1'],,,,,,0,6,6,6,,,,,,,,,,,,,,,,,['num_1'],7,0.0565862563672,1,['num_1'],0,[5.2546334359794855],,,,,,,,,2018_Jun_02_1340,59.9701809653,sequenceLearningTask,001,094,
min1.png,min2.png,min3.png,min4.png,allBlank.png,,,,['num_0'],,,,,,0,6,6,6,,,,,,,,,,,,,,,,,['num_0'],7,0.0628508718219,1,['num_0'],0,[1.16501456417609],,,,,,,,,2018_Jun_02_1340,59.9701809653,sequenceLearningTask,001,094,
min1.png,min2.png,min3.png,min4.png,allBlank.png,,,,['num_7'],,,,,,0,7,7,7,,,,,,,,,,,,,,,,,['num_7'],8,0.0501099487301,1,['num_7'],0,[1.3601788718951866],,,,,,,,,2018_Jun_02_1340,59.9701809653,sequenceLearningTask,001,094,
min1.png,min2.png,min3.png,min4.png,allBlank.png,,,,['num_1'],,,,,,0,7,7,7,,,,,,,,,,,,,,,,,['num_1'],8,0.0497481025523,1,['num_1'],0,[2.3458781538065523],,,,,,,,,2018_Jun_02_1340,59.9701809653,sequenceLearningTask,001,094,
min1.png,min2.png,min3.png,min4.png,allBlank.png,,,,['num_4'],,,,,,0,7,7,7,,,,,,,,,,,,,,,,,['num_4'],8,0.0563782564132,1,['num_4'],0,[2.1719716923544183],,,,,,,,,2018_Jun_02_1340,59.9701809653,sequenceLearningTask,001,094,
min1.png,min2.png,min3.png,min4.png,allBlank.png,,,,['num_0'],,,,,,0,7,7,7,,,,,,,,,,,,,,,,,['num_0'],8,0.0608689230867,0,"['num_0', 'num_0', 'num_0']",0,"[0.9512882051058114, 1.1002354871015996]",,,,,,,,,2018_Jun_02_1340,59.9701809653,sequenceLearningTask,001,094,
min1.png,min2.png,min3.png,min4.png,allBlank.png,,,,['num_0'],,,,,,0,7,7,7,,,,,,,,,,,,,,,,,['num_0'],8,0.061359179439,1,['num_0'],0,[1.4827548718312755],,,,,,,,,2018_Jun_02_1340,59.9701809653,sequenceLearningTask,001,094,
min1.png,min2.png,min3.png,min4.png,allBlank.png,,,,['num_4'],,,,,,0,7,7,7,,,,,,,,,,,,,,,,,['num_4'],8,0.0525468717096,1,['num_4'],0,[2.142802461516112],,,,,,,,,2018_Jun_02_1340,59.9701809653,sequenceLearningTask,001,094,
min1.png,min2.png,min3.png,min4.png,allBlank.png,,,,['num_1'],,,,,,0,7,7,7,,,,,,,,,,,,,,,,,['num_1'],8,0.056562461541,1,['num_1'],0,[3.921030153753236],,,,,,,,,2018_Jun_02_1340,59.9701809653,sequenceLearningTask,001,094,
min1.png,min2.png,min3.png,min4.png,allBlank.png,,,,['num_0'],,,,,,0,7,7,7,,,,,,,,,,,,,,,,,['num_0'],8,0.0605337435845,1,['num_0'],0,[1.1016262563643977],,,,,,,,,2018_Jun_02_1340,59.9701809653,sequenceLearningTask,001,094,
min1.png,min2.png,min3.png,min4.png,allBlank.png,,,,['num_7'],,,,,,0,8,8,8,,,,,,,,,,,,,,,,,['num_7'],9,0.0492972307838,1,['num_7'],0,[1.510565743665211],,,,,,,,,2018_Jun_02_1340,59.9701809653,sequenceLearningTask,001,094,
min1.png,min2.png,min3.png,min4.png,allBlank.png,,,,['num_1'],,,,,,0,8,8,8,,,,,,,,,,,,,,,,,['num_1'],9,0.0583700513234,1,['num_1'],0,[1.836438974365592],,,,,,,,,2018_Jun_02_1340,59.9701809653,sequenceLearningTask,001,094,
min1.png,min2.png,min3.png,min4.png,allBlank.png,,,,['num_4'],,,,,,0,8,8,8,,,,,,,,,,,,,,,,,['num_4'],9,0.0565509743756,1,['num_4'],0,[3.20447753847111],,,,,,,,,2018_Jun_02_1340,59.9701809653,sequenceLearningTask,001,094,
min1.png,min2.png,min3.png,min4.png,allBlank.png,,,,['num_0'],,,,,,0,8,8,8,,,,,,,,,,,,,,,,,['num_0'],9,0.056985435891,1,['num_0'],0,[0.8877772308187559],,,,,,,,,2018_Jun_02_1340,59.9701809653,sequenceLearningTask,001,094,
min1.png,min2.png,min3.png,min4.png,allBlank.png,,,,['num_0'],,,,,,0,8,8,8,,,,,,,,,,,,,,,,,['num_0'],9,0.0541403077077,1,['num_0'],0,[1.057019487139769],,,,,,,,,2018_Jun_02_1340,59.9701809653,sequenceLearningTask,001,094,
min1.png,min2.png,min3.png,min4.png,allBlank.png,,,,['num_4'],,,,,,0,8,8,8,,,,,,,,,,,,,,,,,['num_4'],9,0.0535815384937,1,['num_4'],0,[3.525411692331545],,,,,,,,,2018_Jun_02_1340,59.9701809653,sequenceLearningTask,001,094,
min1.png,min2.png,min3.png,min4.png,allBlank.png,,,,['num_1'],,,,,,0,8,8,8,,,,,,,,,,,,,,,,,['num_1'],9,0.0577616409864,1,['num_1'],0,[3.7533156923018396],,,,,,,,,2018_Jun_02_1340,59.9701809653,sequenceLearningTask,001,094,
min1.png,min2.png,min3.png,min4.png,allBlank.png,,,,['num_0'],,,,,,0,8,8,8,,,,,,,,,,,,,,,,,['num_0'],9,0.0546441025799,1,['num_0'],0,[0.8570674870861694],,,,,,,,,2018_Jun_02_1340,59.9701809653,sequenceLearningTask,001,094,
min1.png,min2.png,min3.png,min4.png,allBlank.png,,,,['num_7'],,,,,,0,9,9,9,,,,,,,,,,,,,,,,,['num_7'],10,0.051007179427,1,['num_7'],0,[1.6254863588837907],,,,,,,,,2018_Jun_02_1340,59.9701809653,sequenceLearningTask,001,094,
min1.png,min2.png,min3.png,min4.png,allBlank.png,,,,['num_1'],,,,,,0,9,9,9,,,,,,,,,,,,,,,,,['num_1'],10,0.0565702563617,0,"['num_4', 'num_1']",0,"[1.0723212307784706, 1.905209025600925]",,,,,,,,,2018_Jun_02_1340,59.9701809653,sequenceLearningTask,001,094,
min1.png,min2.png,min3.png,min4.png,allBlank.png,,,,['num_4'],,,,,,0,9,9,9,,,,,,,,,,,,,,,,,['num_4'],10,0.0589386667125,1,['num_4'],0,[1.385840000002645],,,,,,,,,2018_Jun_02_1340,59.9701809653,sequenceLearningTask,001,094,
min1.png,min2.png,min3.png,min4.png,allBlank.png,,,,['num_0'],,,,,,0,9,9,9,,,,,,,,,,,,,,,,,['num_0'],10,0.0552053333959,1,['num_0'],0,[0.8230584615375847],,,,,,,,,2018_Jun_02_1340,59.9701809653,sequenceLearningTask,001,094,
min1.png,min2.png,min3.png,min4.png,allBlank.png,,,,['num_0'],,,,,,0,9,9,9,,,,,,,,,,,,,,,,,['num_0'],10,0.0557009230834,1,['num_0'],0,[1.038388102548197],,,,,,,,,2018_Jun_02_1340,59.9701809653,sequenceLearningTask,001,094,
min1.png,min2.png,min3.png,min4.png,allBlank.png,,,,['num_4'],,,,,,0,9,9,9,,,,,,,,,,,,,,,,,['num_4'],10,0.049405538477,1,['num_4'],0,[3.7119413332547992],,,,,,,,,2018_Jun_02_1340,59.9701809653,sequenceLearningTask,001,094,
min1.png,min2.png,min3.png,min4.png,allBlank.png,,,,['num_1'],,,,,,0,9,9,9,,,,,,,,,,,,,,,,,['num_1'],10,0.057958153775,1,['num_1'],0,[4.619701333343983],,,,,,,,,2018_Jun_02_1340,59.9701809653,sequenceLearningTask,001,094,
min1.png,min2.png,min3.png,min4.png,allBlank.png,,,,['num_0'],,,,,,0,9,9,9,,,,,,,,,,,,,,,,,['num_0'],10,0.0558711794438,1,['num_0'],0,[0.6218970256159082],,,,,,,,,2018_Jun_02_1340,59.9701809653,sequenceLearningTask,001,094,
min1.png,min2.png,min3.png,min4.png,images/allBlank.png,images/min4.png,'num_0',"['num_7', 'num_4', 'num_1', 'num_0']",['num_0'],num_0,,,,,0,9,9,9,0,0,0,3,,,,,,,,,,,,,['num_0'],,0.0657948718872,1,['num_0'],0,[1.0111126153497025],1,,,,,,,,2018_Jun_02_1340,59.9701809653,sequenceLearningTask,001,094,
min1.png,min2.png,min3.png,min4.png,images/allBlank.png,images/min1.png,'num_7',"['num_7', 'num_4', 'num_1', 'num_0']",['num_7'],num_7,,,,,0,9,9,9,0,1,1,0,,,,,,,,,,,,,['num_7'],,0.0570551794954,1,['num_7'],0,[2.885252923122607],1,,,,,,,,2018_Jun_02_1340,59.9701809653,sequenceLearningTask,001,094,
min1.png,min2.png,min3.png,min4.png,images/allBlank.png,images/min2.png,'num_4',"['num_7', 'num_4', 'num_1', 'num_0']",['num_4'],num_4,,,,,0,9,9,9,0,2,2,1,,,,,,,,,,,,,['num_4'],,0.0438912820537,1,['num_4'],0,[1.3315462564351037],1,,,,,,,,2018_Jun_02_1340,59.9701809653,sequenceLearningTask,001,094,
min1.png,min2.png,min3.png,min4.png,images/allBlank.png,images/min3.png,'num_1',"['num_7', 'num_4', 'num_1', 'num_0']",['num_1'],num_1,,,,,0,9,9,9,0,3,3,2,,,,,,,,,,,,,['num_1'],,0.056075897417,1,['num_1'],0,[1.6380463589448482],1,,,,,,,,2018_Jun_02_1340,59.9701809653,sequenceLearningTask,001,094,
min1.png,min2.png,min3.png,min4.png,images/allBlank.png,images/min3.png,'num_1',"['num_7', 'num_4', 'num_1', 'num_0']",['num_1'],num_1,,,,,0,9,9,9,1,0,4,2,,,,,,,,,,,,,['num_1'],,0.0511187692173,1,['num_1'],0,[1.5749275897396728],1,,,,,,,,2018_Jun_02_1340,59.9701809653,sequenceLearningTask,001,094,
min1.png,min2.png,min3.png,min4.png,images/allBlank.png,images/min2.png,'num_4',"['num_7', 'num_4', 'num_1', 'num_0']",['num_4'],num_4,,,,,0,9,9,9,1,1,5,1,,,,,,,,,,,,,['num_4'],,0.0607437948929,1,['num_4'],0,[1.3487007179064676],1,,,,,,,,2018_Jun_02_1340,59.9701809653,sequenceLearningTask,001,094,
min1.png,min2.png,min3.png,min4.png,images/allBlank.png,images/min4.png,'num_0',"['num_7', 'num_4', 'num_1', 'num_0']",['num_0'],num_0,,,,,0,9,9,9,1,2,6,3,,,,,,,,,,,,,['num_0'],,0.0488393846899,1,['num_0'],0,[0.7426067691994831],1,,,,,,,,2018_Jun_02_1340,59.9701809653,sequenceLearningTask,001,094,
min1.png,min2.png,min3.png,min4.png,images/allBlank.png,images/min1.png,'num_7',"['num_7', 'num_4', 'num_1', 'num_0']",['num_7'],num_7,,,,,0,9,9,9,1,3,7,0,,,,,,,,,,,,,['num_7'],,0.0560299487552,1,['num_7'],0,[0.9866190769243985],1,,,,,,,,2018_Jun_02_1340,59.9701809653,sequenceLearningTask,001,094,
min1.png,min2.png,min3.png,min4.png,images/allBlank.png,images/min4.png,'num_0',"['num_7', 'num_4', 'num_1', 'num_0']",['num_0'],num_0,,,,,0,9,9,9,2,0,8,3,,,,,,,,,,,,,['num_0'],,0.0519044102402,1,['num_0'],0,[0.9923187692184001],1,,,,,,,,2018_Jun_02_1340,59.9701809653,sequenceLearningTask,001,094,
min1.png,min2.png,min3.png,min4.png,images/allBlank.png,images/min1.png,'num_7',"['num_7', 'num_4', 'num_1', 'num_0']",['num_7'],num_7,,,,,0,9,9,9,2,1,9,0,,,,,,,,,,,,,['num_7'],,0.0540566153359,1,['num_7'],0,[2.3724311793921515],1,,,,,,,,2018_Jun_02_1340,59.9701809653,sequenceLearningTask,001,094,
min1.png,min2.png,min3.png,min4.png,images/allBlank.png,images/min3.png,'num_1',"['num_7', 'num_4', 'num_1', 'num_0']",['num_1'],num_1,,,,,0,9,9,9,2,2,10,2,,,,,,,,,,,,,['num_1'],,0.0618182563921,1,['num_1'],0,[2.2469677948392928],1,,,,,,,,2018_Jun_02_1340,59.9701809653,sequenceLearningTask,001,094,
min1.png,min2.png,min3.png,min4.png,images/allBlank.png,images/min2.png,'num_4',"['num_7', 'num_4', 'num_1', 'num_0']",['num_4'],num_4,,,,,0,9,9,9,2,3,11,1,,,,,,,,,,,,,['num_4'],,0.0553337435704,1,['num_4'],0,[1.9047807180322707],1,,,,,,,,2018_Jun_02_1340,59.9701809653,sequenceLearningTask,001,094,
min1.png,min2.png,min3.png,min4.png,images/allBlank.png,images/min2.png,'num_4',"['num_7', 'num_4', 'num_1', 'num_0']",['num_4'],num_4,,,,,0,9,9,9,3,0,12,1,,,,,,,,,,,,,['num_4'],,0.0477489230689,0,"['num_1', 'num_4', 'num_1', 'num_4']",0,"[2.510710974340327, 3.4946859487099573, 4.12732635892462]",0,,,,,,,,2018_Jun_02_1340,59.9701809653,sequenceLearningTask,001,094,
min1.png,min2.png,min3.png,min4.png,images/allBlank.png,images/min1.png,'num_7',"['num_7', 'num_4', 'num_1', 'num_0']",['num_7'],num_7,,,,,0,9,9,9,3,1,13,0,,,,,,,,,,,,,['num_7'],,0.0558588717831,1,['num_7'],0,[1.120790564105846],1,,,,,,,,2018_Jun_02_1340,59.9701809653,sequenceLearningTask,001,094,
min1.png,min2.png,min3.png,min4.png,images/allBlank.png,images/min3.png,'num_1',"['num_7', 'num_4', 'num_1', 'num_0']",['num_1'],num_1,,,,,0,9,9,9,3,2,14,2,,,,,,,,,,,,,['num_1'],,0.0530621538637,1,['num_1'],0,[1.5067335384665057],1,,,,,,,,2018_Jun_02_1340,59.9701809653,sequenceLearningTask,001,094,
min1.png,min2.png,min3.png,min4.png,images/allBlank.png,images/min4.png,'num_0',"['num_7', 'num_4', 'num_1', 'num_0']",['num_0'],num_0,,,,,0,9,9,9,3,3,15,3,,,,,,,,,,,,,['num_0'],,0.0563277949113,1,['num_0'],0,[0.7019035897683352],1,,,,,,,,2018_Jun_02_1340,59.9701809653,sequenceLearningTask,001,094,
min1.png,min2.png,min3.png,min4.png,images/allBlank.png,images/min2.png,'num_4',"['num_7', 'num_4', 'num_1', 'num_0']",['num_4'],num_4,,,,,0,9,9,9,4,0,16,1,,,,,,,,,,,,,['num_4'],,0.0624467692105,0,"['num_7', 'num_4']",0,"[1.2301292307674885, 1.9304664615774527]",0,,,,,,,,2018_Jun_02_1340,59.9701809653,sequenceLearningTask,001,094,
min1.png,min2.png,min3.png,min4.png,images/allBlank.png,images/min4.png,'num_0',"['num_7', 'num_4', 'num_1', 'num_0']",['num_0'],num_0,,,,,0,9,9,9,4,1,17,3,,,,,,,,,,,,,['num_0'],,0.0616652307799,1,['num_0'],0,[2.129692717920989],1,,,,,,,,2018_Jun_02_1340,59.9701809653,sequenceLearningTask,001,094,
min1.png,min2.png,min3.png,min4.png,images/allBlank.png,images/min3.png,'num_1',"['num_7', 'num_4', 'num_1', 'num_0']",['num_1'],num_1,,,,,0,9,9,9,4,2,18,2,,,,,,,,,,,,,['num_1'],,0.0586613332853,1,['num_1'],0,[2.982321641058661],1,,,,,,,,2018_Jun_02_1340,59.9701809653,sequenceLearningTask,001,094,
min1.png,min2.png,min3.png,min4.png,images/allBlank.png,images/min1.png,'num_7',"['num_7', 'num_4', 'num_1', 'num_0']",['num_7'],num_7,,,,,0,9,9,9,4,3,19,0,,,,,,,,,,,,,['num_7'],,0.0560258461628,0,"['num_0', 'num_7']",0,"[0.00020882056560367346, 1.6408722051419318]",0,,,,,,,,2018_Jun_02_1340,59.9701809653,sequenceLearningTask,001,094,
min1.png,min2.png,min3.png,min4.png,images/allBlank.png,images/min1.png,'num_7',"['num_7', 'num_4', 'num_1', 'num_0']",['num_7'],num_7,,,,,0,9,9,9,5,0,20,0,,,,,,,,,,,,,['num_7'],,0.0510564103024,1,['num_7'],0,[1.8818473846185952],1,,,,,,,,2018_Jun_02_1340,59.9701809653,sequenceLearningTask,001,094,
min1.png,min2.png,min3.png,min4.png,images/allBlank.png,images/min2.png,'num_4',"['num_7', 'num_4', 'num_1', 'num_0']",['num_4'],num_4,,,,,0,9,9,9,5,1,21,1,,,,,,,,,,,,,['num_4'],,0.0563318973873,1,['num_4'],0,[1.4362239999463782],1,,,,,,,,2018_Jun_02_1340,59.9701809653,sequenceLearningTask,001,094,
min1.png,min2.png,min3.png,min4.png,images/allBlank.png,images/min4.png,'num_0',"['num_7', 'num_4', 'num_1', 'num_0']",['num_0'],num_0,,,,,0,9,9,9,5,2,22,3,,,,,,,,,,,,,['num_0'],,0.0554465641035,1,['num_0'],0,[1.3032168205827475],1,,,,,,,,2018_Jun_02_1340,59.9701809653,sequenceLearningTask,001,094,
min1.png,min2.png,min3.png,min4.png,images/allBlank.png,images/min3.png,'num_1',"['num_7', 'num_4', 'num_1', 'num_0']",['num_1'],num_1,,,,,0,9,9,9,5,3,23,2,,,,,,,,,,,,,['num_1'],,0.061378051294,0,"['num_4', 'num_1']",0,"[1.6978096410166472, 2.1982937435386702]",0,,,,,,,,2018_Jun_02_1340,59.9701809653,sequenceLearningTask,001,094,
min1.png,min2.png,min3.png,min4.png,images/allBlank.png,images/min1.png,'num_7',"['num_7', 'num_4', 'num_1', 'num_0']",['num_7'],num_7,,,,,0,9,9,9,6,0,24,0,,,,,,,,,,,,,['num_7'],,0.0527273847256,1,['num_7'],0,[2.9079823590582237],1,,,,,,,,2018_Jun_02_1340,59.9701809653,sequenceLearningTask,001,094,
min1.png,min2.png,min3.png,min4.png,images/allBlank.png,images/min4.png,'num_0',"['num_7', 'num_4', 'num_1', 'num_0']",['num_0'],num_0,,,,,0,9,9,9,6,1,25,3,,,,,,,,,,,,,['num_0'],,0.0555081025232,1,['num_0'],0,[1.0195983588928357],1,,,,,,,,2018_Jun_02_1340,59.9701809653,sequenceLearningTask,001,094,
min1.png,min2.png,min3.png,min4.png,images/allBlank.png,images/min3.png,'num_1',"['num_7', 'num_4', 'num_1', 'num_0']",['num_1'],num_1,,,,,0,9,9,9,6,2,26,2,,,,,,,,,,,,,['num_1'],,0.0606129231164,1,['num_1'],0,[1.2988992821192369],1,,,,,,,,2018_Jun_02_1340,59.9701809653,sequenceLearningTask,001,094,
min1.png,min2.png,min3.png,min4.png,images/allBlank.png,images/min2.png,'num_4',"['num_7', 'num_4', 'num_1', 'num_0']",['num_4'],num_4,,,,,0,9,9,9,6,3,27,1,,,,,,,,,,,,,['num_4'],,0.0479212307837,1,['num_4'],0,[1.7620918974280357],1,,,,,,,,2018_Jun_02_1340,59.9701809653,sequenceLearningTask,001,094,
min1.png,min2.png,min3.png,min4.png,images/allBlank.png,images/min4.png,'num_0',"['num_7', 'num_4', 'num_1', 'num_0']",['num_0'],num_0,,,,,0,9,9,9,7,0,28,3,,,,,,,,,,,,,['num_0'],,0.0592480000341,1,['num_0'],0,[1.9833554872311652],1,,,,,,,,2018_Jun_02_1340,59.9701809653,sequenceLearningTask,001,094,
min1.png,min2.png,min3.png,min4.png,images/allBlank.png,images/min3.png,'num_1',"['num_7', 'num_4', 'num_1', 'num_0']",['num_1'],num_1,,,,,0,9,9,9,7,1,29,2,,,,,,,,,,,,,['num_1'],,0.0623027691618,1,['num_1'],0,[1.1465747692855075],1,,,,,,,,2018_Jun_02_1340,59.9701809653,sequenceLearningTask,001,094,
min1.png,min2.png,min3.png,min4.png,images/allBlank.png,images/min2.png,'num_4',"['num_7', 'num_4', 'num_1', 'num_0']",['num_4'],num_4,,,,,0,9,9,9,7,2,30,1,,,,,,,,,,,,,['num_4'],,0.0502276922343,1,['num_4'],0,[1.5587897435761988],1,,,,,,,,2018_Jun_02_1340,59.9701809653,sequenceLearningTask,001,094,
min1.png,min2.png,min3.png,min4.png,images/allBlank.png,images/min1.png,'num_7',"['num_7', 'num_4', 'num_1', 'num_0']",['num_7'],num_7,,,,,0,9,9,9,7,3,31,0,,,,,,,,,,,,,['num_7'],,0.0545074872207,1,['num_7'],0,[0.8558900512289256],1,,,,,,,,2018_Jun_02_1340,59.9701809653,sequenceLearningTask,001,094,
min1.png,min2.png,min3.png,min4.png,images/allBlank.png,images/min1.png,'num_7',"['num_7', 'num_4', 'num_1', 'num_0']",['num_7'],num_7,,,,,0,9,9,9,8,0,32,0,,,,,,,,,,,,,['num_7'],,0.055678359,1,['num_7'],0,[2.6399680000031367],1,,,,,,,,2018_Jun_02_1340,59.9701809653,sequenceLearningTask,001,094,
min1.png,min2.png,min3.png,min4.png,images/allBlank.png,images/min2.png,'num_4',"['num_7', 'num_4', 'num_1', 'num_0']",['num_4'],num_4,,,,,0,9,9,9,8,1,33,1,,,,,,,,,,,,,['num_4'],,0.0544061538531,1,['num_4'],0,[1.1553353846538812],1,,,,,,,,2018_Jun_02_1340,59.9701809653,sequenceLearningTask,001,094,
min1.png,min2.png,min3.png,min4.png,images/allBlank.png,images/min3.png,'num_1',"['num_7', 'num_4', 'num_1', 'num_0']",['num_1'],num_1,,,,,0,9,9,9,8,2,34,2,,,,,,,,,,,,,['num_1'],,0.0556184614543,1,['num_1'],0,[1.1707007179502398],1,,,,,,,,2018_Jun_02_1340,59.9701809653,sequenceLearningTask,001,094,
min1.png,min2.png,min3.png,min4.png,images/allBlank.png,images/min4.png,'num_0',"['num_7', 'num_4', 'num_1', 'num_0']",['num_0'],num_0,,,,,0,9,9,9,8,3,35,3,,,,,,,,,,,,,['num_0'],,0.0539171282435,1,['num_0'],0,[0.5890793845755979],1,,,,,,,,2018_Jun_02_1340,59.9701809653,sequenceLearningTask,001,094,
min1.png,min2.png,min3.png,min4.png,images/allBlank.png,images/min3.png,'num_1',"['num_7', 'num_4', 'num_1', 'num_0']",['num_1'],num_1,,,,,0,9,9,9,9,0,36,2,,,,,,,,,,,,,['num_1'],,0.0555597947678,1,['num_1'],0,[1.653661948745139],1,,,,,,,,2018_Jun_02_1340,59.9701809653,sequenceLearningTask,001,094,
min1.png,min2.png,min3.png,min4.png,images/allBlank.png,images/min2.png,'num_4',"['num_7', 'num_4', 'num_1', 'num_0']",['num_4'],num_4,,,,,0,9,9,9,9,1,37,1,,,,,,,,,,,,,['num_4'],,0.0503007179359,1,['num_4'],0,[1.3423852308187634],1,,,,,,,,2018_Jun_02_1340,59.9701809653,sequenceLearningTask,001,094,
min1.png,min2.png,min3.png,min4.png,images/allBlank.png,images/min1.png,'num_7',"['num_7', 'num_4', 'num_1', 'num_0']",['num_7'],num_7,,,,,0,9,9,9,9,2,38,0,,,,,,,,,,,,,['num_7'],,0.0569427692099,1,['num_7'],0,[1.5164812307339162],1,,,,,,,,2018_Jun_02_1340,59.9701809653,sequenceLearningTask,001,094,
min1.png,min2.png,min3.png,min4.png,images/allBlank.png,images/min4.png,'num_0',"['num_7', 'num_4', 'num_1', 'num_0']",['num_0'],num_0,,,,,0,9,9,9,9,3,39,3,,,,,,,,,,,,,['num_0'],,0.0598502564244,1,['num_0'],0,[2.050287589780055],1,,,,,,,,2018_Jun_02_1340,59.9701809653,sequenceLearningTask,001,094,
min1.png,min2.png,min3.png,min4.png,images/allBlank.png,images/min1.png,'num_7',"['num_7', 'num_4', 'num_1', 'num_0']",['num_7'],num_7,,,,,0,9,9,9,10,0,40,0,,,,,,,,,,,,,['num_7'],,0.0504964102292,0,"['num_1', 'num_7']",0,"[0.724608410266228, 2.4582851282320917]",0,,,,,,,,2018_Jun_02_1340,59.9701809653,sequenceLearningTask,001,094,
min1.png,min2.png,min3.png,min4.png,images/allBlank.png,images/min3.png,'num_1',"['num_7', 'num_4', 'num_1', 'num_0']",['num_1'],num_1,,,,,0,9,9,9,10,1,41,2,,,,,,,,,,,,,['num_1'],,0.0543355897535,1,['num_1'],0,[1.738284307764843],1,,,,,,,,2018_Jun_02_1340,59.9701809653,sequenceLearningTask,001,094,
min1.png,min2.png,min3.png,min4.png,images/allBlank.png,images/min4.png,'num_0',"['num_7', 'num_4', 'num_1', 'num_0']",['num_0'],num_0,,,,,0,9,9,9,10,2,42,3,,,,,,,,,,,,,['num_0'],,0.0540795896668,1,['num_0'],0,[1.0379007179290056],1,,,,,,,,2018_Jun_02_1340,59.9701809653,sequenceLearningTask,001,094,
min1.png,min2.png,min3.png,min4.png,images/allBlank.png,images/min2.png,'num_4',"['num_7', 'num_4', 'num_1', 'num_0']",['num_4'],num_4,,,,,0,9,9,9,10,3,43,1,,,,,,,,,,,,,['num_4'],,0.0685928205494,1,['num_4'],0,[3.6904430768918246],1,,,,,,,,2018_Jun_02_1340,59.9701809653,sequenceLearningTask,001,094,
min1.png,min2.png,min3.png,min4.png,images/allBlank.png,images/min2.png,'num_4',"['num_7', 'num_4', 'num_1', 'num_0']",['num_4'],num_4,,,,,0,9,9,9,11,0,44,1,,,,,,,,,,,,,['num_4'],,0.0620299486909,1,['num_4'],0,[5.063651692355052],1,,,,,,,,2018_Jun_02_1340,59.9701809653,sequenceLearningTask,001,094,
min1.png,min2.png,min3.png,min4.png,images/allBlank.png,images/min4.png,'num_0',"['num_7', 'num_4', 'num_1', 'num_0']",['num_0'],num_0,,,,,0,9,9,9,11,1,45,3,,,,,,,,,,,,,['num_0'],,0.0547524102731,1,['num_0'],0,[1.1707466666121036],1,,,,,,,,2018_Jun_02_1340,59.9701809653,sequenceLearningTask,001,094,
min1.png,min2.png,min3.png,min4.png,images/allBlank.png,images/min3.png,'num_1',"['num_7', 'num_4', 'num_1', 'num_0']",['num_1'],num_1,,,,,0,9,9,9,11,2,46,2,,,,,,,,,,,,,['num_1'],,0.0494986666599,1,['num_1'],0,[1.0439975385088474],1,,,,,,,,2018_Jun_02_1340,59.9701809653,sequenceLearningTask,001,094,
min1.png,min2.png,min3.png,min4.png,images/allBlank.png,images/min1.png,'num_7',"['num_7', 'num_4', 'num_1', 'num_0']",['num_7'],num_7,,,,,0,9,9,9,11,3,47,0,,,,,,,,,,,,,['num_7'],,0.0604804102331,1,['num_7'],0,[1.1802092307480052],1,,,,,,,,2018_Jun_02_1340,59.9701809653,sequenceLearningTask,001,094,
min1.png,min2.png,min3.png,min4.png,images/allBlank.png,images/min2.png,'num_4',"['num_7', 'num_4', 'num_1', 'num_0']",['num_4'],num_4,,,,,0,9,9,9,12,0,48,1,,,,,,,,,,,,,['num_4'],,0.0570518975146,1,['num_4'],0,[1.8524004102218896],1,,,,,,,,2018_Jun_02_1340,59.9701809653,sequenceLearningTask,001,094,
min1.png,min2.png,min3.png,min4.png,images/allBlank.png,images/min3.png,'num_1',"['num_7', 'num_4', 'num_1', 'num_0']",['num_1'],num_1,,,,,0,9,9,9,12,1,49,2,,,,,,,,,,,,,['num_1'],,0.0548742564861,1,['num_1'],0,[0.6700315896887332],1,,,,,,,,2018_Jun_02_1340,59.9701809653,sequenceLearningTask,001,094,
min1.png,min2.png,min3.png,min4.png,images/allBlank.png,images/min1.png,'num_7',"['num_7', 'num_4', 'num_1', 'num_0']",['num_7'],num_7,,,,,0,9,9,9,12,2,50,0,,,,,,,,,,,,,['num_7'],,0.0543659487739,0,"['num_0', 'num_7']",0,"[0.40381128212902695, 1.4211803077487275]",0,,,,,,,,2018_Jun_02_1340,59.9701809653,sequenceLearningTask,001,094,
min1.png,min2.png,min3.png,min4.png,images/allBlank.png,images/min4.png,'num_0',"['num_7', 'num_4', 'num_1', 'num_0']",['num_0'],num_0,,,,,0,9,9,9,12,3,51,3,,,,,,,,,,,,,['num_0'],,0.0532607178902,1,['num_0'],0,[1.0890432819724083],1,,,,,,,,2018_Jun_02_1340,59.9701809653,sequenceLearningTask,001,094,
min1.png,min2.png,min3.png,min4.png,images/allBlank.png,images/min1.png,'num_7',"['num_7', 'num_4', 'num_1', 'num_0']",['num_7'],num_7,,,,,0,9,9,9,13,0,52,0,,,,,,,,,,,,,['num_7'],,0.0516849230044,1,['num_7'],0,[1.256372102536261],1,,,,,,,,2018_Jun_02_1340,59.9701809653,sequenceLearningTask,001,094,
min1.png,min2.png,min3.png,min4.png,images/allBlank.png,images/min3.png,'num_1',"['num_7', 'num_4', 'num_1', 'num_0']",['num_1'],num_1,,,,,0,9,9,9,13,1,53,2,,,,,,,,,,,,,['num_1'],,0.0540812307736,1,['num_1'],0,[1.7884324102196842],1,,,,,,,,2018_Jun_02_1340,59.9701809653,sequenceLearningTask,001,094,
min1.png,min2.png,min3.png,min4.png,images/allBlank.png,images/min2.png,'num_4',"['num_7', 'num_4', 'num_1', 'num_0']",['num_4'],num_4,,,,,0,9,9,9,13,2,54,1,,,,,,,,,,,,,['num_4'],,0.0550104614813,1,['num_4'],0,[0.8211950769182295],1,,,,,,,,2018_Jun_02_1340,59.9701809653,sequenceLearningTask,001,094,
min1.png,min2.png,min3.png,min4.png,images/allBlank.png,images/min4.png,'num_0',"['num_7', 'num_4', 'num_1', 'num_0']",['num_0'],num_0,,,,,0,9,9,9,13,3,55,3,,,,,,,,,,,,,['num_0'],,0.0544209229993,1,['num_0'],0,[1.2376783589133993],1,,,,,,,,2018_Jun_02_1340,59.9701809653,sequenceLearningTask,001,094,
min1.png,min2.png,min3.png,min4.png,images/allBlank.png,images/min3.png,'num_1',"['num_7', 'num_4', 'num_1', 'num_0']",['num_1'],num_1,,,,,0,9,9,9,14,0,56,2,,,,,,,,,,,,,['num_1'],,0.0507721025497,1,['num_1'],0,[1.358217435888946],1,,,,,,,,2018_Jun_02_1340,59.9701809653,sequenceLearningTask,001,094,
min1.png,min2.png,min3.png,min4.png,images/allBlank.png,images/min2.png,'num_4',"['num_7', 'num_4', 'num_1', 'num_0']",['num_4'],num_4,,,,,0,9,9,9,14,1,57,1,,,,,,,,,,,,,['num_4'],,0.0499979486922,1,['num_4'],0,[1.2421981538645923],1,,,,,,,,2018_Jun_02_1340,59.9701809653,sequenceLearningTask,001,094,
min1.png,min2.png,min3.png,min4.png,images/allBlank.png,images/min1.png,'num_7',"['num_7', 'num_4', 'num_1', 'num_0']",['num_7'],num_7,,,,,0,9,9,9,14,2,58,0,,,,,,,,,,,,,['num_7'],,0.054492307594,1,['num_7'],0,[1.3550748717971146],1,,,,,,,,2018_Jun_02_1340,59.9701809653,sequenceLearningTask,001,094,
min1.png,min2.png,min3.png,min4.png,images/allBlank.png,images/min4.png,'num_0',"['num_7', 'num_4', 'num_1', 'num_0']",['num_0'],num_0,,,,,0,9,9,9,14,3,59,3,,,,,,,,,,,,,['num_0'],,0.0559343589703,1,['num_0'],0,[1.1526391794905066],1,,,,,,,,2018_Jun_02_1340,59.9701809653,sequenceLearningTask,001,094,
min1.png,min2.png,min3.png,min4.png,images/allBlank.png,images/min3.png,'num_1',"['num_7', 'num_4', 'num_1', 'num_0']",['num_1'],num_1,,,,,0,9,9,9,15,0,60,2,,,,,,,,,,,,,['num_1'],,0.0585099487798,1,['num_1'],0,[0.9502703589387238],1,,,,,,,,2018_Jun_02_1340,59.9701809653,sequenceLearningTask,001,094,
min1.png,min2.png,min3.png,min4.png,images/allBlank.png,images/min4.png,'num_0',"['num_7', 'num_4', 'num_1', 'num_0']",['num_0'],num_0,,,,,0,9,9,9,15,1,61,3,,,,,,,,,,,,,['num_0'],,0.0549866666552,1,['num_0'],0,[1.4545021537924185],1,,,,,,,,2018_Jun_02_1340,59.9701809653,sequenceLearningTask,001,094,
min1.png,min2.png,min3.png,min4.png,images/allBlank.png,images/min2.png,'num_4',"['num_7', 'num_4', 'num_1', 'num_0']",['num_4'],num_4,,,,,0,9,9,9,15,2,62,1,,,,,,,,,,,,,['num_4'],,0.0660258461721,0,"['num_1', 'num_4']",0,"[1.1432320000603795, 3.694169435999356]",0,,,,,,,,2018_Jun_02_1340,59.9701809653,sequenceLearningTask,001,094,
min1.png,min2.png,min3.png,min4.png,images/allBlank.png,images/min1.png,'num_7',"['num_7', 'num_4', 'num_1', 'num_0']",['num_7'],num_7,,,,,0,9,9,9,15,3,63,0,,,,,,,,,,,,,['num_7'],,0.0495544614969,1,['num_7'],0,[1.0772955897264183],1,,,,,,,,2018_Jun_02_1340,59.9701809653,sequenceLearningTask,001,094,
min1.png,min2.png,min3.png,min4.png,images/allBlank.png,images/min1.png,'num_7',"['num_7', 'num_4', 'num_1', 'num_0']",['num_7'],num_7,,,,,0,9,9,9,16,0,64,0,,,,,,,,,,,,,['num_7'],,0.0588287179125,1,['num_7'],0,[1.479417025577277],1,,,,,,,,2018_Jun_02_1340,59.9701809653,sequenceLearningTask,001,094,
min1.png,min2.png,min3.png,min4.png,images/allBlank.png,images/min3.png,'num_1',"['num_7', 'num_4', 'num_1', 'num_0']",['num_1'],num_1,,,,,0,9,9,9,16,1,65,2,,,,,,,,,,,,,['num_1'],,0.0490063589532,1,['num_1'],0,[2.3114395897137],1,,,,,,,,2018_Jun_02_1340,59.9701809653,sequenceLearningTask,001,094,
min1.png,min2.png,min3.png,min4.png,images/allBlank.png,images/min2.png,'num_4',"['num_7', 'num_4', 'num_1', 'num_0']",['num_4'],num_4,,,,,0,9,9,9,16,2,66,1,,,,,,,,,,,,,['num_4'],,0.0567216409836,1,['num_4'],0,[1.8014400000683963],1,,,,,,,,2018_Jun_02_1340,59.9701809653,sequenceLearningTask,001,094,
min1.png,min2.png,min3.png,min4.png,images/allBlank.png,images/min4.png,'num_0',"['num_7', 'num_4', 'num_1', 'num_0']",['num_0'],num_0,,,,,0,9,9,9,16,3,67,3,,,,,,,,,,,,,['num_0'],,0.0536918974249,0,"['num_7', 'num_4', 'num_0']",0,"[0.6054018461145461, 1.2886014358373359, 1.8396270768716931]",0,,,,,,,,2018_Jun_02_1340,59.9701809653,sequenceLearningTask,001,094,
min1.png,min2.png,min3.png,min4.png,images/allBlank.png,images/min3.png,'num_1',"['num_7', 'num_4', 'num_1', 'num_0']",['num_1'],num_1,,,,,0,9,9,9,17,0,68,2,,,,,,,,,,,,,['num_1'],,0.0532201025635,0,"['num_0', 'num_1']",0,"[0.8723864615894854, 1.806489025708288]",0,,,,,,,,2018_Jun_02_1340,59.9701809653,sequenceLearningTask,001,094,
min1.png,min2.png,min3.png,min4.png,images/allBlank.png,images/min4.png,'num_0',"['num_7', 'num_4', 'num_1', 'num_0']",['num_0'],num_0,,,,,0,9,9,9,17,1,69,3,,,,,,,,,,,,,['num_0'],,0.0552184615517,1,['num_0'],0,[1.1534108718624339],1,,,,,,,,2018_Jun_02_1340,59.9701809653,sequenceLearningTask,001,094,
min1.png,min2.png,min3.png,min4.png,images/allBlank.png,images/min2.png,'num_4',"['num_7', 'num_4', 'num_1', 'num_0']",['num_4'],num_4,,,,,0,9,9,9,17,2,70,1,,,,,,,,,,,,,['num_4'],,0.050624000025,1,['num_4'],0,[1.575469128205441],1,,,,,,,,2018_Jun_02_1340,59.9701809653,sequenceLearningTask,001,094,
min1.png,min2.png,min3.png,min4.png,images/allBlank.png,images/min1.png,'num_7',"['num_7', 'num_4', 'num_1', 'num_0']",['num_7'],num_7,,,,,0,9,9,9,17,3,71,0,,,,,,,,,,,,,['num_7'],,0.0588188717375,1,['num_7'],0,[1.1212410256266594],1,,,,,,,,2018_Jun_02_1340,59.9701809653,sequenceLearningTask,001,094,
min1.png,min2.png,min3.png,min4.png,images/allBlank.png,images/min4.png,'num_0',"['num_7', 'num_4', 'num_1', 'num_0']",['num_0'],num_0,,,,,0,9,9,9,18,0,72,3,,,,,,,,,,,,,['num_0'],,0.0505226666573,1,['num_0'],0,[1.22597087174654],1,,,,,,,,2018_Jun_02_1340,59.9701809653,sequenceLearningTask,001,094,
min1.png,min2.png,min3.png,min4.png,images/allBlank.png,images/min2.png,'num_4',"['num_7', 'num_4', 'num_1', 'num_0']",['num_4'],num_4,,,,,0,9,9,9,18,1,73,1,,,,,,,,,,,,,['num_4'],,0.0557078974089,1,['num_4'],0,[1.2861177435843274],1,,,,,,,,2018_Jun_02_1340,59.9701809653,sequenceLearningTask,001,094,
min1.png,min2.png,min3.png,min4.png,images/allBlank.png,images/min3.png,'num_1',"['num_7', 'num_4', 'num_1', 'num_0']",['num_1'],num_1,,,,,0,9,9,9,18,2,74,2,,,,,,,,,,,,,['num_1'],,0.0542490256485,1,['num_1'],0,[0.7550810255343094],1,,,,,,,,2018_Jun_02_1340,59.9701809653,sequenceLearningTask,001,094,
min1.png,min2.png,min3.png,min4.png,images/allBlank.png,images/min1.png,'num_7',"['num_7', 'num_4', 'num_1', 'num_0']",['num_7'],num_7,,,,,0,9,9,9,18,3,75,0,,,,,,,,,,,,,['num_7'],,0.0560168204829,0,"['num_0', 'num_7']",0,"[0.2697612306801602, 1.2373764101648703]",0,,,,,,,,2018_Jun_02_1340,59.9701809653,sequenceLearningTask,001,094,
min1.png,min2.png,min3.png,min4.png,images/allBlank.png,images/min2.png,'num_4',"['num_7', 'num_4', 'num_1', 'num_0']",['num_4'],num_4,,,,,0,9,9,9,19,0,76,1,,,,,,,,,,,,,['num_4'],,0.0511638975004,1,['num_4'],0,[1.8918297435157],1,,,,,,,,2018_Jun_02_1340,59.9701809653,sequenceLearningTask,001,094,
min1.png,min2.png,min3.png,min4.png,images/allBlank.png,images/min1.png,'num_7',"['num_7', 'num_4', 'num_1', 'num_0']",['num_7'],num_7,,,,,0,9,9,9,19,1,77,0,,,,,,,,,,,,,['num_7'],,0.0543540513609,1,['num_7'],0,[1.5883643076522276],1,,,,,,,,2018_Jun_02_1340,59.9701809653,sequenceLearningTask,001,094,
min1.png,min2.png,min3.png,min4.png,images/allBlank.png,images/min3.png,'num_1',"['num_7', 'num_4', 'num_1', 'num_0']",['num_1'],num_1,,,,,0,9,9,9,19,2,78,2,,,,,,,,,,,,,['num_1'],,0.0615364102414,0,"['num_4', 'num_1']",0,"[1.3144615384517238, 1.898031179443933]",0,,,,,,,,2018_Jun_02_1340,59.9701809653,sequenceLearningTask,001,094,
min1.png,min2.png,min3.png,min4.png,images/allBlank.png,images/min4.png,'num_0',"['num_7', 'num_4', 'num_1', 'num_0']",['num_0'],num_0,,,,,0,9,9,9,19,3,79,3,,,,,,,,,,,,,['num_0'],,0.0556139487308,1,['num_0'],0,[0.835321435937658],1,,,,,,,,2018_Jun_02_1340,59.9701809653,sequenceLearningTask,001,094,
min1.png,min2.png,min3.png,min4.png,allBlank.png,,,,['num_7'],,,,,,0,0,0,0,,,,,,,,,,,,,,,,,['num_7'],1,0.0557333333418,1,['num_7'],0,[1.042997743585147],,,,,,,,,2018_Jun_02_1340,59.9701809653,sequenceLearningTask,001,094,
min1.png,min2.png,min3.png,min4.png,allBlank.png,,,,['num_1'],,,,,,0,0,0,0,,,,,,,,,,,,,,,,,['num_1'],1,0.0560549743241,1,['num_1'],0,[1.1212151795625687],,,,,,,,,2018_Jun_02_1340,59.9701809653,sequenceLearningTask,001,094,
min1.png,min2.png,min3.png,min4.png,allBlank.png,,,,['num_4'],,,,,,0,0,0,0,,,,,,,,,,,,,,,,,['num_4'],1,0.0550125128357,1,['num_4'],0,[0.6892492307815701],,,,,,,,,2018_Jun_02_1340,59.9701809653,sequenceLearningTask,001,094,
min1.png,min2.png,min3.png,min4.png,allBlank.png,,,,['num_0'],,,,,,0,0,0,0,,,,,,,,,,,,,,,,,['num_0'],1,0.0556098461384,1,['num_0'],0,[0.9052012307802215],,,,,,,,,2018_Jun_02_1340,59.9701809653,sequenceLearningTask,001,094,
min1.png,min2.png,min3.png,min4.png,allBlank.png,,,,['num_0'],,,,,,0,0,0,0,,,,,,,,,,,,,,,,,['num_0'],1,0.0527905641356,1,['num_0'],0,[1.9251286154612899],,,,,,,,,2018_Jun_02_1340,59.9701809653,sequenceLearningTask,001,094,
min1.png,min2.png,min3.png,min4.png,allBlank.png,,,,['num_4'],,,,,,0,0,0,0,,,,,,,,,,,,,,,,,['num_4'],1,0.0578994872048,1,['num_4'],0,[1.303613128256984],,,,,,,,,2018_Jun_02_1340,59.9701809653,sequenceLearningTask,001,094,
min1.png,min2.png,min3.png,min4.png,allBlank.png,,,,['num_1'],,,,,,0,0,0,0,,,,,,,,,,,,,,,,,['num_1'],1,0.0552237948868,1,['num_1'],0,[0.9730153846321627],,,,,,,,,2018_Jun_02_1340,59.9701809653,sequenceLearningTask,001,094,
min1.png,min2.png,min3.png,min4.png,allBlank.png,,,,['num_0'],,,,,,0,0,0,0,,,,,,,,,,,,,,,,,['num_0'],1,0.0497316922992,1,['num_0'],0,[0.8111675897380337],,,,,,,,,2018_Jun_02_1340,59.9701809653,sequenceLearningTask,001,094,
min1.png,min2.png,min3.png,min4.png,allBlank.png,,,,['num_7'],,,,,,0,1,1,1,,,,,,,,,,,,,,,,,['num_7'],2,0.0483056410449,1,['num_7'],0,[0.8107839999720454],,,,,,,,,2018_Jun_02_1340,59.9701809653,sequenceLearningTask,001,094,
min1.png,min2.png,min3.png,min4.png,allBlank.png,,,,['num_1'],,,,,,0,1,1,1,,,,,,,,,,,,,,,,,['num_1'],2,0.0591692308662,0,"['num_4', 'num_1']",0,"[0.7018900512484834, 1.4359823588747531]",,,,,,,,,2018_Jun_02_1340,59.9701809653,sequenceLearningTask,001,094,
min1.png,min2.png,min3.png,min4.png,allBlank.png,,,,['num_4'],,,,,,0,1,1,1,,,,,,,,,,,,,,,,,['num_4'],2,0.0556746666552,1,['num_4'],0,[4.272198153892532],,,,,,,,,2018_Jun_02_1340,59.9701809653,sequenceLearningTask,001,094,
min1.png,min2.png,min3.png,min4.png,allBlank.png,,,,['num_0'],,,,,,0,1,1,1,,,,,,,,,,,,,,,,,['num_0'],2,0.0586198974634,1,['num_0'],0,[1.4511856409953907],,,,,,,,,2018_Jun_02_1340,59.9701809653,sequenceLearningTask,001,094,
min1.png,min2.png,min3.png,min4.png,allBlank.png,,,,['num_0'],,,,,,0,1,1,1,,,,,,,,,,,,,,,,,['num_0'],2,0.0530834872043,1,['num_0'],0,[1.024770051240921],,,,,,,,,2018_Jun_02_1340,59.9701809653,sequenceLearningTask,001,094,
min1.png,min2.png,min3.png,min4.png,allBlank.png,,,,['num_4'],,,,,,0,1,1,1,,,,,,,,,,,,,,,,,['num_4'],2,0.0601468718378,1,['num_4'],0,[2.633970871800557],,,,,,,,,2018_Jun_02_1340,59.9701809653,sequenceLearningTask,001,094,
min1.png,min2.png,min3.png,min4.png,allBlank.png,,,,['num_1'],,,,,,0,1,1,1,,,,,,,,,,,,,,,,,['num_1'],2,0.0501386666438,1,['num_1'],0,[1.3110777436522767],,,,,,,,,2018_Jun_02_1340,59.9701809653,sequenceLearningTask,001,094,
min1.png,min2.png,min3.png,min4.png,allBlank.png,,,,['num_0'],,,,,,0,1,1,1,,,,,,,,,,,,,,,,,['num_0'],2,0.0496529231314,1,['num_0'],0,[0.7956430768826976],,,,,,,,,2018_Jun_02_1340,59.9701809653,sequenceLearningTask,001,094,
min1.png,min2.png,min3.png,min4.png,allBlank.png,,,,['num_7'],,,,,,0,2,2,2,,,,,,,,,,,,,,,,,['num_7'],3,0.0624090256169,1,['num_7'],0,[4.146342974272557],,,,,,,,,2018_Jun_02_1340,59.9701809653,sequenceLearningTask,001,094,
min1.png,min2.png,min3.png,min4.png,allBlank.png,,,,['num_1'],,,,,,0,2,2,2,,,,,,,,,,,,,,,,,['num_1'],3,0.0459372308105,0,"['num_4', 'num_1']",0,"[1.1487183589488268, 2.464709333376959]",,,,,,,,,2018_Jun_02_1340,59.9701809653,sequenceLearningTask,001,094,
min1.png,min2.png,min3.png,min4.png,allBlank.png,,,,['num_4'],,,,,,0,2,2,2,,,,,,,,,,,,,,,,,['num_4'],3,0.0522449230775,1,['num_4'],0,[1.1255130256759003],,,,,,,,,2018_Jun_02_1340,59.9701809653,sequenceLearningTask,001,094,
min1.png,min2.png,min3.png,min4.png,allBlank.png,,,,['num_0'],,,,,,0,2,2,2,,,,,,,,,,,,,,,,,['num_0'],3,0.0626875896705,1,['num_0'],0,[1.264953846228309],,,,,,,,,2018_Jun_02_1340,59.9701809653,sequenceLearningTask,001,094,
min1.png,min2.png,min3.png,min4.png,allBlank.png,,,,['num_0'],,,,,,0,2,2,2,,,,,,,,,,,,,,,,,['num_0'],3,0.0570912820986,1,['num_0'],0,[2.7871126153040677],,,,,,,,,2018_Jun_02_1340,59.9701809653,sequenceLearningTask,001,094,
min1.png,min2.png,min3.png,min4.png,allBlank.png,,,,['num_4'],,,,,,0,2,2,2,,,,,,,,,,,,,,,,,['num_4'],3,0.0603245128877,1,['num_4'],0,[1.284089025692083],,,,,,,,,2018_Jun_02_1340,59.9701809653,sequenceLearningTask,001,094,
min1.png,min2.png,min3.png,min4.png,allBlank.png,,,,['num_1'],,,,,,0,2,2,2,,,,,,,,,,,,,,,,,['num_1'],3,0.0583327179775,1,['num_1'],0,[0.8857394871301949],,,,,,,,,2018_Jun_02_1340,59.9701809653,sequenceLearningTask,001,094,
min1.png,min2.png,min3.png,min4.png,allBlank.png,,,,['num_0'],,,,,,0,2,2,2,,,,,,,,,,,,,,,,,['num_0'],3,0.0601374359103,1,['num_0'],0,[0.6670071794651449],,,,,,,,,2018_Jun_02_1340,59.9701809653,sequenceLearningTask,001,094,
min1.png,min2.png,min3.png,min4.png,allBlank.png,,,,['num_7'],,,,,,0,3,3,3,,,,,,,,,,,,,,,,,['num_7'],4,0.0576849230565,1,['num_7'],0,[1.5855048204539344],,,,,,,,,2018_Jun_02_1340,59.9701809653,sequenceLearningTask,001,094,
min1.png,min2.png,min3.png,min4.png,allBlank.png,,,,['num_1'],,,,,,0,3,3,3,,,,,,,,,,,,,,,,,['num_1'],4,0.0208594871219,0,"['num_4', 'num_1']",0,"[2.585577435907908, 3.419088820577599]",,,,,,,,,2018_Jun_02_1340,59.9701809653,sequenceLearningTask,001,094,
min1.png,min2.png,min3.png,min4.png,allBlank.png,,,,['num_4'],,,,,,0,3,3,3,,,,,,,,,,,,,,,,,['num_4'],4,0.0540681025013,1,['num_4'],0,[1.8739507691934705],,,,,,,,,2018_Jun_02_1340,59.9701809653,sequenceLearningTask,001,094,
min1.png,min2.png,min3.png,min4.png,allBlank.png,,,,['num_0'],,,,,,0,3,3,3,,,,,,,,,,,,,,,,,['num_0'],4,0.0545706666308,1,['num_0'],0,[0.8397366153076291],,,,,,,,,2018_Jun_02_1340,59.9701809653,sequenceLearningTask,001,094,
min1.png,min2.png,min3.png,min4.png,allBlank.png,,,,['num_0'],,,,,,0,3,3,3,,,,,,,,,,,,,,,,,['num_0'],4,0.0591277949279,1,['num_0'],0,[1.4182240000227466],,,,,,,,,2018_Jun_02_1340,59.9701809653,sequenceLearningTask,001,094,
min1.png,min2.png,min3.png,min4.png,allBlank.png,,,,['num_4'],,,,,,0,3,3,3,,,,,,,,,,,,,,,,,['num_4'],4,0.0569001025287,1,['num_4'],0,[2.353823179495521],,,,,,,,,2018_Jun_02_1340,59.9701809653,sequenceLearningTask,001,094,
min1.png,min2.png,min3.png,min4.png,allBlank.png,,,,['num_1'],,,,,,0,3,3,3,,,,,,,,,,,,,,,,,['num_1'],4,0.0626416410087,1,['num_1'],0,[1.1651487180497497],,,,,,,,,2018_Jun_02_1340,59.9701809653,sequenceLearningTask,001,094,
min1.png,min2.png,min3.png,min4.png,allBlank.png,,,,['num_0'],,,,,,0,3,3,3,,,,,,,,,,,,,,,,,['num_0'],4,0.055730051361,1,['num_0'],0,[0.7375331281218678],,,,,,,,,2018_Jun_02_1340,59.9701809653,sequenceLearningTask,001,094,
min1.png,min2.png,min3.png,min4.png,allBlank.png,,,,['num_7'],,,,,,0,4,4,4,,,,,,,,,,,,,,,,,['num_7'],5,0.0493005127646,1,['num_7'],0,[0.8598399999318644],,,,,,,,,2018_Jun_02_1340,59.9701809653,sequenceLearningTask,001,094,
min1.png,min2.png,min3.png,min4.png,allBlank.png,,,,['num_1'],,,,,,0,4,4,4,,,,,,,,,,,,,,,,,['num_1'],5,0.05901579489,1,['num_1'],0,[1.0014818462077528],,,,,,,,,2018_Jun_02_1340,59.9701809653,sequenceLearningTask,001,094,
min1.png,min2.png,min3.png,min4.png,allBlank.png,,,,['num_4'],,,,,,0,4,4,4,,,,,,,,,,,,,,,,,['num_4'],5,0.0572143589379,0,"['num_7', 'num_4']",0,"[0.9712160000344738, 1.537273025722243]",,,,,,,,,2018_Jun_02_1340,59.9701809653,sequenceLearningTask,001,094,
min1.png,min2.png,min3.png,min4.png,allBlank.png,,,,['num_0'],,,,,,0,4,4,4,,,,,,,,,,,,,,,,,['num_0'],5,0.0589296410326,1,['num_0'],0,[2.151523692300543],,,,,,,,,2018_Jun_02_1340,59.9701809653,sequenceLearningTask,001,094,
min1.png,min2.png,min3.png,min4.png,allBlank.png,,,,['num_0'],,,,,,0,4,4,4,,,,,,,,,,,,,,,,,['num_0'],5,0.0578244102653,1,['num_0'],0,[0.8368434872245416],,,,,,,,,2018_Jun_02_1340,59.9701809653,sequenceLearningTask,001,094,
min1.png,min2.png,min3.png,min4.png,allBlank.png,,,,['num_4'],,,,,,0,4,4,4,,,,,,,,,,,,,,,,,['num_4'],5,0.0574219486443,1,['num_4'],0,[1.7201936410274357],,,,,,,,,2018_Jun_02_1340,59.9701809653,sequenceLearningTask,001,094,
min1.png,min2.png,min3.png,min4.png,allBlank.png,,,,['num_1'],,,,,,0,4,4,4,,,,,,,,,,,,,,,,,['num_1'],5,0.0504799999762,1,['num_1'],0,[1.2444356923224404],,,,,,,,,2018_Jun_02_1340,59.9701809653,sequenceLearningTask,001,094,
min1.png,min2.png,min3.png,min4.png,allBlank.png,,,,['num_0'],,,,,,0,4,4,4,,,,,,,,,,,,,,,,,['num_0'],5,0.0518765128218,1,['num_0'],0,[0.5261037949239835],,,,,,,,,2018_Jun_02_1340,59.9701809653,sequenceLearningTask,001,094,
min1.png,min2.png,min3.png,min4.png,allBlank.png,,,,['num_7'],,,,,,0,5,5,5,,,,,,,,,,,,,,,,,['num_7'],6,0.0514691282297,1,['num_7'],0,[0.7751405128510669],,,,,,,,,2018_Jun_02_1340,59.9701809653,sequenceLearningTask,001,094,
min1.png,min2.png,min3.png,min4.png,allBlank.png,,,,['num_1'],,,,,,0,5,5,5,,,,,,,,,,,,,,,,,['num_1'],6,0.0577037949115,0,"['num_4', 'num_1']",0,"[0.45286030776333064, 1.5854957948904485]",,,,,,,,,2018_Jun_02_1340,59.9701809653,sequenceLearningTask,001,094,
min1.png,min2.png,min3.png,min4.png,allBlank.png,,,,['num_4'],,,,,,0,5,5,5,,,,,,,,,,,,,,,,,['num_4'],6,0.0482207179302,1,['num_4'],0,[2.0304865640355274],,,,,,,,,2018_Jun_02_1340,59.9701809653,sequenceLearningTask,001,094,
min1.png,min2.png,min3.png,min4.png,allBlank.png,,,,['num_0'],,,,,,0,5,5,5,,,,,,,,,,,,,,,,,['num_0'],6,0.0602888205322,1,['num_0'],0,[0.8663823589449748],,,,,,,,,2018_Jun_02_1340,59.9701809653,sequenceLearningTask,001,094,
min1.png,min2.png,min3.png,min4.png,allBlank.png,,,,['num_0'],,,,,,0,5,5,5,,,,,,,,,,,,,,,,,['num_0'],6,0.0602539486717,1,['num_0'],0,[0.7843507691286504],,,,,,,,,2018_Jun_02_1340,59.9701809653,sequenceLearningTask,001,094,
min1.png,min2.png,min3.png,min4.png,allBlank.png,,,,['num_4'],,,,,,0,5,5,5,,,,,,,,,,,,,,,,,['num_4'],6,0.058377025649,1,['num_4'],0,[1.084944820497185],,,,,,,,,2018_Jun_02_1340,59.9701809653,sequenceLearningTask,001,094,
min1.png,min2.png,min3.png,min4.png,allBlank.png,,,,['num_1'],,,,,,0,5,5,5,,,,,,,,,,,,,,,,,['num_1'],6,0.0464787692763,1,['num_1'],0,[0.9121247179573402],,,,,,,,,2018_Jun_02_1340,59.9701809653,sequenceLearningTask,001,094,
min1.png,min2.png,min3.png,min4.png,allBlank.png,,,,['num_0'],,,,,,0,5,5,5,,,,,,,,,,,,,,,,,['num_0'],6,0.0557796922512,1,['num_0'],0,[0.7386982564348727],,,,,,,,,2018_Jun_02_1340,59.9701809653,sequenceLearningTask,001,094,
min1.png,min2.png,min3.png,min4.png,allBlank.png,,,,['num_7'],,,,,,0,6,6,6,,,,,,,,,,,,,,,,,['num_7'],7,0.0494744615862,1,['num_7'],0,[1.064425435848534],,,,,,,,,2018_Jun_02_1340,59.9701809653,sequenceLearningTask,001,094,
min1.png,min2.png,min3.png,min4.png,allBlank.png,,,,['num_1'],,,,,,0,6,6,6,,,,,,,,,,,,,,,,,['num_1'],7,0.0545078974683,0,"['num_0', 'num_1']",0,"[1.1897550768917426, 2.4571946666110307]",,,,,,,,,2018_Jun_02_1340,59.9701809653,sequenceLearningTask,001,094,
min1.png,min2.png,min3.png,min4.png,allBlank.png,,,,['num_4'],,,,,,0,6,6,6,,,,,,,,,,,,,,,,,['num_4'],7,0.057186871767,1,['num_4'],0,[1.1873460513306782],,,,,,,,,2018_Jun_02_1340,59.9701809653,sequenceLearningTask,001,094,
min1.png,min2.png,min3.png,min4.png,allBlank.png,,,,['num_0'],,,,,,0,6,6,6,,,,,,,,,,,,,,,,,['num_0'],7,0.0529099487467,1,['num_0'],0,[0.7906346666859463],,,,,,,,,2018_Jun_02_1340,59.9701809653,sequenceLearningTask,001,094,
min1.png,min2.png,min3.png,min4.png,allBlank.png,,,,['num_0'],,,,,,0,6,6,6,,,,,,,,,,,,,,,,,['num_0'],7,0.051805128227,1,['num_0'],0,[1.0262531281914562],,,,,,,,,2018_Jun_02_1340,59.9701809653,sequenceLearningTask,001,094,
min1.png,min2.png,min3.png,min4.png,allBlank.png,,,,['num_4'],,,,,,0,6,6,6,,,,,,,,,,,,,,,,,['num_4'],7,0.0521058461163,0,"['num_0', 'num_0', 'num_4']",0,"[0.9254732307745144, 1.6091839999426156, 2.4253878974122927]",,,,,,,,,2018_Jun_02_1340,59.9701809653,sequenceLearningTask,001,094,
min1.png,min2.png,min3.png,min4.png,allBlank.png,,,,['num_1'],,,,,,0,6,6,6,,,,,,,,,,,,,,,,,['num_1'],7,0.0551950768568,1,['num_1'],0,[4.340331487241201],,,,,,,,,2018_Jun_02_1340,59.9701809653,sequenceLearningTask,001,094,
min1.png,min2.png,min3.png,min4.png,allBlank.png,,,,['num_0'],,,,,,0,6,6,6,,,,,,,,,,,,,,,,,['num_0'],7,0.0548890256323,1,['num_0'],0,[1.2065087179653347],,,,,,,,,2018_Jun_02_1340,59.9701809653,sequenceLearningTask,001,094,
min1.png,min2.png,min3.png,min4.png,allBlank.png,,,,['num_7'],,,,,,0,7,7,7,,,,,,,,,,,,,,,,,['num_7'],8,0.0618596922141,1,['num_7'],0,[1.2309238974703476],,,,,,,,,2018_Jun_02_1340,59.9701809653,sequenceLearningTask,001,094,
min1.png,min2.png,min3.png,min4.png,allBlank.png,,,,['num_1'],,,,,,0,7,7,7,,,,,,,,,,,,,,,,,['num_1'],8,0.0504861538066,0,"['num_4', 'num_1']",0,"[1.3105333333369344, 2.3312315897783265]",,,,,,,,,2018_Jun_02_1340,59.9701809653,sequenceLearningTask,001,094,
min1.png,min2.png,min3.png,min4.png,allBlank.png,,,,['num_4'],,,,,,0,7,7,7,,,,,,,,,,,,,,,,,['num_4'],8,0.0620385641232,1,['num_4'],0,[1.4829513846198097],,,,,,,,,2018_Jun_02_1340,59.9701809653,sequenceLearningTask,001,094,
min1.png,min2.png,min3.png,min4.png,allBlank.png,,,,['num_0'],,,,,,0,7,7,7,,,,,,,,,,,,,,,,,['num_0'],8,0.0615372307366,1,['num_0'],0,[1.0818732307525352],,,,,,,,,2018_Jun_02_1340,59.9701809653,sequenceLearningTask,001,094,
min1.png,min2.png,min3.png,min4.png,allBlank.png,,,,['num_0'],,,,,,0,7,7,7,,,,,,,,,,,,,,,,,['num_0'],8,0.052951384685,0,"['num_1', 'num_0']",0,"[2.0911938460776582, 2.6587741537950933]",,,,,,,,,2018_Jun_02_1340,59.9701809653,sequenceLearningTask,001,094,
min1.png,min2.png,min3.png,min4.png,allBlank.png,,,,['num_4'],,,,,,0,7,7,7,,,,,,,,,,,,,,,,,['num_4'],8,0.0586194870993,1,['num_4'],0,[1.7026420512702316],,,,,,,,,2018_Jun_02_1340,59.9701809653,sequenceLearningTask,001,094,
min1.png,min2.png,min3.png,min4.png,allBlank.png,,,,['num_1'],,,,,,0,7,7,7,,,,,,,,,,,,,,,,,['num_1'],8,0.0248648204142,1,['num_1'],0,[1.0226367180002853],,,,,,,,,2018_Jun_02_1340,59.9701809653,sequenceLearningTask,001,094,
min1.png,min2.png,min3.png,min4.png,allBlank.png,,,,['num_0'],,,,,,0,7,7,7,,,,,,,,,,,,,,,,,['num_0'],8,0.0563983590109,1,['num_0'],0,[0.5875987692270428],,,,,,,,,2018_Jun_02_1340,59.9701809653,sequenceLearningTask,001,094,
min1.png,min2.png,min3.png,min4.png,allBlank.png,,,,['num_7'],,,,,,0,8,8,8,,,,,,,,,,,,,,,,,['num_7'],9,0.0521497435402,1,['num_7'],0,[0.9234584615333006],,,,,,,,,2018_Jun_02_1340,59.9701809653,sequenceLearningTask,001,094,
min1.png,min2.png,min3.png,min4.png,allBlank.png,,,,['num_1'],,,,,,0,8,8,8,,,,,,,,,,,,,,,,,['num_1'],9,0.0499712820165,0,"['num_4', 'num_1']",0,"[0.3109829743625596, 1.2614490257110447]",,,,,,,,,2018_Jun_02_1340,59.9701809653,sequenceLearningTask,001,094,
min1.png,min2.png,min3.png,min4.png,allBlank.png,,,,['num_4'],,,,,,0,8,8,8,,,,,,,,,,,,,,,,,['num_4'],9,0.0560110769002,1,['num_4'],0,[0.9883122050669044],,,,,,,,,2018_Jun_02_1340,59.9701809653,sequenceLearningTask,001,094,
min1.png,min2.png,min3.png,min4.png,allBlank.png,,,,['num_0'],,,,,,0,8,8,8,,,,,,,,,,,,,,,,,['num_0'],9,0.0463844102342,1,['num_0'],0,[1.1311163076898083],,,,,,,,,2018_Jun_02_1340,59.9701809653,sequenceLearningTask,001,094,
min1.png,min2.png,min3.png,min4.png,allBlank.png,,,,['num_0'],,,,,,0,8,8,8,,,,,,,,,,,,,,,,,['num_0'],9,0.0539380513364,1,['num_0'],0,[0.8903126154327765],,,,,,,,,2018_Jun_02_1340,59.9701809653,sequenceLearningTask,001,094,
min1.png,min2.png,min3.png,min4.png,allBlank.png,,,,['num_4'],,,,,,0,8,8,8,,,,,,,,,,,,,,,,,['num_4'],9,0.0517111794325,1,['num_4'],0,[1.1758572307880968],,,,,,,,,2018_Jun_02_1340,59.9701809653,sequenceLearningTask,001,094,
min1.png,min2.png,min3.png,min4.png,allBlank.png,,,,['num_1'],,,,,,0,8,8,8,,,,,,,,,,,,,,,,,['num_1'],9,0.0512426666683,0,"['num_0', 'num_1']",0,"[0.7605115898186341, 1.7262838974129409]",,,,,,,,,2018_Jun_02_1340,59.9701809653,sequenceLearningTask,001,094,
min1.png,min2.png,min3.png,min4.png,allBlank.png,,,,['num_0'],,,,,,0,8,8,8,,,,,,,,,,,,,,,,,['num_0'],9,0.053371897433,0,"['num_1', 'num_0', 'num_0']",0,"[0.7582129230722785, 1.2746888204710558]",,,,,,,,,2018_Jun_02_1340,59.9701809653,sequenceLearningTask,001,094,
min1.png,min2.png,min3.png,min4.png,allBlank.png,,,,['num_7'],,,,,,0,9,9,9,,,,,,,,,,,,,,,,,['num_7'],10,0.0555766153848,1,['num_7'],0,[1.1539692308288068],,,,,,,,,2018_Jun_02_1340,59.9701809653,sequenceLearningTask,001,094,
min1.png,min2.png,min3.png,min4.png,allBlank.png,,,,['num_1'],,,,,,0,9,9,9,,,,,,,,,,,,,,,,,['num_1'],10,0.0605074871564,1,['num_1'],0,[2.119117538444698],,,,,,,,,2018_Jun_02_1340,59.9701809653,sequenceLearningTask,001,094,
min1.png,min2.png,min3.png,min4.png,allBlank.png,,,,['num_4'],,,,,,0,9,9,9,,,,,,,,,,,,,,,,,['num_4'],10,0.0584923076676,0,"['num_1', 'num_4']",0,"[3.235282461508177, 3.9023314871592447]",,,,,,,,,2018_Jun_02_1340,59.9701809653,sequenceLearningTask,001,094,
min1.png,min2.png,min3.png,min4.png,allBlank.png,,,,['num_0'],,,,,,0,9,9,9,,,,,,,,,,,,,,,,,['num_0'],10,0.0569304615492,1,['num_0'],0,[0.8201095385011286],,,,,,,,,2018_Jun_02_1340,59.9701809653,sequenceLearningTask,001,094,
min1.png,min2.png,min3.png,min4.png,allBlank.png,,,,['num_0'],,,,,,0,9,9,9,,,,,,,,,,,,,,,,,['num_0'],10,0.0521185640246,1,['num_0'],0,[1.2254215384600684],,,,,,,,,2018_Jun_02_1340,59.9701809653,sequenceLearningTask,001,094,
min1.png,min2.png,min3.png,min4.png,allBlank.png,,,,['num_4'],,,,,,0,9,9,9,,,,,,,,,,,,,,,,,['num_4'],10,0.0561792820226,1,['num_4'],0,[1.7197940512560308],,,,,,,,,2018_Jun_02_1340,59.9701809653,sequenceLearningTask,001,094,
min1.png,min2.png,min3.png,min4.png,allBlank.png,,,,['num_1'],,,,,,0,9,9,9,,,,,,,,,,,,,,,,,['num_1'],10,0.0559589742916,1,['num_1'],0,[0.6221054359339178],,,,,,,,,2018_Jun_02_1340,59.9701809653,sequenceLearningTask,001,094,
min1.png,min2.png,min3.png,min4.png,allBlank.png,,,,['num_0'],,,,,,0,9,9,9,,,,,,,,,,,,,,,,,['num_0'],10,0.0560882050777,1,['num_0'],0,[0.7886527179507539],,,,,,,,,2018_Jun_02_1340,59.9701809653,sequenceLearningTask,001,094,
min1.png,min2.png,min3.png,min4.png,allBlank.png,,,,,,,,,,0,9,9,9,,,,,0,-1,-1,0,,,,,,,,,,,,,,,,,,,,,,,,2018_Jun_02_1340,59.9701809653,sequenceLearningTask,001,094,
min1.png,min2.png,min3.png,min4.png,allBlank.png,,,,,,,,,,0,9,9,9,,,,,0,-1,-1,0,,,,,,,,,,,,,,,,,['1'],,,,,,,2018_Jun_02_1340,59.9701809653,sequenceLearningTask,001,094,
min1.png,min2.png,min3.png,min4.png,allBlank.png,,,,,,,,,,0,9,9,9,,,,,0,-1,-1,0,,,,,,,,,,,,,,,,,['2'],,,,,,,2018_Jun_02_1340,59.9701809653,sequenceLearningTask,001,094,
min1.png,min2.png,min3.png,min4.png,allBlank.png,,,,,,,,,,0,9,9,9,,,,,0,-1,-1,0,,,,,,,,,,,,,,,,,['1'],,,,,,,2018_Jun_02_1340,59.9701809653,sequenceLearningTask,001,094,
min1.png,min2.png,min3.png,min4.png,allBlank.png,,,,,,,,,,0,9,9,9,,,,,0,-1,-1,0,,,,,,,,,,,,,,,,,['2'],,,,,,,2018_Jun_02_1340,59.9701809653,sequenceLearningTask,001,094,
min1.png,min2.png,min3.png,min4.png,allBlank.png,,,,,,0,0,0,0,0,9,9,9,,,,,0,-1,-1,0,,,,,,,,,,,,,,,,,,return,3.74724512815,2,[2.4000656409189105],,,2018_Jun_02_1340,59.9701809653,sequenceLearningTask,001,094,
min1.png,min2.png,min3.png,min4.png,allBlank.png,,,,['3'],,,,,,0,9,9,9,,,,,0,-1,-1,0,0,0,0,0,,,,,['3'],1,,1,,,,,,,,,,['3'],8.00665928202,2018_Jun_02_1340,59.9701809653,sequenceLearningTask,001,094,
min1.png,min2.png,min3.png,min4.png,allBlank.png,,,,['2'],,,,,,0,9,9,9,,,,,0,-1,-1,0,0,0,0,0,,,,,['2'],1,,1,,,,,,,,,,['2'],7.4154810257,2018_Jun_02_1340,59.9701809653,sequenceLearningTask,001,094,
min1.png,min2.png,min3.png,min4.png,allBlank.png,,,,['4'],,,,,,0,9,9,9,,,,,0,-1,-1,0,0,0,0,0,,,,,['4'],1,,1,,,,,,,,,,['4'],4.94905723073,2018_Jun_02_1340,59.9701809653,sequenceLearningTask,001,094,
min1.png,min2.png,min3.png,min4.png,allBlank.png,,,,['4'],,,,,,0,9,9,9,,,,,0,-1,-1,0,0,0,0,0,,,,,['4'],1,,0,,,,,,,,,,['1'],3.49899569235,2018_Jun_02_1340,59.9701809653,sequenceLearningTask,001,094,
min1.png,min2.png,min3.png,min4.png,allBlank.png,,,,['2'],,,,,,0,9,9,9,,,,,0,-1,-1,0,0,0,0,0,,,,,['2'],1,,0,,,,,,,,,,['3'],5.9157247179,2018_Jun_02_1340,59.9701809653,sequenceLearningTask,001,094,
min1.png,min2.png,min3.png,min4.png,allBlank.png,,,,['3'],,,,,,0,9,9,9,,,,,0,-1,-1,0,0,0,0,0,,,,,['3'],1,,0,,,,,,,,,,['1'],4.76554707694,2018_Jun_02_1340,59.9701809653,sequenceLearningTask,001,094,
min1.png,min2.png,min3.png,min4.png,allBlank.png,,,,['4'],,,,,,0,9,9,9,,,,,0,-1,-1,0,0,0,0,0,,,,,['4'],1,,1,,,,,,,,,,['4'],3.86538297439,2018_Jun_02_1340,59.9701809653,sequenceLearningTask,001,094,
min1.png,min2.png,min3.png,min4.png,allBlank.png,,,,['2'],,,,,,0,9,9,9,,,,,0,-1,-1,0,0,0,0,0,,,,,['2'],1,,0,,,,,,,,,,['1'],3.11565456411,2018_Jun_02_1340,59.9701809653,sequenceLearningTask,001,094,
min1.png,min2.png,min3.png,min4.png,allBlank.png,,,,['1'],,,,,,0,9,9,9,,,,,0,-1,-1,0,0,0,0,0,,,,,['1'],1,,0,,,,,,,,,,['2'],2.03241189744,2018_Jun_02_1340,59.9701809653,sequenceLearningTask,001,094,
min1.png,min2.png,min3.png,min4.png,allBlank.png,,,,['1'],,,,,,0,9,9,9,,,,,0,-1,-1,0,0,0,0,0,0,0,0,0,['1'],1,,0,,,,,,,,,,['3'],13.4534084102,2018_Jun_02_1340,59.9701809653,sequenceLearningTask,001,094,
min1.png,min2.png,min3.png,min4.png,allBlank.png,,,,['3'],,,,,,0,9,9,9,,,,,0,-1,-1,0,0,0,0,0,0,0,0,0,['3'],1,,0,,,,,,,,,,['1'],7.66165620508,2018_Jun_02_1340,59.9701809653,sequenceLearningTask,001,094,
