pawPatrol1,pawPatrol2,pawPatrol3,pawPatrol4,blank,randomPaw,correctKeyPress,allowableKey,correctKey,correctKeyPressNum,trials.thisRepN,trials.thisTrialN,trials.thisN,trials.thisIndex,trials_3.thisRepN,trials_3.thisTrialN,trials_3.thisN,trials_3.thisIndex,trials_2.thisRepN,trials_2.thisTrialN,trials_2.thisN,trials_2.thisIndex,trials_questions.thisRepN,trials_questions.thisTrialN,trials_questions.thisN,trials_questions.thisIndex,trials_test.thisRepN,trials_test.thisTrialN,trials_test.thisN,trials_test.thisIndex,trials_recogtest.thisRepN,trials_recogtest.thisTrialN,trials_recogtest.thisN,trials_recogtest.thisIndex,correctKey,repetitionNumber,stimulusPresent.t,trialCorrect,key_resp_9.keys,key_resp_9.corr,key_resp_9.rt,keyRespCorrect,questionsResponses,AnswerFinished.keys,AnswerFinished.rt,RecordAnswer.keys,RecordAnswer.rt,recallResponse,recallResponseTime,date,frameRate,expName,session,participant,
min1.png,min2.png,min3.png,min4.png,allBlank.png,,,,['num_7'],,,,,,0,0,0,0,,,,,,,,,,,,,,,,,['num_7'],1,0.0314391409047,1,['num_7'],0,[0.5786634930409491],,,,,,,,,2018_May_12_1238,60.028739939,sequenceLearningTask,001,097,
min1.png,min2.png,min3.png,min4.png,allBlank.png,,,,['num_1'],,,,,,0,0,0,0,,,,,,,,,,,,,,,,,['num_1'],1,0.0358908276539,1,['num_1'],0,[0.8248834975529462],,,,,,,,,2018_May_12_1238,60.028739939,sequenceLearningTask,001,097,
min1.png,min2.png,min3.png,min4.png,allBlank.png,,,,['num_4'],,,,,,0,0,0,0,,,,,,,,,,,,,,,,,['num_4'],1,0.0346932907123,1,['num_4'],0,[0.6427413627970964],,,,,,,,,2018_May_12_1238,60.028739939,sequenceLearningTask,001,097,
min1.png,min2.png,min3.png,min4.png,allBlank.png,,,,['num_0'],,,,,,0,0,0,0,,,,,,,,,,,,,,,,,['num_0'],1,0.0342124707531,1,['num_0'],0,[0.4764950033277273],,,,,,,,,2018_May_12_1238,60.028739939,sequenceLearningTask,001,097,
min1.png,min2.png,min3.png,min4.png,allBlank.png,,,,['num_0'],,,,,,0,0,0,0,,,,,,,,,,,,,,,,,['num_0'],1,0.0237529964652,1,['num_0'],0,[0.5371275439392775],,,,,,,,,2018_May_12_1238,60.028739939,sequenceLearningTask,001,097,
min1.png,min2.png,min3.png,min4.png,allBlank.png,,,,['num_4'],,,,,,0,0,0,0,,,,,,,,,,,,,,,,,['num_4'],1,0.0236717658117,1,['num_4'],0,[0.6703712774906307],,,,,,,,,2018_May_12_1238,60.028739939,sequenceLearningTask,001,097,
min1.png,min2.png,min3.png,min4.png,allBlank.png,,,,['num_1'],,,,,,0,0,0,0,,,,,,,,,,,,,,,,,['num_1'],1,0.0231388434768,0,"['num_4', 'num_1']",0,"[1.5042016359511763, 2.304063215618953]",,,,,,,,,2018_May_12_1238,60.028739939,sequenceLearningTask,001,097,
min1.png,min2.png,min3.png,min4.png,allBlank.png,,,,['num_0'],,,,,,0,0,0,0,,,,,,,,,,,,,,,,,['num_0'],1,0.023293099599,1,['num_0'],0,[0.6541505795903504],,,,,,,,,2018_May_12_1238,60.028739939,sequenceLearningTask,001,097,
min1.png,min2.png,min3.png,min4.png,allBlank.png,,,,['num_7'],,,,,,0,1,1,1,,,,,,,,,,,,,,,,,['num_7'],2,0.0241468420718,1,['num_7'],0,[0.5862876884639263],,,,,,,,,2018_May_12_1238,60.028739939,sequenceLearningTask,001,097,
min1.png,min2.png,min3.png,min4.png,allBlank.png,,,,['num_1'],,,,,,0,1,1,1,,,,,,,,,,,,,,,,,['num_1'],2,0.0249008925166,1,['num_1'],0,[0.8194086323492229],,,,,,,,,2018_May_12_1238,60.028739939,sequenceLearningTask,001,097,
min1.png,min2.png,min3.png,min4.png,allBlank.png,,,,['num_4'],,,,,,0,1,1,1,,,,,,,,,,,,,,,,,['num_4'],2,0.0236639708746,1,['num_4'],0,[0.7704708464443684],,,,,,,,,2018_May_12_1238,60.028739939,sequenceLearningTask,001,097,
min1.png,min2.png,min3.png,min4.png,allBlank.png,,,,['num_0'],,,,,,0,1,1,1,,,,,,,,,,,,,,,,,['num_0'],2,0.0235392532777,1,['num_0'],0,[0.5907959907781333],,,,,,,,,2018_May_12_1238,60.028739939,sequenceLearningTask,001,097,
min1.png,min2.png,min3.png,min4.png,allBlank.png,,,,['num_0'],,,,,,0,1,1,1,,,,,,,,,,,,,,,,,['num_0'],2,0.0632167428266,1,['num_0'],0,[0.5481646587140858],,,,,,,,,2018_May_12_1238,60.028739939,sequenceLearningTask,001,097,
min1.png,min2.png,min3.png,min4.png,allBlank.png,,,,['num_4'],,,,,,0,1,1,1,,,,,,,,,,,,,,,,,['num_4'],2,0.0525492685847,1,['num_4'],0,[0.8419923996552825],,,,,,,,,2018_May_12_1238,60.028739939,sequenceLearningTask,001,097,
min1.png,min2.png,min3.png,min4.png,allBlank.png,,,,['num_1'],,,,,,0,1,1,1,,,,,,,,,,,,,,,,,['num_1'],2,0.0533258831128,1,['num_1'],0,[0.6751417331397533],,,,,,,,,2018_May_12_1238,60.028739939,sequenceLearningTask,001,097,
min1.png,min2.png,min3.png,min4.png,allBlank.png,,,,['num_0'],,,,,,0,1,1,1,,,,,,,,,,,,,,,,,['num_0'],2,0.0512278345414,1,['num_0'],0,[0.8774364585988224],,,,,,,,,2018_May_12_1238,60.028739939,sequenceLearningTask,001,097,
min1.png,min2.png,min3.png,min4.png,allBlank.png,,,,['num_7'],,,,,,0,2,2,2,,,,,,,,,,,,,,,,,['num_7'],3,0.0533529599197,1,['num_7'],0,[0.4726053671911359],,,,,,,,,2018_May_12_1238,60.028739939,sequenceLearningTask,001,097,
min1.png,min2.png,min3.png,min4.png,allBlank.png,,,,['num_1'],,,,,,0,2,2,2,,,,,,,,,,,,,,,,,['num_1'],3,0.0591305939015,1,['num_1'],0,[0.5029938423540443],,,,,,,,,2018_May_12_1238,60.028739939,sequenceLearningTask,001,097,
min1.png,min2.png,min3.png,min4.png,allBlank.png,,,,['num_4'],,,,,,0,2,2,2,,,,,,,,,,,,,,,,,['num_4'],3,0.055042803986,0,"['num_7', 'num_4']",0,"[0.29030159139074385, 0.6398904945235699]",,,,,,,,,2018_May_12_1238,60.028739939,sequenceLearningTask,001,097,
min1.png,min2.png,min3.png,min4.png,allBlank.png,,,,['num_0'],,,,,,0,2,2,2,,,,,,,,,,,,,,,,,['num_0'],3,0.0551318295766,0,"['num_7', 'num_1', 'num_0']",0,"[0.9058548852335662, 1.7884872348513454, 2.2385030910372734]",,,,,,,,,2018_May_12_1238,60.028739939,sequenceLearningTask,001,097,
min1.png,min2.png,min3.png,min4.png,allBlank.png,,,,['num_0'],,,,,,0,2,2,2,,,,,,,,,,,,,,,,,['num_0'],3,0.0606670023408,1,['num_0'],0,[0.5343226243276149],,,,,,,,,2018_May_12_1238,60.028739939,sequenceLearningTask,001,097,
min1.png,min2.png,min3.png,min4.png,allBlank.png,,,,['num_4'],,,,,,0,2,2,2,,,,,,,,,,,,,,,,,['num_4'],3,0.0550928551238,1,['num_4'],0,[0.8722631316632032],,,,,,,,,2018_May_12_1238,60.028739939,sequenceLearningTask,001,097,
min1.png,min2.png,min3.png,min4.png,allBlank.png,,,,['num_1'],,,,,,0,2,2,2,,,,,,,,,,,,,,,,,['num_1'],3,0.0615941805299,1,['num_1'],0,[0.5978893153369427],,,,,,,,,2018_May_12_1238,60.028739939,sequenceLearningTask,001,097,
min1.png,min2.png,min3.png,min4.png,allBlank.png,,,,['num_0'],,,,,,0,2,2,2,,,,,,,,,,,,,,,,,['num_0'],3,0.0591851579957,1,['num_0'],0,[0.7519133309833705],,,,,,,,,2018_May_12_1238,60.028739939,sequenceLearningTask,001,097,
min1.png,min2.png,min3.png,min4.png,allBlank.png,,,,['num_7'],,,,,,0,3,3,3,,,,,,,,,,,,,,,,,['num_7'],4,0.0477135821711,1,['num_7'],0,[0.5284637596923858],,,,,,,,,2018_May_12_1238,60.028739939,sequenceLearningTask,001,097,
min1.png,min2.png,min3.png,min4.png,allBlank.png,,,,['num_1'],,,,,,0,3,3,3,,,,,,,,,,,,,,,,,['num_1'],4,0.0588430045173,1,['num_1'],0,[0.6523922227788717],,,,,,,,,2018_May_12_1238,60.028739939,sequenceLearningTask,001,097,
min1.png,min2.png,min3.png,min4.png,allBlank.png,,,,['num_4'],,,,,,0,3,3,3,,,,,,,,,,,,,,,,,['num_4'],4,0.0535306008533,1,['num_4'],0,[0.5567652634344995],,,,,,,,,2018_May_12_1238,60.028739939,sequenceLearningTask,001,097,
min1.png,min2.png,min3.png,min4.png,allBlank.png,,,,['num_0'],,,,,,0,3,3,3,,,,,,,,,,,,,,,,,['num_0'],4,0.0495970670599,1,['num_0'],0,[0.445248682750389],,,,,,,,,2018_May_12_1238,60.028739939,sequenceLearningTask,001,097,
min1.png,min2.png,min3.png,min4.png,allBlank.png,,,,['num_0'],,,,,,0,3,3,3,,,,,,,,,,,,,,,,,['num_0'],4,0.0568844429217,1,['num_0'],0,[0.4864605295006186],,,,,,,,,2018_May_12_1238,60.028739939,sequenceLearningTask,001,097,
min1.png,min2.png,min3.png,min4.png,allBlank.png,,,,['num_4'],,,,,,0,3,3,3,,,,,,,,,,,,,,,,,['num_4'],4,0.0573238267098,1,['num_4'],0,[0.8038480363320559],,,,,,,,,2018_May_12_1238,60.028739939,sequenceLearningTask,001,097,
min1.png,min2.png,min3.png,min4.png,allBlank.png,,,,['num_1'],,,,,,0,3,3,3,,,,,,,,,,,,,,,,,['num_1'],4,0.0505439378321,1,['num_1'],0,[0.46149071399122477],,,,,,,,,2018_May_12_1238,60.028739939,sequenceLearningTask,001,097,
min1.png,min2.png,min3.png,min4.png,allBlank.png,,,,['num_0'],,,,,,0,3,3,3,,,,,,,,,,,,,,,,,['num_0'],4,0.0533767549787,1,['num_0'],0,[0.5249482770450413],,,,,,,,,2018_May_12_1238,60.028739939,sequenceLearningTask,001,097,
min1.png,min2.png,min3.png,min4.png,allBlank.png,,,,['num_7'],,,,,,0,4,4,4,,,,,,,,,,,,,,,,,['num_7'],5,0.0525960377418,1,['num_7'],0,[0.4734525454696268],,,,,,,,,2018_May_12_1238,60.028739939,sequenceLearningTask,001,097,
min1.png,min2.png,min3.png,min4.png,allBlank.png,,,,['num_1'],,,,,,0,4,4,4,,,,,,,,,,,,,,,,,['num_1'],5,0.0509607577696,1,['num_1'],0,[0.49311118805781007],,,,,,,,,2018_May_12_1238,60.028739939,sequenceLearningTask,001,097,
min1.png,min2.png,min3.png,min4.png,allBlank.png,,,,['num_4'],,,,,,0,4,4,4,,,,,,,,,,,,,,,,,['num_4'],5,0.0588097739965,1,['num_4'],0,[0.5999204923864454],,,,,,,,,2018_May_12_1238,60.028739939,sequenceLearningTask,001,097,
min1.png,min2.png,min3.png,min4.png,allBlank.png,,,,['num_0'],,,,,,0,4,4,4,,,,,,,,,,,,,,,,,['num_0'],5,0.060264541069,1,['num_0'],0,[0.4167879999149591],,,,,,,,,2018_May_12_1238,60.028739939,sequenceLearningTask,001,097,
min1.png,min2.png,min3.png,min4.png,allBlank.png,,,,['num_0'],,,,,,0,4,4,4,,,,,,,,,,,,,,,,,['num_0'],5,0.0532733702566,0,"['num_4', 'num_0']",0,"[0.4743949032854289, 0.7075749239884317]",,,,,,,,,2018_May_12_1238,60.028739939,sequenceLearningTask,001,097,
min1.png,min2.png,min3.png,min4.png,allBlank.png,,,,['num_4'],,,,,,0,4,4,4,,,,,,,,,,,,,,,,,['num_4'],5,0.0579695696943,1,['num_4'],0,[0.6707573281601071],,,,,,,,,2018_May_12_1238,60.028739939,sequenceLearningTask,001,097,
min1.png,min2.png,min3.png,min4.png,allBlank.png,,,,['num_1'],,,,,,0,4,4,4,,,,,,,,,,,,,,,,,['num_1'],5,0.0534419855103,1,['num_1'],0,[0.7071552323177457],,,,,,,,,2018_May_12_1238,60.028739939,sequenceLearningTask,001,097,
min1.png,min2.png,min3.png,min4.png,allBlank.png,,,,['num_0'],,,,,,0,4,4,4,,,,,,,,,,,,,,,,,['num_0'],5,0.0553435215261,1,['num_0'],0,[0.35557617782615125],,,,,,,,,2018_May_12_1238,60.028739939,sequenceLearningTask,001,097,
min1.png,min2.png,min3.png,min4.png,allBlank.png,,,,['num_7'],,,,,,0,5,5,5,,,,,,,,,,,,,,,,,['num_7'],6,0.0598272082862,1,['num_7'],0,[0.6004566967021674],,,,,,,,,2018_May_12_1238,60.028739939,sequenceLearningTask,001,097,
min1.png,min2.png,min3.png,min4.png,allBlank.png,,,,['num_1'],,,,,,0,5,5,5,,,,,,,,,,,,,,,,,['num_1'],6,0.0508237322792,1,['num_1'],0,[0.5945535246282816],,,,,,,,,2018_May_12_1238,60.028739939,sequenceLearningTask,001,097,
min1.png,min2.png,min3.png,min4.png,allBlank.png,,,,['num_4'],,,,,,0,5,5,5,,,,,,,,,,,,,,,,,['num_4'],6,0.0626895637251,1,['num_4'],0,[0.7475088236387819],,,,,,,,,2018_May_12_1238,60.028739939,sequenceLearningTask,001,097,
min1.png,min2.png,min3.png,min4.png,allBlank.png,,,,['num_0'],,,,,,0,5,5,5,,,,,,,,,,,,,,,,,['num_0'],6,0.0610985916574,1,['num_0'],0,[0.4006169429048896],,,,,,,,,2018_May_12_1238,60.028739939,sequenceLearningTask,001,097,
min1.png,min2.png,min3.png,min4.png,allBlank.png,,,,['num_0'],,,,,,0,5,5,5,,,,,,,,,,,,,,,,,['num_0'],6,0.0580975695048,1,['num_0'],0,[0.43523843865841627],,,,,,,,,2018_May_12_1238,60.028739939,sequenceLearningTask,001,097,
min1.png,min2.png,min3.png,min4.png,allBlank.png,,,,['num_4'],,,,,,0,5,5,5,,,,,,,,,,,,,,,,,['num_4'],6,0.0516171671916,0,"['num_7', 'num_4']",0,"[0.7934492798522115, 0.9602942026685923]",,,,,,,,,2018_May_12_1238,60.028739939,sequenceLearningTask,001,097,
min1.png,min2.png,min3.png,min4.png,allBlank.png,,,,['num_1'],,,,,,0,5,5,5,,,,,,,,,,,,,,,,,['num_1'],6,0.049902707804,1,['num_1'],0,[0.6282384062651545],,,,,,,,,2018_May_12_1238,60.028739939,sequenceLearningTask,001,097,
min1.png,min2.png,min3.png,min4.png,allBlank.png,,,,['num_0'],,,,,,0,5,5,5,,,,,,,,,,,,,,,,,['num_0'],6,0.054611624917,1,['num_0'],0,[0.43928027991205454],,,,,,,,,2018_May_12_1238,60.028739939,sequenceLearningTask,001,097,
min1.png,min2.png,min3.png,min4.png,allBlank.png,,,,['num_7'],,,,,,0,6,6,6,,,,,,,,,,,,,,,,,['num_7'],7,0.0744831904303,1,['num_7'],0,[0.397983510280028],,,,,,,,,2018_May_12_1238,60.028739939,sequenceLearningTask,001,097,
min1.png,min2.png,min3.png,min4.png,allBlank.png,,,,['num_1'],,,,,,0,6,6,6,,,,,,,,,,,,,,,,,['num_1'],7,0.0535355238244,1,['num_1'],0,[0.5239899191074073],,,,,,,,,2018_May_12_1238,60.028739939,sequenceLearningTask,001,097,
min1.png,min2.png,min3.png,min4.png,allBlank.png,,,,['num_4'],,,,,,0,6,6,6,,,,,,,,,,,,,,,,,['num_4'],7,0.0519162437413,1,['num_4'],0,[1.026535351993516],,,,,,,,,2018_May_12_1238,60.028739939,sequenceLearningTask,001,097,
min1.png,min2.png,min3.png,min4.png,allBlank.png,,,,['num_0'],,,,,,0,6,6,6,,,,,,,,,,,,,,,,,['num_0'],7,0.0540696769021,1,['num_0'],0,[0.5568665966857225],,,,,,,,,2018_May_12_1238,60.028739939,sequenceLearningTask,001,097,
min1.png,min2.png,min3.png,min4.png,allBlank.png,,,,['num_0'],,,,,,0,6,6,6,,,,,,,,,,,,,,,,,['num_0'],7,0.051870705327,0,"['num_4', 'num_0']",0,"[0.00039097387343645096, 0.4927333421073854]",,,,,,,,,2018_May_12_1238,60.028739939,sequenceLearningTask,001,097,
min1.png,min2.png,min3.png,min4.png,allBlank.png,,,,['num_4'],,,,,,0,6,6,6,,,,,,,,,,,,,,,,,['num_4'],7,0.0521262947004,1,['num_4'],0,[0.9767389004118741],,,,,,,,,2018_May_12_1238,60.028739939,sequenceLearningTask,001,097,
min1.png,min2.png,min3.png,min4.png,allBlank.png,,,,['num_1'],,,,,,0,6,6,6,,,,,,,,,,,,,,,,,['num_1'],7,0.0530395242386,1,['num_1'],0,[0.4594451782759279],,,,,,,,,2018_May_12_1238,60.028739939,sequenceLearningTask,001,097,
min1.png,min2.png,min3.png,min4.png,allBlank.png,,,,['num_0'],,,,,,0,6,6,6,,,,,,,,,,,,,,,,,['num_0'],7,0.0396602589171,1,['num_0'],0,[0.40489509142935276],,,,,,,,,2018_May_12_1238,60.028739939,sequenceLearningTask,001,097,
min1.png,min2.png,min3.png,min4.png,allBlank.png,,,,['num_7'],,,,,,0,7,7,7,,,,,,,,,,,,,,,,,['num_7'],8,0.0514239366166,1,['num_7'],0,[0.35920571186579764],,,,,,,,,2018_May_12_1238,60.028739939,sequenceLearningTask,001,097,
min1.png,min2.png,min3.png,min4.png,allBlank.png,,,,['num_1'],,,,,,0,7,7,7,,,,,,,,,,,,,,,,,['num_1'],8,0.0511781934183,1,['num_1'],0,[0.47647777246311307],,,,,,,,,2018_May_12_1238,60.028739939,sequenceLearningTask,001,097,
min1.png,min2.png,min3.png,min4.png,allBlank.png,,,,['num_4'],,,,,,0,7,7,7,,,,,,,,,,,,,,,,,['num_4'],8,0.0542661894578,1,['num_4'],0,[0.35739648318849504],,,,,,,,,2018_May_12_1238,60.028739939,sequenceLearningTask,001,097,
min1.png,min2.png,min3.png,min4.png,allBlank.png,,,,['num_0'],,,,,,0,7,7,7,,,,,,,,,,,,,,,,,['num_0'],8,0.0491941957735,1,['num_0'],0,[0.2615992676001042],,,,,,,,,2018_May_12_1238,60.028739939,sequenceLearningTask,001,097,
min1.png,min2.png,min3.png,min4.png,allBlank.png,,,,['num_0'],,,,,,0,7,7,7,,,,,,,,,,,,,,,,,['num_0'],8,0.0551560346503,1,['num_0'],0,[0.3889763418119401],,,,,,,,,2018_May_12_1238,60.028739939,sequenceLearningTask,001,097,
min1.png,min2.png,min3.png,min4.png,allBlank.png,,,,['num_4'],,,,,,0,7,7,7,,,,,,,,,,,,,,,,,['num_4'],8,0.050541066099,1,['num_4'],0,[0.5612690527923405],,,,,,,,,2018_May_12_1238,60.028739939,sequenceLearningTask,001,097,
min1.png,min2.png,min3.png,min4.png,allBlank.png,,,,['num_1'],,,,,,0,7,7,7,,,,,,,,,,,,,,,,,['num_1'],8,0.0613558217883,1,['num_1'],0,[0.26558285276405513],,,,,,,,,2018_May_12_1238,60.028739939,sequenceLearningTask,001,097,
min1.png,min2.png,min3.png,min4.png,allBlank.png,,,,['num_0'],,,,,,0,7,7,7,,,,,,,,,,,,,,,,,['num_0'],8,0.0534813699778,1,['num_0'],0,[0.3251831897068769],,,,,,,,,2018_May_12_1238,60.028739939,sequenceLearningTask,001,097,
min1.png,min2.png,min3.png,min4.png,allBlank.png,,,,['num_7'],,,,,,0,8,8,8,,,,,,,,,,,,,,,,,['num_7'],9,0.0568138789386,1,['num_7'],0,[0.40323765738867223],,,,,,,,,2018_May_12_1238,60.028739939,sequenceLearningTask,001,097,
min1.png,min2.png,min3.png,min4.png,allBlank.png,,,,['num_1'],,,,,,0,8,8,8,,,,,,,,,,,,,,,,,['num_1'],9,0.0549582913518,1,['num_1'],0,[0.6894781256560236],,,,,,,,,2018_May_12_1238,60.028739939,sequenceLearningTask,001,097,
min1.png,min2.png,min3.png,min4.png,allBlank.png,,,,['num_4'],,,,,,0,8,8,8,,,,,,,,,,,,,,,,,['num_4'],9,0.0595104908571,1,['num_4'],0,[1.3518211054615676],,,,,,,,,2018_May_12_1238,60.028739939,sequenceLearningTask,001,097,
min1.png,min2.png,min3.png,min4.png,allBlank.png,,,,['num_0'],,,,,,0,8,8,8,,,,,,,,,,,,,,,,,['num_0'],9,0.0591966451611,1,['num_0'],0,[0.41866779257543385],,,,,,,,,2018_May_12_1238,60.028739939,sequenceLearningTask,001,097,
min1.png,min2.png,min3.png,min4.png,allBlank.png,,,,['num_0'],,,,,,0,8,8,8,,,,,,,,,,,,,,,,,['num_0'],9,0.0536151134875,1,['num_0'],0,[0.37424528296105564],,,,,,,,,2018_May_12_1238,60.028739939,sequenceLearningTask,001,097,
min1.png,min2.png,min3.png,min4.png,allBlank.png,,,,['num_4'],,,,,,0,8,8,8,,,,,,,,,,,,,,,,,['num_4'],9,0.0515552186407,1,['num_4'],0,[0.6429903879761696],,,,,,,,,2018_May_12_1238,60.028739939,sequenceLearningTask,001,097,
min1.png,min2.png,min3.png,min4.png,allBlank.png,,,,['num_1'],,,,,,0,8,8,8,,,,,,,,,,,,,,,,,['num_1'],9,0.06754986546,1,['num_1'],0,[0.3424980400595814],,,,,,,,,2018_May_12_1238,60.028739939,sequenceLearningTask,001,097,
min1.png,min2.png,min3.png,min4.png,allBlank.png,,,,['num_0'],,,,,,0,8,8,8,,,,,,,,,,,,,,,,,['num_0'],9,0.0562017769553,1,['num_0'],0,[0.321785039966926],,,,,,,,,2018_May_12_1238,60.028739939,sequenceLearningTask,001,097,
min1.png,min2.png,min3.png,min4.png,allBlank.png,,,,['num_7'],,,,,,0,9,9,9,,,,,,,,,,,,,,,,,['num_7'],10,0.0484019916039,1,['num_7'],0,[0.39390884852036834],,,,,,,,,2018_May_12_1238,60.028739939,sequenceLearningTask,001,097,
min1.png,min2.png,min3.png,min4.png,allBlank.png,,,,['num_1'],,,,,,0,9,9,9,,,,,,,,,,,,,,,,,['num_1'],10,0.054957060609,1,['num_1'],0,[0.4891477054916322],,,,,,,,,2018_May_12_1238,60.028739939,sequenceLearningTask,001,097,
min1.png,min2.png,min3.png,min4.png,allBlank.png,,,,['num_4'],,,,,,0,9,9,9,,,,,,,,,,,,,,,,,['num_4'],10,0.0543831125833,0,"['num_7', 'num_4']",0,"[0.48811550182290375, 1.123363540507853]",,,,,,,,,2018_May_12_1238,60.028739939,sequenceLearningTask,001,097,
min1.png,min2.png,min3.png,min4.png,allBlank.png,,,,['num_0'],,,,,,0,9,9,9,,,,,,,,,,,,,,,,,['num_0'],10,0.0562255717814,1,['num_0'],0,[0.37229451606981456],,,,,,,,,2018_May_12_1238,60.028739939,sequenceLearningTask,001,097,
min1.png,min2.png,min3.png,min4.png,allBlank.png,,,,['num_0'],,,,,,0,9,9,9,,,,,,,,,,,,,,,,,['num_0'],10,0.0529504988808,1,['num_0'],0,[0.42657055193558335],,,,,,,,,2018_May_12_1238,60.028739939,sequenceLearningTask,001,097,
min1.png,min2.png,min3.png,min4.png,allBlank.png,,,,['num_4'],,,,,,0,9,9,9,,,,,,,,,,,,,,,,,['num_4'],10,0.0537915234454,1,['num_4'],0,[0.7898258997593075],,,,,,,,,2018_May_12_1238,60.028739939,sequenceLearningTask,001,097,
min1.png,min2.png,min3.png,min4.png,allBlank.png,,,,['num_1'],,,,,,0,9,9,9,,,,,,,,,,,,,,,,,['num_1'],10,0.0558895722497,1,['num_1'],0,[0.12164415791630745],,,,,,,,,2018_May_12_1238,60.028739939,sequenceLearningTask,001,097,
min1.png,min2.png,min3.png,min4.png,allBlank.png,,,,['num_0'],,,,,,0,9,9,9,,,,,,,,,,,,,,,,,['num_0'],10,0.0555289571639,1,['num_0'],0,[0.33956717187538743],,,,,,,,,2018_May_12_1238,60.028739939,sequenceLearningTask,001,097,
min1.png,min2.png,min3.png,min4.png,allBlank.png,,,,['num_7'],,,,,,0,0,0,0,,,,,,,,,,,,,,,,,['num_7'],1,0.0527888580691,1,['num_7'],0,[0.6486748938914388],,,,,,,,,2018_May_12_1238,60.028739939,sequenceLearningTask,001,097,
min1.png,min2.png,min3.png,min4.png,allBlank.png,,,,['num_1'],,,,,,0,0,0,0,,,,,,,,,,,,,,,,,['num_1'],1,0.0569484427106,1,['num_1'],0,[0.33761599473655224],,,,,,,,,2018_May_12_1238,60.028739939,sequenceLearningTask,001,097,
min1.png,min2.png,min3.png,min4.png,allBlank.png,,,,['num_4'],,,,,,0,0,0,0,,,,,,,,,,,,,,,,,['num_4'],1,0.0559035209008,1,['num_4'],0,[0.7544519943185151],,,,,,,,,2018_May_12_1238,60.028739939,sequenceLearningTask,001,097,
min1.png,min2.png,min3.png,min4.png,allBlank.png,,,,['num_0'],,,,,,0,0,0,0,,,,,,,,,,,,,,,,,['num_0'],1,0.0553320343606,1,['num_0'],0,[1.156888832570985],,,,,,,,,2018_May_12_1238,60.028739939,sequenceLearningTask,001,097,
min1.png,min2.png,min3.png,min4.png,allBlank.png,,,,['num_0'],,,,,,0,0,0,0,,,,,,,,,,,,,,,,,['num_0'],1,0.0650473046117,1,['num_0'],0,[0.8622537080664188],,,,,,,,,2018_May_12_1238,60.028739939,sequenceLearningTask,001,097,
min1.png,min2.png,min3.png,min4.png,allBlank.png,,,,['num_4'],,,,,,0,0,0,0,,,,,,,,,,,,,,,,,['num_4'],1,0.0555872137193,1,['num_4'],0,[1.3052964445669204],,,,,,,,,2018_May_12_1238,60.028739939,sequenceLearningTask,001,097,
min1.png,min2.png,min3.png,min4.png,allBlank.png,,,,['num_1'],,,,,,0,0,0,0,,,,,,,,,,,,,,,,,['num_1'],1,0.0542034204118,1,['num_1'],0,[0.8590028402395546],,,,,,,,,2018_May_12_1238,60.028739939,sequenceLearningTask,001,097,
min1.png,min2.png,min3.png,min4.png,allBlank.png,,,,['num_0'],,,,,,0,0,0,0,,,,,,,,,,,,,,,,,['num_0'],1,0.0510456808843,1,['num_0'],0,[0.3081645437050611],,,,,,,,,2018_May_12_1238,60.028739939,sequenceLearningTask,001,097,
min1.png,min2.png,min3.png,min4.png,allBlank.png,,,,['num_7'],,,,,,0,1,1,1,,,,,,,,,,,,,,,,,['num_7'],2,0.0520401410758,1,['num_7'],0,[0.473406596807763],,,,,,,,,2018_May_12_1238,60.028739939,sequenceLearningTask,001,097,
min1.png,min2.png,min3.png,min4.png,allBlank.png,,,,['num_1'],,,,,,0,1,1,1,,,,,,,,,,,,,,,,,['num_1'],2,0.0609902839642,1,['num_1'],0,[0.2833194462582469],,,,,,,,,2018_May_12_1238,60.028739939,sequenceLearningTask,001,097,
min1.png,min2.png,min3.png,min4.png,allBlank.png,,,,['num_4'],,,,,,0,1,1,1,,,,,,,,,,,,,,,,,['num_4'],2,0.0552512141876,0,"['num_0', 'num_4']",0,"[0.30723736551590264, 0.6747786565683782]",,,,,,,,,2018_May_12_1238,60.028739939,sequenceLearningTask,001,097,
min1.png,min2.png,min3.png,min4.png,allBlank.png,,,,['num_0'],,,,,,0,1,1,1,,,,,,,,,,,,,,,,,['num_0'],2,0.0548651632853,1,['num_0'],0,[0.32266667974181473],,,,,,,,,2018_May_12_1238,60.028739939,sequenceLearningTask,001,097,
min1.png,min2.png,min3.png,min4.png,allBlank.png,,,,['num_0'],,,,,,0,1,1,1,,,,,,,,,,,,,,,,,['num_0'],2,0.0517607566435,1,['num_0'],0,[0.591916810022667],,,,,,,,,2018_May_12_1238,60.028739939,sequenceLearningTask,001,097,
min1.png,min2.png,min3.png,min4.png,allBlank.png,,,,['num_4'],,,,,,0,1,1,1,,,,,,,,,,,,,,,,,['num_4'],2,0.0555109060369,1,['num_4'],0,[0.5553059831727296],,,,,,,,,2018_May_12_1238,60.028739939,sequenceLearningTask,001,097,
min1.png,min2.png,min3.png,min4.png,allBlank.png,,,,['num_1'],,,,,,0,1,1,1,,,,,,,,,,,,,,,,,['num_1'],2,0.0667588920332,1,['num_1'],0,[0.25816747709177434],,,,,,,,,2018_May_12_1238,60.028739939,sequenceLearningTask,001,097,
min1.png,min2.png,min3.png,min4.png,allBlank.png,,,,['num_0'],,,,,,0,1,1,1,,,,,,,,,,,,,,,,,['num_0'],2,0.0545250610448,1,['num_0'],0,[0.34100799076259136],,,,,,,,,2018_May_12_1238,60.028739939,sequenceLearningTask,001,097,
min1.png,min2.png,min3.png,min4.png,allBlank.png,,,,['num_7'],,,,,,0,2,2,2,,,,,,,,,,,,,,,,,['num_7'],3,0.0539018823765,1,['num_7'],0,[0.5219542295672],,,,,,,,,2018_May_12_1238,60.028739939,sequenceLearningTask,001,097,
min1.png,min2.png,min3.png,min4.png,allBlank.png,,,,['num_1'],,,,,,0,2,2,2,,,,,,,,,,,,,,,,,['num_1'],3,0.0559117260855,1,['num_1'],0,[0.3550079732667655],,,,,,,,,2018_May_12_1238,60.028739939,sequenceLearningTask,001,097,
min1.png,min2.png,min3.png,min4.png,allBlank.png,,,,['num_4'],,,,,,0,2,2,2,,,,,,,,,,,,,,,,,['num_4'],3,0.0495498876553,1,['num_4'],0,[0.7451408265624195],,,,,,,,,2018_May_12_1238,60.028739939,sequenceLearningTask,001,097,
min1.png,min2.png,min3.png,min4.png,allBlank.png,,,,['num_0'],,,,,,0,2,2,2,,,,,,,,,,,,,,,,,['num_0'],3,0.0554268036503,1,['num_0'],0,[0.3559507413301617],,,,,,,,,2018_May_12_1238,60.028739939,sequenceLearningTask,001,097,
min1.png,min2.png,min3.png,min4.png,allBlank.png,,,,['num_0'],,,,,,0,2,2,2,,,,,,,,,,,,,,,,,['num_0'],3,0.0499014768284,1,['num_0'],0,[0.46121297078207135],,,,,,,,,2018_May_12_1238,60.028739939,sequenceLearningTask,001,097,
min1.png,min2.png,min3.png,min4.png,allBlank.png,,,,['num_4'],,,,,,0,2,2,2,,,,,,,,,,,,,,,,,['num_4'],3,0.0523720381316,1,['num_4'],0,[1.1927866346668452],,,,,,,,,2018_May_12_1238,60.028739939,sequenceLearningTask,001,097,
min1.png,min2.png,min3.png,min4.png,allBlank.png,,,,['num_1'],,,,,,0,2,2,2,,,,,,,,,,,,,,,,,['num_1'],3,0.0629402301274,0,"['num_1', 'num_1']",0,"[0.02929842541925609, 0.6812750590033829]",,,,,,,,,2018_May_12_1238,60.028739939,sequenceLearningTask,001,097,
min1.png,min2.png,min3.png,min4.png,allBlank.png,,,,['num_0'],,,,,,0,2,2,2,,,,,,,,,,,,,,,,,['num_0'],3,0.063786998624,1,['num_0'],0,[0.3304738497827202],,,,,,,,,2018_May_12_1238,60.028739939,sequenceLearningTask,001,097,
min1.png,min2.png,min3.png,min4.png,allBlank.png,,,,['num_7'],,,,,,0,3,3,3,,,,,,,,,,,,,,,,,['num_7'],4,0.0521431153174,1,['num_7'],0,[0.37449759035371244],,,,,,,,,2018_May_12_1238,60.028739939,sequenceLearningTask,001,097,
min1.png,min2.png,min3.png,min4.png,allBlank.png,,,,['num_1'],,,,,,0,3,3,3,,,,,,,,,,,,,,,,,['num_1'],4,0.0588019788265,1,['num_1'],0,[0.3190851458348334],,,,,,,,,2018_May_12_1238,60.028739939,sequenceLearningTask,001,097,
min1.png,min2.png,min3.png,min4.png,allBlank.png,,,,['num_4'],,,,,,0,3,3,3,,,,,,,,,,,,,,,,,['num_4'],4,0.0594325424172,1,['num_4'],0,[0.7843436498660594],,,,,,,,,2018_May_12_1238,60.028739939,sequenceLearningTask,001,097,
min1.png,min2.png,min3.png,min4.png,allBlank.png,,,,['num_0'],,,,,,0,3,3,3,,,,,,,,,,,,,,,,,['num_0'],4,0.0595457728487,1,['num_0'],0,[0.3343688191380352],,,,,,,,,2018_May_12_1238,60.028739939,sequenceLearningTask,001,097,
min1.png,min2.png,min3.png,min4.png,allBlank.png,,,,['num_0'],,,,,,0,3,3,3,,,,,,,,,,,,,,,,,['num_0'],4,0.0498391182628,1,['num_0'],0,[0.52936468180269],,,,,,,,,2018_May_12_1238,60.028739939,sequenceLearningTask,001,097,
min1.png,min2.png,min3.png,min4.png,allBlank.png,,,,['num_4'],,,,,,0,3,3,3,,,,,,,,,,,,,,,,,['num_4'],4,0.0575868010055,1,['num_4'],0,[0.7536897391546518],,,,,,,,,2018_May_12_1238,60.028739939,sequenceLearningTask,001,097,
min1.png,min2.png,min3.png,min4.png,allBlank.png,,,,['num_1'],,,,,,0,3,3,3,,,,,,,,,,,,,,,,,['num_1'],4,0.0595761318691,1,['num_1'],0,[0.28459164989180863],,,,,,,,,2018_May_12_1238,60.028739939,sequenceLearningTask,001,097,
min1.png,min2.png,min3.png,min4.png,allBlank.png,,,,['num_0'],,,,,,0,3,3,3,,,,,,,,,,,,,,,,,['num_0'],4,0.0542657794431,1,['num_0'],0,[0.3741226166021079],,,,,,,,,2018_May_12_1238,60.028739939,sequenceLearningTask,001,097,
min1.png,min2.png,min3.png,min4.png,allBlank.png,,,,['num_7'],,,,,,0,4,4,4,,,,,,,,,,,,,,,,,['num_7'],5,0.0522099870723,1,['num_7'],0,[0.4742262880317867],,,,,,,,,2018_May_12_1238,60.028739939,sequenceLearningTask,001,097,
min1.png,min2.png,min3.png,min4.png,allBlank.png,,,,['num_1'],,,,,,0,4,4,4,,,,,,,,,,,,,,,,,['num_1'],5,0.0595351061784,1,['num_1'],0,[0.6534309908747673],,,,,,,,,2018_May_12_1238,60.028739939,sequenceLearningTask,001,097,
min1.png,min2.png,min3.png,min4.png,allBlank.png,,,,['num_4'],,,,,,0,4,4,4,,,,,,,,,,,,,,,,,['num_4'],5,0.052776960656,1,['num_4'],0,[0.5582536719739437],,,,,,,,,2018_May_12_1238,60.028739939,sequenceLearningTask,001,097,
min1.png,min2.png,min3.png,min4.png,allBlank.png,,,,['num_0'],,,,,,0,4,4,4,,,,,,,,,,,,,,,,,['num_0'],5,0.0496106056962,1,['num_0'],0,[0.344562447629869],,,,,,,,,2018_May_12_1238,60.028739939,sequenceLearningTask,001,097,
min1.png,min2.png,min3.png,min4.png,allBlank.png,,,,['num_0'],,,,,,0,4,4,4,,,,,,,,,,,,,,,,,['num_0'],5,0.0581295695156,1,['num_0'],0,[0.38558557676151395],,,,,,,,,2018_May_12_1238,60.028739939,sequenceLearningTask,001,097,
min1.png,min2.png,min3.png,min4.png,allBlank.png,,,,['num_4'],,,,,,0,4,4,4,,,,,,,,,,,,,,,,,['num_4'],5,0.0547593170777,0,"['num_7', 'num_4']",0,"[0.42194163450039923, 1.0730952946469188]",,,,,,,,,2018_May_12_1238,60.028739939,sequenceLearningTask,001,097,
min1.png,min2.png,min3.png,min4.png,allBlank.png,,,,['num_1'],,,,,,0,4,4,4,,,,,,,,,,,,,,,,,['num_1'],5,0.0499847589526,0,"['num_4', 'num_1']",0,"[0.3614719652105123, 0.944772990886122]",,,,,,,,,2018_May_12_1238,60.028739939,sequenceLearningTask,001,097,
min1.png,min2.png,min3.png,min4.png,allBlank.png,,,,['num_0'],,,,,,0,4,4,4,,,,,,,,,,,,,,,,,['num_0'],5,0.0606005408335,1,['num_0'],0,[0.5835664612241089],,,,,,,,,2018_May_12_1238,60.028739939,sequenceLearningTask,001,097,
min1.png,min2.png,min3.png,min4.png,allBlank.png,,,,['num_7'],,,,,,0,5,5,5,,,,,,,,,,,,,,,,,['num_7'],6,0.0474235313013,1,['num_7'],0,[0.47950299945659935],,,,,,,,,2018_May_12_1238,60.028739939,sequenceLearningTask,001,097,
min1.png,min2.png,min3.png,min4.png,allBlank.png,,,,['num_1'],,,,,,0,5,5,5,,,,,,,,,,,,,,,,,['num_1'],6,0.0509718346875,1,['num_1'],0,[0.494129853323102],,,,,,,,,2018_May_12_1238,60.028739939,sequenceLearningTask,001,097,
min1.png,min2.png,min3.png,min4.png,allBlank.png,,,,['num_4'],,,,,,0,5,5,5,,,,,,,,,,,,,,,,,['num_4'],6,0.058371210238,1,['num_4'],0,[0.36972180125303566],,,,,,,,,2018_May_12_1238,60.028739939,sequenceLearningTask,001,097,
min1.png,min2.png,min3.png,min4.png,allBlank.png,,,,['num_0'],,,,,,0,5,5,5,,,,,,,,,,,,,,,,,['num_0'],6,0.0557935724501,1,['num_0'],0,[0.339242659509182],,,,,,,,,2018_May_12_1238,60.028739939,sequenceLearningTask,001,097,
min1.png,min2.png,min3.png,min4.png,allBlank.png,,,,['num_0'],,,,,,0,5,5,5,,,,,,,,,,,,,,,,,['num_0'],6,0.0532577806152,1,['num_0'],0,[0.5421462047379464],,,,,,,,,2018_May_12_1238,60.028739939,sequenceLearningTask,001,097,
min1.png,min2.png,min3.png,min4.png,allBlank.png,,,,['num_4'],,,,,,0,5,5,5,,,,,,,,,,,,,,,,,['num_4'],6,0.0579195183236,1,['num_4'],0,[0.8691562635358423],,,,,,,,,2018_May_12_1238,60.028739939,sequenceLearningTask,001,097,
min1.png,min2.png,min3.png,min4.png,allBlank.png,,,,['num_1'],,,,,,0,5,5,5,,,,,,,,,,,,,,,,,['num_1'],6,0.0559515210334,1,['num_1'],0,[0.17286091530695558],,,,,,,,,2018_May_12_1238,60.028739939,sequenceLearningTask,001,097,
min1.png,min2.png,min3.png,min4.png,allBlank.png,,,,['num_0'],,,,,,0,5,5,5,,,,,,,,,,,,,,,,,['num_0'],6,0.0545907020569,1,['num_0'],0,[0.24017447349615395],,,,,,,,,2018_May_12_1238,60.028739939,sequenceLearningTask,001,097,
min1.png,min2.png,min3.png,min4.png,allBlank.png,,,,['num_7'],,,,,,0,6,6,6,,,,,,,,,,,,,,,,,['num_7'],7,0.0532274215948,1,['num_7'],0,[0.3735421043820679],,,,,,,,,2018_May_12_1238,60.028739939,sequenceLearningTask,001,097,
min1.png,min2.png,min3.png,min4.png,allBlank.png,,,,['num_1'],,,,,,0,6,6,6,,,,,,,,,,,,,,,,,['num_1'],7,0.0546809583902,1,['num_1'],0,[0.3397550689987838],,,,,,,,,2018_May_12_1238,60.028739939,sequenceLearningTask,001,097,
min1.png,min2.png,min3.png,min4.png,allBlank.png,,,,['num_4'],,,,,,0,6,6,6,,,,,,,,,,,,,,,,,['num_4'],7,0.0547256760765,0,"['num_7', 'num_7', 'num_4']",0,"[0.7733807917684317, 2.323164730332792, 2.7741024317219853]",,,,,,,,,2018_May_12_1238,60.028739939,sequenceLearningTask,001,097,
min1.png,min2.png,min3.png,min4.png,allBlank.png,,,,['num_0'],,,,,,0,6,6,6,,,,,,,,,,,,,,,,,['num_0'],7,0.0540602412075,1,['num_0'],0,[0.3237866784911603],,,,,,,,,2018_May_12_1238,60.028739939,sequenceLearningTask,001,097,
min1.png,min2.png,min3.png,min4.png,allBlank.png,,,,['num_0'],,,,,,0,6,6,6,,,,,,,,,,,,,,,,,['num_0'],7,0.0585480306763,1,['num_0'],0,[0.45290980162099004],,,,,,,,,2018_May_12_1238,60.028739939,sequenceLearningTask,001,097,
min1.png,min2.png,min3.png,min4.png,allBlank.png,,,,['num_4'],,,,,,0,6,6,6,,,,,,,,,,,,,,,,,['num_4'],7,0.060681771487,0,"['num_7', 'num_4']",0,"[0.4837774559855461, 0.9843335577752441]",,,,,,,,,2018_May_12_1238,60.028739939,sequenceLearningTask,001,097,
min1.png,min2.png,min3.png,min4.png,allBlank.png,,,,['num_1'],,,,,,0,6,6,6,,,,,,,,,,,,,,,,,['num_1'],7,0.0542702921666,1,['num_1'],0,[0.30604311055503786],,,,,,,,,2018_May_12_1238,60.028739939,sequenceLearningTask,001,097,
min1.png,min2.png,min3.png,min4.png,allBlank.png,,,,['num_0'],,,,,,0,6,6,6,,,,,,,,,,,,,,,,,['num_0'],7,0.052716242848,1,['num_0'],0,[0.34231014270335436],,,,,,,,,2018_May_12_1238,60.028739939,sequenceLearningTask,001,097,
min1.png,min2.png,min3.png,min4.png,allBlank.png,,,,['num_7'],,,,,,0,7,7,7,,,,,,,,,,,,,,,,,['num_7'],8,0.0519125515129,1,['num_7'],0,[0.5576391085051],,,,,,,,,2018_May_12_1238,60.028739939,sequenceLearningTask,001,097,
min1.png,min2.png,min3.png,min4.png,allBlank.png,,,,['num_1'],,,,,,0,7,7,7,,,,,,,,,,,,,,,,,['num_1'],8,0.0515109109692,1,['num_1'],0,[0.5765720081981272],,,,,,,,,2018_May_12_1238,60.028739939,sequenceLearningTask,001,097,
min1.png,min2.png,min3.png,min4.png,allBlank.png,,,,['num_4'],,,,,,0,7,7,7,,,,,,,,,,,,,,,,,['num_4'],8,0.0543166510761,1,['num_4'],0,[0.49004042241722345],,,,,,,,,2018_May_12_1238,60.028739939,sequenceLearningTask,001,097,
min1.png,min2.png,min3.png,min4.png,allBlank.png,,,,['num_0'],,,,,,0,7,7,7,,,,,,,,,,,,,,,,,['num_0'],8,0.0566735712346,0,"['num_1', 'num_0']",0,"[0.40430883574299514, 0.5035981494002044]",,,,,,,,,2018_May_12_1238,60.028739939,sequenceLearningTask,001,097,
min1.png,min2.png,min3.png,min4.png,allBlank.png,,,,['num_0'],,,,,,0,7,7,7,,,,,,,,,,,,,,,,,['num_0'],8,0.0611031043809,1,['num_0'],0,[0.5664025850128382],,,,,,,,,2018_May_12_1238,60.028739939,sequenceLearningTask,001,097,
min1.png,min2.png,min3.png,min4.png,allBlank.png,,,,['num_4'],,,,,,0,7,7,7,,,,,,,,,,,,,,,,,['num_4'],8,0.0515757314861,1,['num_4'],0,[0.7934611772652715],,,,,,,,,2018_May_12_1238,60.028739939,sequenceLearningTask,001,097,
min1.png,min2.png,min3.png,min4.png,allBlank.png,,,,['num_1'],,,,,,0,7,7,7,,,,,,,,,,,,,,,,,['num_1'],8,0.0615609497763,1,['num_1'],0,[0.31577561143785715],,,,,,,,,2018_May_12_1238,60.028739939,sequenceLearningTask,001,097,
min1.png,min2.png,min3.png,min4.png,allBlank.png,,,,['num_0'],,,,,,0,7,7,7,,,,,,,,,,,,,,,,,['num_0'],8,0.0562042384408,1,['num_0'],0,[0.3047163428273052],,,,,,,,,2018_May_12_1238,60.028739939,sequenceLearningTask,001,097,
min1.png,min2.png,min3.png,min4.png,allBlank.png,,,,['num_7'],,,,,,0,8,8,8,,,,,,,,,,,,,,,,,['num_7'],9,0.0572130577639,1,['num_7'],0,[0.5027325092814863],,,,,,,,,2018_May_12_1238,60.028739939,sequenceLearningTask,001,097,
min1.png,min2.png,min3.png,min4.png,allBlank.png,,,,['num_1'],,,,,,0,8,8,8,,,,,,,,,,,,,,,,,['num_1'],9,0.0517390132882,1,['num_1'],0,[0.8761396396439523],,,,,,,,,2018_May_12_1238,60.028739939,sequenceLearningTask,001,097,
min1.png,min2.png,min3.png,min4.png,allBlank.png,,,,['num_4'],,,,,,0,8,8,8,,,,,,,,,,,,,,,,,['num_4'],9,0.0534739855211,1,['num_4'],0,[0.4083063693251461],,,,,,,,,2018_May_12_1238,60.028739939,sequenceLearningTask,001,097,
min1.png,min2.png,min3.png,min4.png,allBlank.png,,,,['num_0'],,,,,,0,8,8,8,,,,,,,,,,,,,,,,,['num_0'],9,0.0518259874079,0,"['num_7', 'num_1', 'num_0']",0,"[0.14233172219246626, 0.6760434755124152, 0.7763740187510848]",,,,,,,,,2018_May_12_1238,60.028739939,sequenceLearningTask,001,097,
min1.png,min2.png,min3.png,min4.png,allBlank.png,,,,['num_0'],,,,,,0,8,8,8,,,,,,,,,,,,,,,,,['num_0'],9,0.0722805266269,1,['num_0'],0,[0.6694079965818673],,,,,,,,,2018_May_12_1238,60.028739939,sequenceLearningTask,001,097,
min1.png,min2.png,min3.png,min4.png,allBlank.png,,,,['num_4'],,,,,,0,8,8,8,,,,,,,,,,,,,,,,,['num_4'],9,0.0501180922147,1,['num_4'],0,[1.3941800277680159],,,,,,,,,2018_May_12_1238,60.028739939,sequenceLearningTask,001,097,
min1.png,min2.png,min3.png,min4.png,allBlank.png,,,,['num_1'],,,,,,0,8,8,8,,,,,,,,,,,,,,,,,['num_1'],9,0.0511650652625,1,['num_1'],0,[0.29390856134705245],,,,,,,,,2018_May_12_1238,60.028739939,sequenceLearningTask,001,097,
min1.png,min2.png,min3.png,min4.png,allBlank.png,,,,['num_0'],,,,,,0,8,8,8,,,,,,,,,,,,,,,,,['num_0'],9,0.0577619802207,1,['num_0'],0,[0.2695295144803822],,,,,,,,,2018_May_12_1238,60.028739939,sequenceLearningTask,001,097,
min1.png,min2.png,min3.png,min4.png,allBlank.png,,,,['num_7'],,,,,,0,9,9,9,,,,,,,,,,,,,,,,,['num_7'],10,0.0493923495524,1,['num_7'],0,[0.510294346138835],,,,,,,,,2018_May_12_1238,60.028739939,sequenceLearningTask,001,097,
min1.png,min2.png,min3.png,min4.png,allBlank.png,,,,['num_1'],,,,,,0,9,9,9,,,,,,,,,,,,,,,,,['num_1'],10,0.0547318300232,1,['num_1'],0,[0.7895731821190566],,,,,,,,,2018_May_12_1238,60.028739939,sequenceLearningTask,001,097,
min1.png,min2.png,min3.png,min4.png,allBlank.png,,,,['num_4'],,,,,,0,9,9,9,,,,,,,,,,,,,,,,,['num_4'],10,0.0535617803689,1,['num_4'],0,[0.4419859175104648],,,,,,,,,2018_May_12_1238,60.028739939,sequenceLearningTask,001,097,
min1.png,min2.png,min3.png,min4.png,allBlank.png,,,,['num_0'],,,,,,0,9,9,9,,,,,,,,,,,,,,,,,['num_0'],10,0.0505775788333,1,['num_0'],0,[0.46019758749753237],,,,,,,,,2018_May_12_1238,60.028739939,sequenceLearningTask,001,097,
min1.png,min2.png,min3.png,min4.png,allBlank.png,,,,['num_0'],,,,,,0,9,9,9,,,,,,,,,,,,,,,,,['num_0'],10,0.0521160385106,1,['num_0'],0,[0.476194285787642],,,,,,,,,2018_May_12_1238,60.028739939,sequenceLearningTask,001,097,
min1.png,min2.png,min3.png,min4.png,allBlank.png,,,,['num_4'],,,,,,0,9,9,9,,,,,,,,,,,,,,,,,['num_4'],10,0.0594124398194,1,['num_4'],0,[0.6198125705122948],,,,,,,,,2018_May_12_1238,60.028739939,sequenceLearningTask,001,097,
min1.png,min2.png,min3.png,min4.png,allBlank.png,,,,['num_1'],,,,,,0,9,9,9,,,,,,,,,,,,,,,,,['num_1'],10,0.0544680354651,1,['num_1'],0,[0.34001435060054064],,,,,,,,,2018_May_12_1238,60.028739939,sequenceLearningTask,001,097,
min1.png,min2.png,min3.png,min4.png,allBlank.png,,,,['num_0'],,,,,,0,9,9,9,,,,,,,,,,,,,,,,,['num_0'],10,0.0549008555245,1,['num_0'],0,[0.3570518682245165],,,,,,,,,2018_May_12_1238,60.028739939,sequenceLearningTask,001,097,
min1.png,min2.png,min3.png,min4.png,images/allBlank.png,images/min3.png,'num_1',"['num_7', 'num_4', 'num_1', 'num_0']",['num_1'],num_1,,,,,0,9,9,9,0,0,0,2,,,,,,,,,,,,,['num_1'],,0.0641065877862,1,['num_1'],0,[0.6717550705652684],1,,,,,,,,2018_May_12_1238,60.028739939,sequenceLearningTask,001,097,
min1.png,min2.png,min3.png,min4.png,images/allBlank.png,images/min4.png,'num_0',"['num_7', 'num_4', 'num_1', 'num_0']",['num_0'],num_0,,,,,0,9,9,9,0,1,1,3,,,,,,,,,,,,,['num_0'],,0.0530382937286,1,['num_0'],0,[0.4886820651590824],1,,,,,,,,2018_May_12_1238,60.028739939,sequenceLearningTask,001,097,
min1.png,min2.png,min3.png,min4.png,images/allBlank.png,images/min2.png,'num_4',"['num_7', 'num_4', 'num_1', 'num_0']",['num_4'],num_4,,,,,0,9,9,9,0,2,2,1,,,,,,,,,,,,,['num_4'],,0.0505611684639,0,"['num_7', 'num_4']",0,"[0.39179521007463336, 0.8603919667657465]",0,,,,,,,,2018_May_12_1238,60.028739939,sequenceLearningTask,001,097,
min1.png,min2.png,min3.png,min4.png,images/allBlank.png,images/min1.png,'num_7',"['num_7', 'num_4', 'num_1', 'num_0']",['num_7'],num_7,,,,,0,9,9,9,0,3,3,0,,,,,,,,,,,,,['num_7'],,0.053755010711,1,['num_7'],0,[0.5053626601584256],1,,,,,,,,2018_May_12_1238,60.028739939,sequenceLearningTask,001,097,
min1.png,min2.png,min3.png,min4.png,images/allBlank.png,images/min4.png,'num_0',"['num_7', 'num_4', 'num_1', 'num_0']",['num_0'],num_0,,,,,0,9,9,9,1,0,4,3,,,,,,,,,,,,,['num_0'],,0.0568278275896,1,['num_0'],0,[0.5524329610634595],1,,,,,,,,2018_May_12_1238,60.028739939,sequenceLearningTask,001,097,
min1.png,min2.png,min3.png,min4.png,images/allBlank.png,images/min3.png,'num_1',"['num_7', 'num_4', 'num_1', 'num_0']",['num_1'],num_1,,,,,0,9,9,9,1,1,5,2,,,,,,,,,,,,,['num_1'],,0.0524397303816,1,['num_1'],0,[0.33868389087729156],1,,,,,,,,2018_May_12_1238,60.028739939,sequenceLearningTask,001,097,
min1.png,min2.png,min3.png,min4.png,images/allBlank.png,images/min1.png,'num_7',"['num_7', 'num_4', 'num_1', 'num_0']",['num_7'],num_7,,,,,0,9,9,9,1,2,6,0,,,,,,,,,,,,,['num_7'],,0.0531314217951,1,['num_7'],0,[0.5050910706631839],1,,,,,,,,2018_May_12_1238,60.028739939,sequenceLearningTask,001,097,
min1.png,min2.png,min3.png,min4.png,images/allBlank.png,images/min2.png,'num_4',"['num_7', 'num_4', 'num_1', 'num_0']",['num_4'],num_4,,,,,0,9,9,9,1,3,7,1,,,,,,,,,,,,,['num_4'],,0.0567002380267,1,['num_4'],0,[0.384705577744171],1,,,,,,,,2018_May_12_1238,60.028739939,sequenceLearningTask,001,097,
min1.png,min2.png,min3.png,min4.png,images/allBlank.png,images/min3.png,'num_1',"['num_7', 'num_4', 'num_1', 'num_0']",['num_1'],num_1,,,,,0,9,9,9,2,0,8,2,,,,,,,,,,,,,['num_1'],,0.0525316277053,1,['num_1'],0,[0.5227845872286707],1,,,,,,,,2018_May_12_1238,60.028739939,sequenceLearningTask,001,097,
min1.png,min2.png,min3.png,min4.png,images/allBlank.png,images/min2.png,'num_4',"['num_7', 'num_4', 'num_1', 'num_0']",['num_4'],num_4,,,,,0,9,9,9,2,1,9,1,,,,,,,,,,,,,['num_4'],,0.0600507978816,0,"['num_0', 'num_7', 'num_4']",0,"[0.248519899090752, 0.6474597158376127, 1.0151318786665797]",0,,,,,,,,2018_May_12_1238,60.028739939,sequenceLearningTask,001,097,
min1.png,min2.png,min3.png,min4.png,images/allBlank.png,images/min1.png,'num_7',"['num_7', 'num_4', 'num_1', 'num_0']",['num_7'],num_7,,,,,0,9,9,9,2,2,10,0,,,,,,,,,,,,,['num_7'],,0.054715009639,1,['num_7'],0,[0.5865108680445701],1,,,,,,,,2018_May_12_1238,60.028739939,sequenceLearningTask,001,097,
min1.png,min2.png,min3.png,min4.png,images/allBlank.png,images/min4.png,'num_0',"['num_7', 'num_4', 'num_1', 'num_0']",['num_0'],num_0,,,,,0,9,9,9,2,3,11,3,,,,,,,,,,,,,['num_0'],,0.0566953148227,1,['num_0'],0,[0.5341663169674575],1,,,,,,,,2018_May_12_1238,60.028739939,sequenceLearningTask,001,097,
min1.png,min2.png,min3.png,min4.png,images/allBlank.png,images/min2.png,'num_4',"['num_7', 'num_4', 'num_1', 'num_0']",['num_4'],num_4,,,,,0,9,9,9,3,0,12,1,,,,,,,,,,,,,['num_4'],,0.0488163502887,1,['num_4'],0,[0.7111137914471328],1,,,,,,,,2018_May_12_1238,60.028739939,sequenceLearningTask,001,097,
min1.png,min2.png,min3.png,min4.png,images/allBlank.png,images/min1.png,'num_7',"['num_7', 'num_4', 'num_1', 'num_0']",['num_7'],num_7,,,,,0,9,9,9,3,1,13,0,,,,,,,,,,,,,['num_7'],,0.0596241315361,1,['num_7'],0,[0.5003329226747155],1,,,,,,,,2018_May_12_1238,60.028739939,sequenceLearningTask,001,097,
min1.png,min2.png,min3.png,min4.png,images/allBlank.png,images/min4.png,'num_0',"['num_7', 'num_4', 'num_1', 'num_0']",['num_0'],num_0,,,,,0,9,9,9,3,2,14,3,,,,,,,,,,,,,['num_0'],,0.0524848583154,1,['num_0'],0,[0.4233939405530691],1,,,,,,,,2018_May_12_1238,60.028739939,sequenceLearningTask,001,097,
min1.png,min2.png,min3.png,min4.png,images/allBlank.png,images/min3.png,'num_1',"['num_7', 'num_4', 'num_1', 'num_0']",['num_1'],num_1,,,,,0,9,9,9,3,3,15,2,,,,,,,,,,,,,['num_1'],,0.0539330616593,1,['num_1'],0,[0.8060182901099324],1,,,,,,,,2018_May_12_1238,60.028739939,sequenceLearningTask,001,097,
min1.png,min2.png,min3.png,min4.png,images/allBlank.png,images/min3.png,'num_1',"['num_7', 'num_4', 'num_1', 'num_0']",['num_1'],num_1,,,,,0,9,9,9,4,0,16,2,,,,,,,,,,,,,['num_1'],,0.0519720385782,1,['num_1'],0,[1.257968092802912],1,,,,,,,,2018_May_12_1238,60.028739939,sequenceLearningTask,001,097,
min1.png,min2.png,min3.png,min4.png,images/allBlank.png,images/min4.png,'num_0',"['num_7', 'num_4', 'num_1', 'num_0']",['num_0'],num_0,,,,,0,9,9,9,4,1,17,3,,,,,,,,,,,,,['num_0'],,0.055166291073,1,['num_0'],0,[0.7203687543515116],1,,,,,,,,2018_May_12_1238,60.028739939,sequenceLearningTask,001,097,
min1.png,min2.png,min3.png,min4.png,images/allBlank.png,images/min1.png,'num_7',"['num_7', 'num_4', 'num_1', 'num_0']",['num_7'],num_7,,,,,0,9,9,9,4,2,18,0,,,,,,,,,,,,,['num_7'],,0.0553332653362,1,['num_7'],0,[0.7547346609644592],1,,,,,,,,2018_May_12_1238,60.028739939,sequenceLearningTask,001,097,
min1.png,min2.png,min3.png,min4.png,images/allBlank.png,images/min2.png,'num_4',"['num_7', 'num_4', 'num_1', 'num_0']",['num_4'],num_4,,,,,0,9,9,9,4,3,19,1,,,,,,,,,,,,,['num_4'],,0.0519203462172,1,['num_4'],0,[0.357158534694463],1,,,,,,,,2018_May_12_1238,60.028739939,sequenceLearningTask,001,097,
min1.png,min2.png,min3.png,min4.png,images/allBlank.png,images/min1.png,'num_7',"['num_7', 'num_4', 'num_1', 'num_0']",['num_7'],num_7,,,,,0,9,9,9,5,0,20,0,,,,,,,,,,,,,['num_7'],,0.0528019862249,1,['num_7'],0,[0.5402495914604515],1,,,,,,,,2018_May_12_1238,60.028739939,sequenceLearningTask,001,097,
min1.png,min2.png,min3.png,min4.png,images/allBlank.png,images/min2.png,'num_4',"['num_7', 'num_4', 'num_1', 'num_0']",['num_4'],num_4,,,,,0,9,9,9,5,1,21,1,,,,,,,,,,,,,['num_4'],,0.0404955400154,1,['num_4'],0,[0.5207587436307222],1,,,,,,,,2018_May_12_1238,60.028739939,sequenceLearningTask,001,097,
min1.png,min2.png,min3.png,min4.png,images/allBlank.png,images/min3.png,'num_1',"['num_7', 'num_4', 'num_1', 'num_0']",['num_1'],num_1,,,,,0,9,9,9,5,2,22,2,,,,,,,,,,,,,['num_1'],,0.0504060916137,1,['num_1'],0,[0.6423827991820872],1,,,,,,,,2018_May_12_1238,60.028739939,sequenceLearningTask,001,097,
min1.png,min2.png,min3.png,min4.png,images/allBlank.png,images/min4.png,'num_0',"['num_7', 'num_4', 'num_1', 'num_0']",['num_0'],num_0,,,,,0,9,9,9,5,3,23,3,,,,,,,,,,,,,['num_0'],,0.0513365520164,1,['num_0'],0,[0.3421230660751462],1,,,,,,,,2018_May_12_1238,60.028739939,sequenceLearningTask,001,097,
min1.png,min2.png,min3.png,min4.png,images/allBlank.png,images/min3.png,'num_1',"['num_7', 'num_4', 'num_1', 'num_0']",['num_1'],num_1,,,,,0,9,9,9,6,0,24,2,,,,,,,,,,,,,['num_1'],,0.0507117323577,1,['num_1'],0,[0.7592372193466872],1,,,,,,,,2018_May_12_1238,60.028739939,sequenceLearningTask,001,097,
min1.png,min2.png,min3.png,min4.png,images/allBlank.png,images/min4.png,'num_0',"['num_7', 'num_4', 'num_1', 'num_0']",['num_0'],num_0,,,,,0,9,9,9,6,1,25,3,,,,,,,,,,,,,['num_0'],,0.0524327559397,1,['num_0'],0,[0.5400399507489055],1,,,,,,,,2018_May_12_1238,60.028739939,sequenceLearningTask,001,097,
min1.png,min2.png,min3.png,min4.png,images/allBlank.png,images/min2.png,'num_4',"['num_7', 'num_4', 'num_1', 'num_0']",['num_4'],num_4,,,,,0,9,9,9,6,2,26,1,,,,,,,,,,,,,['num_4'],,0.0538817797787,0,"['num_7', 'num_4']",0,"[0.5390163622796535, 0.7556462495122105]",0,,,,,,,,2018_May_12_1238,60.028739939,sequenceLearningTask,001,097,
min1.png,min2.png,min3.png,min4.png,images/allBlank.png,images/min1.png,'num_7',"['num_7', 'num_4', 'num_1', 'num_0']",['num_7'],num_7,,,,,0,9,9,9,6,3,27,0,,,,,,,,,,,,,['num_7'],,0.0554350086022,1,['num_7'],0,[0.45367287774570286],1,,,,,,,,2018_May_12_1238,60.028739939,sequenceLearningTask,001,097,
min1.png,min2.png,min3.png,min4.png,images/allBlank.png,images/min2.png,'num_4',"['num_7', 'num_4', 'num_1', 'num_0']",['num_4'],num_4,,,,,0,9,9,9,7,0,28,1,,,,,,,,,,,,,['num_4'],,0.0411560519133,1,['num_4'],0,[0.5178299266844988],1,,,,,,,,2018_May_12_1238,60.028739939,sequenceLearningTask,001,097,
min1.png,min2.png,min3.png,min4.png,images/allBlank.png,images/min1.png,'num_7',"['num_7', 'num_4', 'num_1', 'num_0']",['num_7'],num_7,,,,,0,9,9,9,7,1,29,0,,,,,,,,,,,,,['num_7'],,0.0545886505861,1,['num_7'],0,[0.6366014727391303],1,,,,,,,,2018_May_12_1238,60.028739939,sequenceLearningTask,001,097,
min1.png,min2.png,min3.png,min4.png,images/allBlank.png,images/min3.png,'num_1',"['num_7', 'num_4', 'num_1', 'num_0']",['num_1'],num_1,,,,,0,9,9,9,7,2,30,2,,,,,,,,,,,,,['num_1'],,0.0541381898802,1,['num_1'],0,[0.5390216954983771],1,,,,,,,,2018_May_12_1238,60.028739939,sequenceLearningTask,001,097,
min1.png,min2.png,min3.png,min4.png,images/allBlank.png,images/min4.png,'num_0',"['num_7', 'num_4', 'num_1', 'num_0']",['num_0'],num_0,,,,,0,9,9,9,7,3,31,3,,,,,,,,,,,,,['num_0'],,0.0513016805053,1,['num_0'],0,[0.35771730332635343],1,,,,,,,,2018_May_12_1238,60.028739939,sequenceLearningTask,001,097,
min1.png,min2.png,min3.png,min4.png,images/allBlank.png,images/min4.png,'num_0',"['num_7', 'num_4', 'num_1', 'num_0']",['num_0'],num_0,,,,,0,9,9,9,8,0,32,3,,,,,,,,,,,,,['num_0'],,0.0531166524161,1,['num_0'],0,[0.4728790076915175],1,,,,,,,,2018_May_12_1238,60.028739939,sequenceLearningTask,001,097,
min1.png,min2.png,min3.png,min4.png,images/allBlank.png,images/min2.png,'num_4',"['num_7', 'num_4', 'num_1', 'num_0']",['num_4'],num_4,,,,,0,9,9,9,8,1,33,1,,,,,,,,,,,,,['num_4'],,0.0491740931757,1,['num_4'],0,[0.5261774037498981],1,,,,,,,,2018_May_12_1238,60.028739939,sequenceLearningTask,001,097,
min1.png,min2.png,min3.png,min4.png,images/allBlank.png,images/min1.png,'num_7',"['num_7', 'num_4', 'num_1', 'num_0']",['num_7'],num_7,,,,,0,9,9,9,8,2,34,0,,,,,,,,,,,,,['num_7'],,0.0626538717188,1,['num_7'],0,[0.6759552706498653],1,,,,,,,,2018_May_12_1238,60.028739939,sequenceLearningTask,001,097,
min1.png,min2.png,min3.png,min4.png,images/allBlank.png,images/min3.png,'num_1',"['num_7', 'num_4', 'num_1', 'num_0']",['num_1'],num_1,,,,,0,9,9,9,8,3,35,2,,,,,,,,,,,,,['num_1'],,0.0522428075783,1,['num_1'],0,[0.47276495676487684],1,,,,,,,,2018_May_12_1238,60.028739939,sequenceLearningTask,001,097,
min1.png,min2.png,min3.png,min4.png,images/allBlank.png,images/min1.png,'num_7',"['num_7', 'num_4', 'num_1', 'num_0']",['num_7'],num_7,,,,,0,9,9,9,9,0,36,0,,,,,,,,,,,,,['num_7'],,0.0569008530583,1,['num_7'],0,[0.6678363063838333],1,,,,,,,,2018_May_12_1238,60.028739939,sequenceLearningTask,001,097,
min1.png,min2.png,min3.png,min4.png,images/allBlank.png,images/min4.png,'num_0',"['num_7', 'num_4', 'num_1', 'num_0']",['num_0'],num_0,,,,,0,9,9,9,9,1,37,3,,,,,,,,,,,,,['num_0'],,0.0557353158947,1,['num_0'],0,[0.46964701171964407],1,,,,,,,,2018_May_12_1238,60.028739939,sequenceLearningTask,001,097,
min1.png,min2.png,min3.png,min4.png,images/allBlank.png,images/min3.png,'num_1',"['num_7', 'num_4', 'num_1', 'num_0']",['num_1'],num_1,,,,,0,9,9,9,9,2,38,2,,,,,,,,,,,,,['num_1'],,0.0508532708045,0,"['num_0', 'num_1']",0,"[0.49062790907919407, 1.0579494670964777]",0,,,,,,,,2018_May_12_1238,60.028739939,sequenceLearningTask,001,097,
min1.png,min2.png,min3.png,min4.png,images/allBlank.png,images/min2.png,'num_4',"['num_7', 'num_4', 'num_1', 'num_0']",['num_4'],num_4,,,,,0,9,9,9,9,3,39,1,,,,,,,,,,,,,['num_4'],,0.0619736672379,1,['num_4'],0,[0.8139579724520445],1,,,,,,,,2018_May_12_1238,60.028739939,sequenceLearningTask,001,097,
min1.png,min2.png,min3.png,min4.png,images/allBlank.png,images/min3.png,'num_1',"['num_7', 'num_4', 'num_1', 'num_0']",['num_1'],num_1,,,,,0,9,9,9,10,0,40,2,,,,,,,,,,,,,['num_1'],,0.0574448523112,1,['num_1'],0,[0.7855030333157629],1,,,,,,,,2018_May_12_1238,60.028739939,sequenceLearningTask,001,097,
min1.png,min2.png,min3.png,min4.png,images/allBlank.png,images/min1.png,'num_7',"['num_7', 'num_4', 'num_1', 'num_0']",['num_7'],num_7,,,,,0,9,9,9,10,1,41,0,,,,,,,,,,,,,['num_7'],,0.061899821274,1,['num_7'],0,[0.47944597410969436],1,,,,,,,,2018_May_12_1238,60.028739939,sequenceLearningTask,001,097,
min1.png,min2.png,min3.png,min4.png,images/allBlank.png,images/min2.png,'num_4',"['num_7', 'num_4', 'num_1', 'num_0']",['num_4'],num_4,,,,,0,9,9,9,10,2,42,1,,,,,,,,,,,,,['num_4'],,0.0508167578373,1,['num_4'],0,[0.908387805102393],1,,,,,,,,2018_May_12_1238,60.028739939,sequenceLearningTask,001,097,
min1.png,min2.png,min3.png,min4.png,images/allBlank.png,images/min4.png,'num_0',"['num_7', 'num_4', 'num_1', 'num_0']",['num_0'],num_0,,,,,0,9,9,9,10,3,43,3,,,,,,,,,,,,,['num_0'],,0.0524692689069,1,['num_0'],0,[0.7742300212848932],1,,,,,,,,2018_May_12_1238,60.028739939,sequenceLearningTask,001,097,
min1.png,min2.png,min3.png,min4.png,images/allBlank.png,images/min2.png,'num_4',"['num_7', 'num_4', 'num_1', 'num_0']",['num_4'],num_4,,,,,0,9,9,9,11,0,44,1,,,,,,,,,,,,,['num_4'],,0.0491256832611,1,['num_4'],0,[2.1096043777652085],1,,,,,,,,2018_May_12_1238,60.028739939,sequenceLearningTask,001,097,
min1.png,min2.png,min3.png,min4.png,images/allBlank.png,images/min4.png,'num_0',"['num_7', 'num_4', 'num_1', 'num_0']",['num_0'],num_0,,,,,0,9,9,9,11,1,45,3,,,,,,,,,,,,,['num_0'],,0.0531716269907,1,['num_0'],0,[0.5240334062837064],1,,,,,,,,2018_May_12_1238,60.028739939,sequenceLearningTask,001,097,
min1.png,min2.png,min3.png,min4.png,images/allBlank.png,images/min3.png,'num_1',"['num_7', 'num_4', 'num_1', 'num_0']",['num_1'],num_1,,,,,0,9,9,9,11,2,46,2,,,,,,,,,,,,,['num_1'],,0.0514698855113,1,['num_1'],0,[0.8735029248055071],1,,,,,,,,2018_May_12_1238,60.028739939,sequenceLearningTask,001,097,
min1.png,min2.png,min3.png,min4.png,images/allBlank.png,images/min1.png,'num_7',"['num_7', 'num_4', 'num_1', 'num_0']",['num_7'],num_7,,,,,0,9,9,9,11,3,47,0,,,,,,,,,,,,,['num_7'],,0.0502222971991,1,['num_7'],0,[0.6754662457387894],1,,,,,,,,2018_May_12_1238,60.028739939,sequenceLearningTask,001,097,
min1.png,min2.png,min3.png,min4.png,images/allBlank.png,images/min1.png,'num_7',"['num_7', 'num_4', 'num_1', 'num_0']",['num_7'],num_7,,,,,0,9,9,9,12,0,48,0,,,,,,,,,,,,,['num_7'],,0.0521751153283,1,['num_7'],0,[0.5054615316912532],1,,,,,,,,2018_May_12_1238,60.028739939,sequenceLearningTask,001,097,
min1.png,min2.png,min3.png,min4.png,images/allBlank.png,images/min4.png,'num_0',"['num_7', 'num_4', 'num_1', 'num_0']",['num_0'],num_0,,,,,0,9,9,9,12,1,49,3,,,,,,,,,,,,,['num_0'],,0.0534030112904,1,['num_0'],0,[0.45552682410925627],1,,,,,,,,2018_May_12_1238,60.028739939,sequenceLearningTask,001,097,
min1.png,min2.png,min3.png,min4.png,images/allBlank.png,images/min2.png,'num_4',"['num_7', 'num_4', 'num_1', 'num_0']",['num_4'],num_4,,,,,0,9,9,9,12,2,50,1,,,,,,,,,,,,,['num_4'],,0.0540208565071,1,['num_4'],0,[0.43913299799896777],1,,,,,,,,2018_May_12_1238,60.028739939,sequenceLearningTask,001,097,
min1.png,min2.png,min3.png,min4.png,images/allBlank.png,images/min3.png,'num_1',"['num_7', 'num_4', 'num_1', 'num_0']",['num_1'],num_1,,,,,0,9,9,9,12,3,51,2,,,,,,,,,,,,,['num_1'],,0.0507896810304,1,['num_1'],0,[0.32530380482785404],1,,,,,,,,2018_May_12_1238,60.028739939,sequenceLearningTask,001,097,
min1.png,min2.png,min3.png,min4.png,images/allBlank.png,images/min4.png,'num_0',"['num_7', 'num_4', 'num_1', 'num_0']",['num_0'],num_0,,,,,0,9,9,9,13,0,52,3,,,,,,,,,,,,,['num_0'],,0.0469644549303,1,['num_0'],0,[0.4790927437134087],1,,,,,,,,2018_May_12_1238,60.028739939,sequenceLearningTask,001,097,
min1.png,min2.png,min3.png,min4.png,images/allBlank.png,images/min3.png,'num_1',"['num_7', 'num_4', 'num_1', 'num_0']",['num_1'],num_1,,,,,0,9,9,9,13,1,53,2,,,,,,,,,,,,,['num_1'],,0.0525119353551,1,['num_1'],0,[0.7244183903094381],1,,,,,,,,2018_May_12_1238,60.028739939,sequenceLearningTask,001,097,
min1.png,min2.png,min3.png,min4.png,images/allBlank.png,images/min1.png,'num_7',"['num_7', 'num_4', 'num_1', 'num_0']",['num_7'],num_7,,,,,0,9,9,9,13,2,54,0,,,,,,,,,,,,,['num_7'],,0.0555634188931,1,['num_7'],0,[0.5373761591035873],1,,,,,,,,2018_May_12_1238,60.028739939,sequenceLearningTask,001,097,
min1.png,min2.png,min3.png,min4.png,images/allBlank.png,images/min2.png,'num_4',"['num_7', 'num_4', 'num_1', 'num_0']",['num_4'],num_4,,,,,0,9,9,9,13,3,55,1,,,,,,,,,,,,,['num_4'],,0.0580487491097,1,['num_4'],0,[0.36804426508024335],1,,,,,,,,2018_May_12_1238,60.028739939,sequenceLearningTask,001,097,
min1.png,min2.png,min3.png,min4.png,images/allBlank.png,images/min2.png,'num_4',"['num_7', 'num_4', 'num_1', 'num_0']",['num_4'],num_4,,,,,0,9,9,9,14,0,56,1,,,,,,,,,,,,,['num_4'],,0.0577968519647,1,['num_4'],0,[0.8352506642695516],1,,,,,,,,2018_May_12_1238,60.028739939,sequenceLearningTask,001,097,
min1.png,min2.png,min3.png,min4.png,images/allBlank.png,images/min1.png,'num_7',"['num_7', 'num_4', 'num_1', 'num_0']",['num_7'],num_7,,,,,0,9,9,9,14,1,57,0,,,,,,,,,,,,,['num_7'],,0.0496942978352,1,['num_7'],0,[0.7099921517074108],1,,,,,,,,2018_May_12_1238,60.028739939,sequenceLearningTask,001,097,
min1.png,min2.png,min3.png,min4.png,images/allBlank.png,images/min3.png,'num_1',"['num_7', 'num_4', 'num_1', 'num_0']",['num_1'],num_1,,,,,0,9,9,9,14,2,58,2,,,,,,,,,,,,,['num_1'],,0.054929163307,1,['num_1'],0,[0.536739852046594],1,,,,,,,,2018_May_12_1238,60.028739939,sequenceLearningTask,001,097,
min1.png,min2.png,min3.png,min4.png,images/allBlank.png,images/min4.png,'num_0',"['num_7', 'num_4', 'num_1', 'num_0']",['num_0'],num_0,,,,,0,9,9,9,14,3,59,3,,,,,,,,,,,,,['num_0'],,0.0576774673536,0,"['num_1', 'num_0']",0,"[0.4328934159129858, 0.8500260307919234]",0,,,,,,,,2018_May_12_1238,60.028739939,sequenceLearningTask,001,097,
min1.png,min2.png,min3.png,min4.png,images/allBlank.png,images/min2.png,'num_4',"['num_7', 'num_4', 'num_1', 'num_0']",['num_4'],num_4,,,,,0,9,9,9,15,0,60,1,,,,,,,,,,,,,['num_4'],,0.0573705960996,0,"['num_7', 'num_7', 'num_4', 'num_7', 'num_4']",0,"[0.4680318341124803, 1.2362126323860139, 2.501991997472942, 2.585563997272402]",0,,,,,,,,2018_May_12_1238,60.028739939,sequenceLearningTask,001,097,
min1.png,min2.png,min3.png,min4.png,images/allBlank.png,images/min1.png,'num_7',"['num_7', 'num_4', 'num_1', 'num_0']",['num_7'],num_7,,,,,0,9,9,9,15,1,61,0,,,,,,,,,,,,,['num_7'],,0.0529759346973,1,['num_7'],0,[3.272922741016373],1,,,,,,,,2018_May_12_1238,60.028739939,sequenceLearningTask,001,097,
min1.png,min2.png,min3.png,min4.png,images/allBlank.png,images/min4.png,'num_0',"['num_7', 'num_4', 'num_1', 'num_0']",['num_0'],num_0,,,,,0,9,9,9,15,2,62,3,,,,,,,,,,,,,['num_0'],,0.0576249547303,1,['num_0'],0,[0.4324934163596481],1,,,,,,,,2018_May_12_1238,60.028739939,sequenceLearningTask,001,097,
min1.png,min2.png,min3.png,min4.png,images/allBlank.png,images/min3.png,'num_1',"['num_7', 'num_4', 'num_1', 'num_0']",['num_1'],num_1,,,,,0,9,9,9,15,3,63,2,,,,,,,,,,,,,['num_1'],,0.0497418874875,1,['num_1'],0,[0.47592802974395454],1,,,,,,,,2018_May_12_1238,60.028739939,sequenceLearningTask,001,097,
min1.png,min2.png,min3.png,min4.png,images/allBlank.png,images/min4.png,'num_0',"['num_7', 'num_4', 'num_1', 'num_0']",['num_0'],num_0,,,,,0,9,9,9,16,0,64,3,,,,,,,,,,,,,['num_0'],,0.0552224961575,1,['num_0'],0,[0.45302385254763067],1,,,,,,,,2018_May_12_1238,60.028739939,sequenceLearningTask,001,097,
min1.png,min2.png,min3.png,min4.png,images/allBlank.png,images/min2.png,'num_4',"['num_7', 'num_4', 'num_1', 'num_0']",['num_4'],num_4,,,,,0,9,9,9,16,1,65,1,,,,,,,,,,,,,['num_4'],,0.0566854686476,1,['num_4'],0,[0.8187390947714448],1,,,,,,,,2018_May_12_1238,60.028739939,sequenceLearningTask,001,097,
min1.png,min2.png,min3.png,min4.png,images/allBlank.png,images/min3.png,'num_1',"['num_7', 'num_4', 'num_1', 'num_0']",['num_1'],num_1,,,,,0,9,9,9,16,2,66,2,,,,,,,,,,,,,['num_1'],,0.0537262929138,1,['num_1'],0,[0.6394109053071588],1,,,,,,,,2018_May_12_1238,60.028739939,sequenceLearningTask,001,097,
min1.png,min2.png,min3.png,min4.png,images/allBlank.png,images/min1.png,'num_7',"['num_7', 'num_4', 'num_1', 'num_0']",['num_7'],num_7,,,,,0,9,9,9,16,3,67,0,,,,,,,,,,,,,['num_7'],,0.0532635240816,0,"['num_4', 'num_7']",0,"[0.020032385597005486, 0.7061090797651559]",0,,,,,,,,2018_May_12_1238,60.028739939,sequenceLearningTask,001,097,
min1.png,min2.png,min3.png,min4.png,images/allBlank.png,images/min2.png,'num_4',"['num_7', 'num_4', 'num_1', 'num_0']",['num_4'],num_4,,,,,0,9,9,9,17,0,68,1,,,,,,,,,,,,,['num_4'],,0.052848755382,1,['num_4'],0,[1.0900917865801603],1,,,,,,,,2018_May_12_1238,60.028739939,sequenceLearningTask,001,097,
min1.png,min2.png,min3.png,min4.png,images/allBlank.png,images/min4.png,'num_0',"['num_7', 'num_4', 'num_1', 'num_0']",['num_0'],num_0,,,,,0,9,9,9,17,1,69,3,,,,,,,,,,,,,['num_0'],,0.0579228003044,1,['num_0'],0,[0.5491484522353858],1,,,,,,,,2018_May_12_1238,60.028739939,sequenceLearningTask,001,097,
min1.png,min2.png,min3.png,min4.png,images/allBlank.png,images/min3.png,'num_1',"['num_7', 'num_4', 'num_1', 'num_0']",['num_1'],num_1,,,,,0,9,9,9,17,2,70,2,,,,,,,,,,,,,['num_1'],,0.052097577136,1,['num_1'],0,[0.47291716164909303],1,,,,,,,,2018_May_12_1238,60.028739939,sequenceLearningTask,001,097,
min1.png,min2.png,min3.png,min4.png,images/allBlank.png,images/min1.png,'num_7',"['num_7', 'num_4', 'num_1', 'num_0']",['num_7'],num_7,,,,,0,9,9,9,17,3,71,0,,,,,,,,,,,,,['num_7'],,0.0538932669442,1,['num_7'],0,[0.6722896338906139],1,,,,,,,,2018_May_12_1238,60.028739939,sequenceLearningTask,001,097,
min1.png,min2.png,min3.png,min4.png,images/allBlank.png,images/min4.png,'num_0',"['num_7', 'num_4', 'num_1', 'num_0']",['num_0'],num_0,,,,,0,9,9,9,18,0,72,3,,,,,,,,,,,,,['num_0'],,0.0560040336568,1,['num_0'],0,[0.43731187214143574],1,,,,,,,,2018_May_12_1238,60.028739939,sequenceLearningTask,001,097,
min1.png,min2.png,min3.png,min4.png,images/allBlank.png,images/min2.png,'num_4',"['num_7', 'num_4', 'num_1', 'num_0']",['num_4'],num_4,,,,,0,9,9,9,18,1,73,1,,,,,,,,,,,,,['num_4'],,0.0513431162108,1,['num_4'],0,[1.3918481331784278],1,,,,,,,,2018_May_12_1238,60.028739939,sequenceLearningTask,001,097,
min1.png,min2.png,min3.png,min4.png,images/allBlank.png,images/min1.png,'num_7',"['num_7', 'num_4', 'num_1', 'num_0']",['num_7'],num_7,,,,,0,9,9,9,18,2,74,0,,,,,,,,,,,,,['num_7'],,0.0528097811621,1,['num_7'],0,[1.1055120753590018],1,,,,,,,,2018_May_12_1238,60.028739939,sequenceLearningTask,001,097,
min1.png,min2.png,min3.png,min4.png,images/allBlank.png,images/min3.png,'num_1',"['num_7', 'num_4', 'num_1', 'num_0']",['num_1'],num_1,,,,,0,9,9,9,18,3,75,2,,,,,,,,,,,,,['num_1'],,0.0602932590991,1,['num_1'],0,[0.5972337264101952],1,,,,,,,,2018_May_12_1238,60.028739939,sequenceLearningTask,001,097,
min1.png,min2.png,min3.png,min4.png,images/allBlank.png,images/min2.png,'num_4',"['num_7', 'num_4', 'num_1', 'num_0']",['num_4'],num_4,,,,,0,9,9,9,19,0,76,1,,,,,,,,,,,,,['num_4'],,0.055863315938,0,"['num_7', 'num_4']",0,"[0.7851625208277255, 2.218547423137352]",0,,,,,,,,2018_May_12_1238,60.028739939,sequenceLearningTask,001,097,
min1.png,min2.png,min3.png,min4.png,images/allBlank.png,images/min3.png,'num_1',"['num_7', 'num_4', 'num_1', 'num_0']",['num_1'],num_1,,,,,0,9,9,9,19,1,77,2,,,,,,,,,,,,,['num_1'],,0.0503219894599,1,['num_1'],0,[0.6581148824188858],1,,,,,,,,2018_May_12_1238,60.028739939,sequenceLearningTask,001,097,
min1.png,min2.png,min3.png,min4.png,images/allBlank.png,images/min1.png,'num_7',"['num_7', 'num_4', 'num_1', 'num_0']",['num_7'],num_7,,,,,0,9,9,9,19,2,78,0,,,,,,,,,,,,,['num_7'],,0.0542411638889,1,['num_7'],0,[0.5378372867126018],1,,,,,,,,2018_May_12_1238,60.028739939,sequenceLearningTask,001,097,
min1.png,min2.png,min3.png,min4.png,images/allBlank.png,images/min4.png,'num_0',"['num_7', 'num_4', 'num_1', 'num_0']",['num_0'],num_0,,,,,0,9,9,9,19,3,79,3,,,,,,,,,,,,,['num_0'],,0.0579687491991,1,['num_0'],0,[0.35021372279152274],1,,,,,,,,2018_May_12_1238,60.028739939,sequenceLearningTask,001,097,
min1.png,min2.png,min3.png,min4.png,allBlank.png,,,,['num_7'],,,,,,0,0,0,0,,,,,,,,,,,,,,,,,['num_7'],1,0.0499773742631,1,['num_7'],0,[0.4044520149473101],,,,,,,,,2018_May_12_1238,60.028739939,sequenceLearningTask,001,097,
min1.png,min2.png,min3.png,min4.png,allBlank.png,,,,['num_1'],,,,,,0,0,0,0,,,,,,,,,,,,,,,,,['num_1'],1,0.059241773095,1,['num_1'],0,[0.3506883888039738],,,,,,,,,2018_May_12_1238,60.028739939,sequenceLearningTask,001,097,
min1.png,min2.png,min3.png,min4.png,allBlank.png,,,,['num_4'],,,,,,0,0,0,0,,,,,,,,,,,,,,,,,['num_4'],1,0.0533927548677,1,['num_4'],0,[0.7076906161382794],,,,,,,,,2018_May_12_1238,60.028739939,sequenceLearningTask,001,097,
min1.png,min2.png,min3.png,min4.png,allBlank.png,,,,['num_0'],,,,,,0,0,0,0,,,,,,,,,,,,,,,,,['num_0'],1,0.0512093727011,1,['num_0'],0,[0.35944160888902843],,,,,,,,,2018_May_12_1238,60.028739939,sequenceLearningTask,001,097,
min1.png,min2.png,min3.png,min4.png,allBlank.png,,,,['num_0'],,,,,,0,0,0,0,,,,,,,,,,,,,,,,,['num_0'],1,0.0536750108004,1,['num_0'],0,[0.42479414376430213],,,,,,,,,2018_May_12_1238,60.028739939,sequenceLearningTask,001,097,
min1.png,min2.png,min3.png,min4.png,allBlank.png,,,,['num_4'],,,,,,0,0,0,0,,,,,,,,,,,,,,,,,['num_4'],1,0.0481960431207,1,['num_4'],0,[0.5636411523446441],,,,,,,,,2018_May_12_1238,60.028739939,sequenceLearningTask,001,097,
min1.png,min2.png,min3.png,min4.png,allBlank.png,,,,['num_1'],,,,,,0,0,0,0,,,,,,,,,,,,,,,,,['num_1'],1,0.0556508032605,0,"['num_7', 'num_4', 'num_1']",0,"[0.0002962048165500164, 0.48733560531400144, 0.8711574918124825]",,,,,,,,,2018_May_12_1238,60.028739939,sequenceLearningTask,001,097,
min1.png,min2.png,min3.png,min4.png,allBlank.png,,,,['num_0'],,,,,,0,0,0,0,,,,,,,,,,,,,,,,,['num_0'],1,0.0560142900795,1,['num_0'],0,[0.4211719944141805],,,,,,,,,2018_May_12_1238,60.028739939,sequenceLearningTask,001,097,
min1.png,min2.png,min3.png,min4.png,allBlank.png,,,,['num_7'],,,,,,0,1,1,1,,,,,,,,,,,,,,,,,['num_7'],2,0.0482969661243,0,"['num_1', 'num_4', 'num_7']",0,"[0.3778038427699357, 0.4134464655071497, 0.9285153700038791]",,,,,,,,,2018_May_12_1238,60.028739939,sequenceLearningTask,001,097,
min1.png,min2.png,min3.png,min4.png,allBlank.png,,,,['num_1'],,,,,,0,1,1,1,,,,,,,,,,,,,,,,,['num_1'],2,0.0559790080879,0,"['num_4', 'num_1', 'num_0', 'num_4', 'num_1']",0,"[0.0003072815015912056, 0.38952198228798807, 0.872055952437222, 0.93880376778543]",,,,,,,,,2018_May_12_1238,60.028739939,sequenceLearningTask,001,097,
min1.png,min2.png,min3.png,min4.png,allBlank.png,,,,['num_4'],,,,,,0,1,1,1,,,,,,,,,,,,,,,,,['num_4'],2,0.0536286521237,0,"['num_1', 'num_4']",0,"[0.2919705123640597, 0.3247872923966497]",,,,,,,,,2018_May_12_1238,60.028739939,sequenceLearningTask,001,097,
min1.png,min2.png,min3.png,min4.png,allBlank.png,,,,['num_0'],,,,,,0,1,1,1,,,,,,,,,,,,,,,,,['num_0'],2,0.0506534760352,0,"['num_7', 'num_4', 'num_7', 'num_1', 'num_4', 'num_1', 'num_1', 'num_0']",0,"[0.00030030752532184124, 0.3096915162168443, 0.35925412201322615, 1.0103405001573265, 1.027707042871043, 1.5607751046773046, 1.5943319865036756]",,,,,,,,,2018_May_12_1238,60.028739939,sequenceLearningTask,001,097,
min1.png,min2.png,min3.png,min4.png,allBlank.png,,,,['num_0'],,,,,,0,1,1,1,,,,,,,,,,,,,,,,,['num_0'],2,0.05463254801,0,"['num_7', 'num_4', 'num_1', 'num_0']",0,"[0.5256436606869102, 1.2568562992382795]",,,,,,,,,2018_May_12_1238,60.028739939,sequenceLearningTask,001,097,
min1.png,min2.png,min3.png,min4.png,allBlank.png,,,,['num_4'],,,,,,0,1,1,1,,,,,,,,,,,,,,,,,['num_4'],2,0.0497480412014,1,['num_4'],0,[0.9779565399512649],,,,,,,,,2018_May_12_1238,60.028739939,sequenceLearningTask,001,097,
min1.png,min2.png,min3.png,min4.png,allBlank.png,,,,['num_1'],,,,,,0,1,1,1,,,,,,,,,,,,,,,,,['num_1'],2,0.051323834341,1,['num_1'],0,[0.32635077787563205],,,,,,,,,2018_May_12_1238,60.028739939,sequenceLearningTask,001,097,
min1.png,min2.png,min3.png,min4.png,allBlank.png,,,,['num_0'],,,,,,0,1,1,1,,,,,,,,,,,,,,,,,['num_0'],2,0.0537525492255,1,['num_0'],0,[0.22368998103775084],,,,,,,,,2018_May_12_1238,60.028739939,sequenceLearningTask,001,097,
min1.png,min2.png,min3.png,min4.png,allBlank.png,,,,['num_7'],,,,,,0,2,2,2,,,,,,,,,,,,,,,,,['num_7'],3,0.0515753210057,1,['num_7'],0,[0.4917109846137464],,,,,,,,,2018_May_12_1238,60.028739939,sequenceLearningTask,001,097,
min1.png,min2.png,min3.png,min4.png,allBlank.png,,,,['num_1'],,,,,,0,2,2,2,,,,,,,,,,,,,,,,,['num_1'],3,0.0590144915041,1,['num_1'],0,[0.7512368189636618],,,,,,,,,2018_May_12_1238,60.028739939,sequenceLearningTask,001,097,
min1.png,min2.png,min3.png,min4.png,allBlank.png,,,,['num_4'],,,,,,0,2,2,2,,,,,,,,,,,,,,,,,['num_4'],3,0.0528540888336,1,['num_4'],0,[1.891260031145066],,,,,,,,,2018_May_12_1238,60.028739939,sequenceLearningTask,001,097,
min1.png,min2.png,min3.png,min4.png,allBlank.png,,,,['num_0'],,,,,,0,2,2,2,,,,,,,,,,,,,,,,,['num_0'],3,0.0572585961781,1,['num_0'],0,[0.47099306154996157],,,,,,,,,2018_May_12_1238,60.028739939,sequenceLearningTask,001,097,
min1.png,min2.png,min3.png,min4.png,allBlank.png,,,,['num_0'],,,,,,0,2,2,2,,,,,,,,,,,,,,,,,['num_0'],3,0.051501065027,0,"['num_1', 'num_0']",0,"[0.4273553714156151, 0.8937334639485925]",,,,,,,,,2018_May_12_1238,60.028739939,sequenceLearningTask,001,097,
min1.png,min2.png,min3.png,min4.png,allBlank.png,,,,['num_4'],,,,,,0,2,2,2,,,,,,,,,,,,,,,,,['num_4'],3,0.0498563488945,1,['num_4'],0,[0.5608226943295449],,,,,,,,,2018_May_12_1238,60.028739939,sequenceLearningTask,001,097,
min1.png,min2.png,min3.png,min4.png,allBlank.png,,,,['num_1'],,,,,,0,2,2,2,,,,,,,,,,,,,,,,,['num_1'],3,0.0553045473062,1,['num_1'],0,[0.38911295705474913],,,,,,,,,2018_May_12_1238,60.028739939,sequenceLearningTask,001,097,
min1.png,min2.png,min3.png,min4.png,allBlank.png,,,,['num_0'],,,,,,0,2,2,2,,,,,,,,,,,,,,,,,['num_0'],3,0.0544163433369,1,['num_0'],0,[0.3078264929354191],,,,,,,,,2018_May_12_1238,60.028739939,sequenceLearningTask,001,097,
min1.png,min2.png,min3.png,min4.png,allBlank.png,,,,['num_7'],,,,,,0,3,3,3,,,,,,,,,,,,,,,,,['num_7'],4,0.0497107082047,1,['num_7'],0,[0.5097971160430461],,,,,,,,,2018_May_12_1238,60.028739939,sequenceLearningTask,001,097,
min1.png,min2.png,min3.png,min4.png,allBlank.png,,,,['num_1'],,,,,,0,3,3,3,,,,,,,,,,,,,,,,,['num_1'],4,0.0553681368474,1,['num_1'],0,[0.6053662290796638],,,,,,,,,2018_May_12_1238,60.028739939,sequenceLearningTask,001,097,
min1.png,min2.png,min3.png,min4.png,allBlank.png,,,,['num_4'],,,,,,0,3,3,3,,,,,,,,,,,,,,,,,['num_4'],4,0.0574456728064,1,['num_4'],0,[0.35378705174662173],,,,,,,,,2018_May_12_1238,60.028739939,sequenceLearningTask,001,097,
min1.png,min2.png,min3.png,min4.png,allBlank.png,,,,['num_0'],,,,,,0,3,3,3,,,,,,,,,,,,,,,,,['num_0'],4,0.0508122451138,1,['num_0'],0,[0.24419334065169096],,,,,,,,,2018_May_12_1238,60.028739939,sequenceLearningTask,001,097,
min1.png,min2.png,min3.png,min4.png,allBlank.png,,,,['num_0'],,,,,,0,3,3,3,,,,,,,,,,,,,,,,,['num_0'],4,0.0426846654154,1,['num_0'],0,[0.5030443039722741],,,,,,,,,2018_May_12_1238,60.028739939,sequenceLearningTask,001,097,
min1.png,min2.png,min3.png,min4.png,allBlank.png,,,,['num_4'],,,,,,0,3,3,3,,,,,,,,,,,,,,,,,['num_4'],4,0.0577258777339,1,['num_4'],0,[0.553563216002658],,,,,,,,,2018_May_12_1238,60.028739939,sequenceLearningTask,001,097,
min1.png,min2.png,min3.png,min4.png,allBlank.png,,,,['num_1'],,,,,,0,3,3,3,,,,,,,,,,,,,,,,,['num_1'],4,0.0524364484008,1,['num_1'],0,[0.3094835167285055],,,,,,,,,2018_May_12_1238,60.028739939,sequenceLearningTask,001,097,
min1.png,min2.png,min3.png,min4.png,allBlank.png,,,,['num_0'],,,,,,0,3,3,3,,,,,,,,,,,,,,,,,['num_0'],4,0.0542268049903,1,['num_0'],0,[0.29043287318199873],,,,,,,,,2018_May_12_1238,60.028739939,sequenceLearningTask,001,097,
min1.png,min2.png,min3.png,min4.png,allBlank.png,,,,['num_7'],,,,,,0,4,4,4,,,,,,,,,,,,,,,,,['num_7'],5,0.0487388116308,1,['num_7'],0,[0.3945755143649876],,,,,,,,,2018_May_12_1238,60.028739939,sequenceLearningTask,001,097,
min1.png,min2.png,min3.png,min4.png,allBlank.png,,,,['num_1'],,,,,,0,4,4,4,,,,,,,,,,,,,,,,,['num_1'],5,0.0540077283513,1,['num_1'],0,[0.5411053854040802],,,,,,,,,2018_May_12_1238,60.028739939,sequenceLearningTask,001,097,
min1.png,min2.png,min3.png,min4.png,allBlank.png,,,,['num_4'],,,,,,0,4,4,4,,,,,,,,,,,,,,,,,['num_4'],5,0.0583141846582,1,['num_4'],0,[0.3696971859317273],,,,,,,,,2018_May_12_1238,60.028739939,sequenceLearningTask,001,097,
min1.png,min2.png,min3.png,min4.png,allBlank.png,,,,['num_0'],,,,,,0,4,4,4,,,,,,,,,,,,,,,,,['num_0'],5,0.0558440338355,1,['num_0'],0,[0.30566239287145436],,,,,,,,,2018_May_12_1238,60.028739939,sequenceLearningTask,001,097,
min1.png,min2.png,min3.png,min4.png,allBlank.png,,,,['num_0'],,,,,,0,4,4,4,,,,,,,,,,,,,,,,,['num_0'],5,0.0570702885743,1,['num_0'],0,[0.4212281994987279],,,,,,,,,2018_May_12_1238,60.028739939,sequenceLearningTask,001,097,
min1.png,min2.png,min3.png,min4.png,allBlank.png,,,,['num_4'],,,,,,0,4,4,4,,,,,,,,,,,,,,,,,['num_4'],5,0.0408471291885,1,['num_4'],0,[0.6393489567562938],,,,,,,,,2018_May_12_1238,60.028739939,sequenceLearningTask,001,097,
min1.png,min2.png,min3.png,min4.png,allBlank.png,,,,['num_1'],,,,,,0,4,4,4,,,,,,,,,,,,,,,,,['num_1'],5,0.0561705974396,1,['num_1'],0,[0.8709823125973344],,,,,,,,,2018_May_12_1238,60.028739939,sequenceLearningTask,001,097,
min1.png,min2.png,min3.png,min4.png,allBlank.png,,,,['num_0'],,,,,,0,4,4,4,,,,,,,,,,,,,,,,,['num_0'],5,0.0547777786851,1,['num_0'],0,[0.32263385923579335],,,,,,,,,2018_May_12_1238,60.028739939,sequenceLearningTask,001,097,
min1.png,min2.png,min3.png,min4.png,allBlank.png,,,,['num_7'],,,,,,0,5,5,5,,,,,,,,,,,,,,,,,['num_7'],6,0.0524610634893,1,['num_7'],0,[0.38928321306593716],,,,,,,,,2018_May_12_1238,60.028739939,sequenceLearningTask,001,097,
min1.png,min2.png,min3.png,min4.png,allBlank.png,,,,['num_1'],,,,,,0,5,5,5,,,,,,,,,,,,,,,,,['num_1'],6,0.0557964439504,1,['num_1'],0,[0.5238898168317974],,,,,,,,,2018_May_12_1238,60.028739939,sequenceLearningTask,001,097,
min1.png,min2.png,min3.png,min4.png,allBlank.png,,,,['num_4'],,,,,,0,5,5,5,,,,,,,,,,,,,,,,,['num_4'],6,0.0545365482103,1,['num_4'],0,[1.3062055718619376],,,,,,,,,2018_May_12_1238,60.028739939,sequenceLearningTask,001,097,
min1.png,min2.png,min3.png,min4.png,allBlank.png,,,,['num_0'],,,,,,0,5,5,5,,,,,,,,,,,,,,,,,['num_0'],6,0.0530600373168,1,['num_0'],0,[0.60738181672059],,,,,,,,,2018_May_12_1238,60.028739939,sequenceLearningTask,001,097,
min1.png,min2.png,min3.png,min4.png,allBlank.png,,,,['num_0'],,,,,,0,5,5,5,,,,,,,,,,,,,,,,,['num_0'],6,0.0518128592521,1,['num_0'],0,[0.5271365819498897],,,,,,,,,2018_May_12_1238,60.028739939,sequenceLearningTask,001,097,
min1.png,min2.png,min3.png,min4.png,allBlank.png,,,,['num_4'],,,,,,0,5,5,5,,,,,,,,,,,,,,,,,['num_4'],6,0.0509262962732,1,['num_4'],0,[0.6271799460519105],,,,,,,,,2018_May_12_1238,60.028739939,sequenceLearningTask,001,097,
min1.png,min2.png,min3.png,min4.png,allBlank.png,,,,['num_1'],,,,,,0,5,5,5,,,,,,,,,,,,,,,,,['num_1'],6,0.0581697747111,1,['num_1'],0,[0.36883113579824567],,,,,,,,,2018_May_12_1238,60.028739939,sequenceLearningTask,001,097,
min1.png,min2.png,min3.png,min4.png,allBlank.png,,,,['num_0'],,,,,,0,5,5,5,,,,,,,,,,,,,,,,,['num_0'],6,0.0576434163377,1,['num_0'],0,[0.4866508881095797],,,,,,,,,2018_May_12_1238,60.028739939,sequenceLearningTask,001,097,
min1.png,min2.png,min3.png,min4.png,allBlank.png,,,,['num_7'],,,,,,0,6,6,6,,,,,,,,,,,,,,,,,['num_7'],7,0.0497185029089,1,['num_7'],0,[0.5424567682202905],,,,,,,,,2018_May_12_1238,60.028739939,sequenceLearningTask,001,097,
min1.png,min2.png,min3.png,min4.png,allBlank.png,,,,['num_1'],,,,,,0,6,6,6,,,,,,,,,,,,,,,,,['num_1'],7,0.0535203444306,1,['num_1'],0,[0.8073142883367836],,,,,,,,,2018_May_12_1238,60.028739939,sequenceLearningTask,001,097,
min1.png,min2.png,min3.png,min4.png,allBlank.png,,,,['num_4'],,,,,,0,6,6,6,,,,,,,,,,,,,,,,,['num_4'],7,0.0553796242457,1,['num_4'],0,[0.905191911617294],,,,,,,,,2018_May_12_1238,60.028739939,sequenceLearningTask,001,097,
min1.png,min2.png,min3.png,min4.png,allBlank.png,,,,['num_0'],,,,,,0,6,6,6,,,,,,,,,,,,,,,,,['num_0'],7,0.0565783919301,1,['num_0'],0,[0.30495675280690193],,,,,,,,,2018_May_12_1238,60.028739939,sequenceLearningTask,001,097,
min1.png,min2.png,min3.png,min4.png,allBlank.png,,,,['num_0'],,,,,,0,6,6,6,,,,,,,,,,,,,,,,,['num_0'],7,0.0469221987296,1,['num_0'],0,[0.48097581835463643],,,,,,,,,2018_May_12_1238,60.028739939,sequenceLearningTask,001,097,
min1.png,min2.png,min3.png,min4.png,allBlank.png,,,,['num_4'],,,,,,0,6,6,6,,,,,,,,,,,,,,,,,['num_4'],7,0.053739010822,1,['num_4'],0,[1.0238432527985424],,,,,,,,,2018_May_12_1238,60.028739939,sequenceLearningTask,001,097,
min1.png,min2.png,min3.png,min4.png,allBlank.png,,,,['num_1'],,,,,,0,6,6,6,,,,,,,,,,,,,,,,,['num_1'],7,0.0460319432896,1,['num_1'],0,[0.09982880018651485],,,,,,,,,2018_May_12_1238,60.028739939,sequenceLearningTask,001,097,
min1.png,min2.png,min3.png,min4.png,allBlank.png,,,,['num_0'],,,,,,0,6,6,6,,,,,,,,,,,,,,,,,['num_0'],7,0.0479765564669,1,['num_0'],0,[0.2961341997142881],,,,,,,,,2018_May_12_1238,60.028739939,sequenceLearningTask,001,097,
min1.png,min2.png,min3.png,min4.png,allBlank.png,,,,['num_7'],,,,,,0,7,7,7,,,,,,,,,,,,,,,,,['num_7'],8,0.0554362395778,1,['num_7'],0,[0.4544999534264207],,,,,,,,,2018_May_12_1238,60.028739939,sequenceLearningTask,001,097,
min1.png,min2.png,min3.png,min4.png,allBlank.png,,,,['num_1'],,,,,,0,7,7,7,,,,,,,,,,,,,,,,,['num_1'],8,0.0508430143818,0,"['num_0', 'num_1']",0,"[0.34481598576530814, 0.7772757613565773]",,,,,,,,,2018_May_12_1238,60.028739939,sequenceLearningTask,001,097,
min1.png,min2.png,min3.png,min4.png,allBlank.png,,,,['num_4'],,,,,,0,7,7,7,,,,,,,,,,,,,,,,,['num_4'],8,0.051560962107,1,['num_4'],0,[0.6590707784052938],,,,,,,,,2018_May_12_1238,60.028739939,sequenceLearningTask,001,097,
min1.png,min2.png,min3.png,min4.png,allBlank.png,,,,['num_0'],,,,,,0,7,7,7,,,,,,,,,,,,,,,,,['num_0'],8,0.0565086484421,1,['num_0'],0,[0.4040081182029098],,,,,,,,,2018_May_12_1238,60.028739939,sequenceLearningTask,001,097,
min1.png,min2.png,min3.png,min4.png,allBlank.png,,,,['num_0'],,,,,,0,7,7,7,,,,,,,,,,,,,,,,,['num_0'],8,0.0545783943962,1,['num_0'],0,[0.47266772598959506],,,,,,,,,2018_May_12_1238,60.028739939,sequenceLearningTask,001,097,
min1.png,min2.png,min3.png,min4.png,allBlank.png,,,,['num_4'],,,,,,0,7,7,7,,,,,,,,,,,,,,,,,['num_4'],8,0.0524840380531,1,['num_4'],0,[0.8249708821531385],,,,,,,,,2018_May_12_1238,60.028739939,sequenceLearningTask,001,097,
min1.png,min2.png,min3.png,min4.png,allBlank.png,,,,['num_1'],,,,,,0,7,7,7,,,,,,,,,,,,,,,,,['num_1'],8,0.0484015813563,1,['num_1'],0,[0.14644781965762377],,,,,,,,,2018_May_12_1238,60.028739939,sequenceLearningTask,001,097,
min1.png,min2.png,min3.png,min4.png,allBlank.png,,,,['num_0'],,,,,,0,7,7,7,,,,,,,,,,,,,,,,,['num_0'],8,0.0563392126933,1,['num_0'],0,[0.3046929584816098],,,,,,,,,2018_May_12_1238,60.028739939,sequenceLearningTask,001,097,
min1.png,min2.png,min3.png,min4.png,allBlank.png,,,,['num_7'],,,,,,0,8,8,8,,,,,,,,,,,,,,,,,['num_7'],9,0.0573492627591,1,['num_7'],0,[0.4523083665408194],,,,,,,,,2018_May_12_1238,60.028739939,sequenceLearningTask,001,097,
min1.png,min2.png,min3.png,min4.png,allBlank.png,,,,['num_1'],,,,,,0,8,8,8,,,,,,,,,,,,,,,,,['num_1'],9,0.0587818762287,1,['num_1'],0,[0.4361844889353961],,,,,,,,,2018_May_12_1238,60.028739939,sequenceLearningTask,001,097,
min1.png,min2.png,min3.png,min4.png,allBlank.png,,,,['num_4'],,,,,,0,8,8,8,,,,,,,,,,,,,,,,,['num_4'],9,0.0563929560594,0,"['num_7', 'num_4']",0,"[0.4710316255223006, 0.8211444253101945]",,,,,,,,,2018_May_12_1238,60.028739939,sequenceLearningTask,001,097,
min1.png,min2.png,min3.png,min4.png,allBlank.png,,,,['num_0'],,,,,,0,8,8,8,,,,,,,,,,,,,,,,,['num_0'],9,0.0512389112264,1,['num_0'],0,[0.2934572799131274],,,,,,,,,2018_May_12_1238,60.028739939,sequenceLearningTask,001,097,
min1.png,min2.png,min3.png,min4.png,allBlank.png,,,,['num_0'],,,,,,0,8,8,8,,,,,,,,,,,,,,,,,['num_0'],9,0.0499051692896,1,['num_0'],0,[0.4948416475672275],,,,,,,,,2018_May_12_1238,60.028739939,sequenceLearningTask,001,097,
min1.png,min2.png,min3.png,min4.png,allBlank.png,,,,['num_4'],,,,,,0,8,8,8,,,,,,,,,,,,,,,,,['num_4'],9,0.0511449626647,1,['num_4'],0,[0.793559638550505],,,,,,,,,2018_May_12_1238,60.028739939,sequenceLearningTask,001,097,
min1.png,min2.png,min3.png,min4.png,allBlank.png,,,,['num_1'],,,,,,0,8,8,8,,,,,,,,,,,,,,,,,['num_1'],9,0.0579059799202,0,"['num_1', 'num_1']",0,"[0.05197819252498448, 0.6691942533943802]",,,,,,,,,2018_May_12_1238,60.028739939,sequenceLearningTask,001,097,
min1.png,min2.png,min3.png,min4.png,allBlank.png,,,,['num_0'],,,,,,0,8,8,8,,,,,,,,,,,,,,,,,['num_0'],9,0.0490062986501,1,['num_0'],0,[0.3291495437733829],,,,,,,,,2018_May_12_1238,60.028739939,sequenceLearningTask,001,097,
min1.png,min2.png,min3.png,min4.png,allBlank.png,,,,['num_7'],,,,,,0,9,9,9,,,,,,,,,,,,,,,,,['num_7'],10,0.053927318193,1,['num_7'],0,[0.3885931628756225],,,,,,,,,2018_May_12_1238,60.028739939,sequenceLearningTask,001,097,
min1.png,min2.png,min3.png,min4.png,allBlank.png,,,,['num_1'],,,,,,0,9,9,9,,,,,,,,,,,,,,,,,['num_1'],10,0.0591223887168,1,['num_1'],0,[0.3996126363053918],,,,,,,,,2018_May_12_1238,60.028739939,sequenceLearningTask,001,097,
min1.png,min2.png,min3.png,min4.png,allBlank.png,,,,['num_4'],,,,,,0,9,9,9,,,,,,,,,,,,,,,,,['num_4'],10,0.0567986993119,1,['num_4'],0,[0.7043486714828759],,,,,,,,,2018_May_12_1238,60.028739939,sequenceLearningTask,001,097,
min1.png,min2.png,min3.png,min4.png,allBlank.png,,,,['num_0'],,,,,,0,9,9,9,,,,,,,,,,,,,,,,,['num_0'],10,0.0513816804159,1,['num_0'],0,[0.1763054239563644],,,,,,,,,2018_May_12_1238,60.028739939,sequenceLearningTask,001,097,
min1.png,min2.png,min3.png,min4.png,allBlank.png,,,,['num_0'],,,,,,0,9,9,9,,,,,,,,,,,,,,,,,['num_0'],10,0.0569857759401,1,['num_0'],0,[0.404186989646405],,,,,,,,,2018_May_12_1238,60.028739939,sequenceLearningTask,001,097,
min1.png,min2.png,min3.png,min4.png,allBlank.png,,,,['num_4'],,,,,,0,9,9,9,,,,,,,,,,,,,,,,,['num_4'],10,0.058623107383,1,['num_4'],0,[0.7335941740311682],,,,,,,,,2018_May_12_1238,60.028739939,sequenceLearningTask,001,097,
min1.png,min2.png,min3.png,min4.png,allBlank.png,,,,['num_1'],,,,,,0,9,9,9,,,,,,,,,,,,,,,,,['num_1'],10,0.0531855756417,1,['num_1'],0,[0.25864419457502663],,,,,,,,,2018_May_12_1238,60.028739939,sequenceLearningTask,001,097,
min1.png,min2.png,min3.png,min4.png,allBlank.png,,,,['num_0'],,,,,,0,9,9,9,,,,,,,,,,,,,,,,,['num_0'],10,0.0517742952798,1,['num_0'],0,[0.3430650136433542],,,,,,,,,2018_May_12_1238,60.028739939,sequenceLearningTask,001,097,
min1.png,min2.png,min3.png,min4.png,allBlank.png,,,,,,,,,,0,9,9,9,,,,,0,-1,-1,0,,,,,,,,,,,,,,,,,,,,,,,,2018_May_12_1238,60.028739939,sequenceLearningTask,001,097,
min1.png,min2.png,min3.png,min4.png,allBlank.png,,,,,,,,,,0,9,9,9,,,,,0,-1,-1,0,,,,,,,,,,,,,,,,,['1'],,,,,,,2018_May_12_1238,60.028739939,sequenceLearningTask,001,097,
min1.png,min2.png,min3.png,min4.png,allBlank.png,,,,,,,,,,0,9,9,9,,,,,0,-1,-1,0,,,,,,,,,,,,,,,,,['1'],,,,,,,2018_May_12_1238,60.028739939,sequenceLearningTask,001,097,
min1.png,min2.png,min3.png,min4.png,allBlank.png,,,,,,,,,,0,9,9,9,,,,,0,-1,-1,0,,,,,,,,,,,,,,,,,['1'],,,,,,,2018_May_12_1238,60.028739939,sequenceLearningTask,001,097,
min1.png,min2.png,min3.png,min4.png,allBlank.png,,,,,,,,,,0,9,9,9,,,,,0,-1,-1,0,,,,,,,,,,,,,,,,,['1'],,,,,,,2018_May_12_1238,60.028739939,sequenceLearningTask,001,097,
min1.png,min2.png,min3.png,min4.png,allBlank.png,,,,,,0,0,0,0,0,9,9,9,,,,,0,-1,-1,0,,,,,,,,,,,,,,,,,,return,29.7669032614,xylophonwback eback back ,"[11.837843481684104, 12.43826448614709, 14.087885840563104, 14.321020322851837, 15.705186414066702, 16.237401553895324, 17.854030538583174, 18.287679645931348, 18.454823235049844, 19.919521739939228, 20.53816385054961, 21.386534908786416, 21.536112570902333]",,,2018_May_12_1238,60.028739939,sequenceLearningTask,001,097,
min1.png,min2.png,min3.png,min4.png,allBlank.png,,,,['3'],,,,,,0,9,9,9,,,,,0,-1,-1,0,0,0,0,0,,,,,['3'],1,,0,,,,,,,,,,['4'],14.3745185134,2018_May_12_1238,60.028739939,sequenceLearningTask,001,097,
min1.png,min2.png,min3.png,min4.png,allBlank.png,,,,['2'],,,,,,0,9,9,9,,,,,0,-1,-1,0,0,0,0,0,,,,,['2'],1,,1,,,,,,,,,,['2'],6.88260404184,2018_May_12_1238,60.028739939,sequenceLearningTask,001,097,
min1.png,min2.png,min3.png,min4.png,allBlank.png,,,,['4'],,,,,,0,9,9,9,,,,,0,-1,-1,0,0,0,0,0,,,,,['4'],1,,1,,,,,,,,,,['4'],3.08194779675,2018_May_12_1238,60.028739939,sequenceLearningTask,001,097,
min1.png,min2.png,min3.png,min4.png,allBlank.png,,,,['4'],,,,,,0,9,9,9,,,,,0,-1,-1,0,0,0,0,0,,,,,['4'],1,,1,,,,,,,,,,['4'],3.29935306753,2018_May_12_1238,60.028739939,sequenceLearningTask,001,097,
min1.png,min2.png,min3.png,min4.png,allBlank.png,,,,['2'],,,,,,0,9,9,9,,,,,0,-1,-1,0,0,0,0,0,,,,,['2'],1,,0,,,,,,,,,,['1'],4.11552519095,2018_May_12_1238,60.028739939,sequenceLearningTask,001,097,
min1.png,min2.png,min3.png,min4.png,allBlank.png,,,,['3'],,,,,,0,9,9,9,,,,,0,-1,-1,0,0,0,0,0,,,,,['3'],1,,1,,,,,,,,,,['3'],3.58271189826,2018_May_12_1238,60.028739939,sequenceLearningTask,001,097,
min1.png,min2.png,min3.png,min4.png,allBlank.png,,,,['4'],,,,,,0,9,9,9,,,,,0,-1,-1,0,0,0,0,0,,,,,['4'],1,,0,,,,,,,,,,['1'],2.34981823619,2018_May_12_1238,60.028739939,sequenceLearningTask,001,097,
min1.png,min2.png,min3.png,min4.png,allBlank.png,,,,['2'],,,,,,0,9,9,9,,,,,0,-1,-1,0,0,0,0,0,,,,,['2'],1,,0,,,,,,,,,,['4'],1.13241255493,2018_May_12_1238,60.028739939,sequenceLearningTask,001,097,
min1.png,min2.png,min3.png,min4.png,allBlank.png,,,,['1'],,,,,,0,9,9,9,,,,,0,-1,-1,0,0,0,0,0,,,,,['1'],1,,1,,,,,,,,,,['1'],1.6828869544,2018_May_12_1238,60.028739939,sequenceLearningTask,001,097,
min1.png,min2.png,min3.png,min4.png,allBlank.png,,,,['1'],,,,,,0,9,9,9,,,,,0,-1,-1,0,0,0,0,0,0,0,0,0,['1'],1,,0,,,,,,,,,,['3'],25.5541334718,2018_May_12_1238,60.028739939,sequenceLearningTask,001,097,
min1.png,min2.png,min3.png,min4.png,allBlank.png,,,,['3'],,,,,,0,9,9,9,,,,,0,-1,-1,0,0,0,0,0,0,0,0,0,['3'],1,,1,,,,,,,,,,['3'],15.2785588368,2018_May_12_1238,60.028739939,sequenceLearningTask,001,097,
