pawPatrol1,pawPatrol2,pawPatrol3,pawPatrol4,blank,randomPaw,correctKeyPress,allowableKey,correctKey,correctKeyPressNum,trials.thisRepN,trials.thisTrialN,trials.thisN,trials.thisIndex,trials_3.thisRepN,trials_3.thisTrialN,trials_3.thisN,trials_3.thisIndex,trials_2.thisRepN,trials_2.thisTrialN,trials_2.thisN,trials_2.thisIndex,trials_questions.thisRepN,trials_questions.thisTrialN,trials_questions.thisN,trials_questions.thisIndex,correctKey,repetitionNumber,stimulusPresent.t,trialCorrect,key_resp_9.keys,key_resp_9.corr,key_resp_9.rt,keyRespCorrect,date,frameRate,expName,session,participant,
min1.png,min2.png,min3.png,min4.png,allBlank.png,,,,['num_7'],,,,,,0,0,0,0,,,,,,,,,['num_7'],1,0.0761976498179,0,"['num_0', 'num_0', 'num_0', 'num_0', 'num_0', 'num_0', 'num_0', 'num_0', 'num_0', 'num_0', 'num_7']",0,"[1.057790698017925, 3.9402437657117844, 4.556344751035795, 6.006875888910145, 7.341172092827037, 7.856741099385545, 8.18871238315478, 8.473446391522884, 8.723754186183214, 8.973814185941592, 9.673138043377548]",,2018_May_19_1226,60.0886723048,sequenceLearningTask,001,100,
min1.png,min2.png,min3.png,min4.png,allBlank.png,,,,['num_1'],,,,,,0,0,0,0,,,,,,,,,['num_1'],1,0.074360113591,1,['num_1'],0,[3.4866041189525276],,2018_May_19_1226,60.0886723048,sequenceLearningTask,001,100,
min1.png,min2.png,min3.png,min4.png,allBlank.png,,,,['num_4'],,,,,,0,0,0,0,,,,,,,,,['num_4'],1,0.0799436965026,1,['num_4'],0,[1.148239407222718],,2018_May_19_1226,60.0886723048,sequenceLearningTask,001,100,
min1.png,min2.png,min3.png,min4.png,allBlank.png,,,,['num_0'],,,,,,0,0,0,0,,,,,,,,,['num_0'],1,0.072045449866,0,"['num_1', 'num_0']",0,"[0.0003154866863042116, 0.8389109673444182]",,2018_May_19_1226,60.0886723048,sequenceLearningTask,001,100,
min1.png,min2.png,min3.png,min4.png,allBlank.png,,,,['num_0'],,,,,,0,0,0,0,,,,,,,,,['num_0'],1,0.0581841336098,1,['num_0'],0,[0.6859991557430476],,2018_May_19_1226,60.0886723048,sequenceLearningTask,001,100,
min1.png,min2.png,min3.png,min4.png,allBlank.png,,,,['num_4'],,,,,,0,0,0,0,,,,,,,,,['num_4'],1,0.0585500816815,1,['num_4'],0,[2.5179341316688806],,2018_May_19_1226,60.0886723048,sequenceLearningTask,001,100,
min1.png,min2.png,min3.png,min4.png,allBlank.png,,,,['num_1'],,,,,,0,0,0,0,,,,,,,,,['num_1'],1,0.060854078969,1,['num_1'],0,[0.8321536425501108],,2018_May_19_1226,60.0886723048,sequenceLearningTask,001,100,
min1.png,min2.png,min3.png,min4.png,allBlank.png,,,,['num_0'],,,,,,0,0,0,0,,,,,,,,,['num_0'],1,0.0523605509661,0,"['num_1', 'num_0']",0,"[0.0003007175400853157, 0.6245497954078019]",,2018_May_19_1226,60.0886723048,sequenceLearningTask,001,100,
min1.png,min2.png,min3.png,min4.png,allBlank.png,,,,['num_7'],,,,,,0,1,1,1,,,,,,,,,['num_7'],2,0.0551260861102,1,['num_7'],0,[0.7552298395894468],,2018_May_19_1226,60.0886723048,sequenceLearningTask,001,100,
min1.png,min2.png,min3.png,min4.png,allBlank.png,,,,['num_1'],,,,,,0,1,1,1,,,,,,,,,['num_1'],2,0.0592302859295,1,['num_1'],0,[0.8173569426871836],,2018_May_19_1226,60.0886723048,sequenceLearningTask,001,100,
min1.png,min2.png,min3.png,min4.png,allBlank.png,,,,['num_4'],,,,,,0,1,1,1,,,,,,,,,['num_4'],2,0.0565964430571,1,['num_4'],0,[0.622553079854697],,2018_May_19_1226,60.0886723048,sequenceLearningTask,001,100,
min1.png,min2.png,min3.png,min4.png,allBlank.png,,,,['num_0'],,,,,,0,1,1,1,,,,,,,,,['num_0'],2,0.0518473207485,1,['num_0'],0,[0.8259862654376775],,2018_May_19_1226,60.0886723048,sequenceLearningTask,001,100,
min1.png,min2.png,min3.png,min4.png,allBlank.png,,,,['num_0'],,,,,,0,1,1,1,,,,,,,,,['num_0'],2,0.0513783982024,1,['num_0'],0,[0.9772508998867124],,2018_May_19_1226,60.0886723048,sequenceLearningTask,001,100,
min1.png,min2.png,min3.png,min4.png,allBlank.png,,,,['num_4'],,,,,,0,1,1,1,,,,,,,,,['num_4'],2,0.0537706003524,1,['num_4'],0,[0.8732994380407035],,2018_May_19_1226,60.0886723048,sequenceLearningTask,001,100,
min1.png,min2.png,min3.png,min4.png,allBlank.png,,,,['num_1'],,,,,,0,1,1,1,,,,,,,,,['num_1'],2,0.0529611655511,1,['num_1'],0,[0.7748359695542604],,2018_May_19_1226,60.0886723048,sequenceLearningTask,001,100,
min1.png,min2.png,min3.png,min4.png,allBlank.png,,,,['num_0'],,,,,,0,1,1,1,,,,,,,,,['num_0'],2,0.0598177723587,1,['num_0'],0,[0.7680847982410342],,2018_May_19_1226,60.0886723048,sequenceLearningTask,001,100,
min1.png,min2.png,min3.png,min4.png,allBlank.png,,,,['num_7'],,,,,,0,2,2,2,,,,,,,,,['num_7'],3,0.0560622899793,1,['num_7'],0,[0.6363118323497474],,2018_May_19_1226,60.0886723048,sequenceLearningTask,001,100,
min1.png,min2.png,min3.png,min4.png,allBlank.png,,,,['num_1'],,,,,,0,2,2,2,,,,,,,,,['num_1'],3,0.0554682395887,1,['num_1'],0,[0.9715877273119986],,2018_May_19_1226,60.0886723048,sequenceLearningTask,001,100,
min1.png,min2.png,min3.png,min4.png,allBlank.png,,,,['num_4'],,,,,,0,2,2,2,,,,,,,,,['num_4'],3,0.052061063936,0,"['num_1', 'num_4']",0,"[0.0002826661802828312, 0.89270085003227]",,2018_May_19_1226,60.0886723048,sequenceLearningTask,001,100,
min1.png,min2.png,min3.png,min4.png,allBlank.png,,,,['num_0'],,,,,,0,2,2,2,,,,,,,,,['num_0'],3,0.0498522461858,1,['num_0'],0,[0.5778700581286103],,2018_May_19_1226,60.0886723048,sequenceLearningTask,001,100,
min1.png,min2.png,min3.png,min4.png,allBlank.png,,,,['num_0'],,,,,,0,2,2,2,,,,,,,,,['num_0'],3,0.0548799324315,1,['num_0'],0,[0.5230332023929805],,2018_May_19_1226,60.0886723048,sequenceLearningTask,001,100,
min1.png,min2.png,min3.png,min4.png,allBlank.png,,,,['num_4'],,,,,,0,2,2,2,,,,,,,,,['num_4'],3,0.0517853719648,1,['num_4'],0,[0.8930544906761497],,2018_May_19_1226,60.0886723048,sequenceLearningTask,001,100,
min1.png,min2.png,min3.png,min4.png,allBlank.png,,,,['num_1'],,,,,,0,2,2,2,,,,,,,,,['num_1'],3,0.0581061849371,0,"['num_1', 'num_4', 'num_1']",0,"[0.0002802046947181225, 0.25250020204111934, 0.6699811241123825]",,2018_May_19_1226,60.0886723048,sequenceLearningTask,001,100,
min1.png,min2.png,min3.png,min4.png,allBlank.png,,,,['num_0'],,,,,,0,2,2,2,,,,,,,,,['num_0'],3,0.0592389013618,1,['num_0'],0,[0.9171906658448279],,2018_May_19_1226,60.0886723048,sequenceLearningTask,001,100,
min1.png,min2.png,min3.png,min4.png,allBlank.png,,,,['num_7'],,,,,,0,3,3,3,,,,,,,,,['num_7'],4,0.0520085513126,1,['num_7'],0,[0.9241678882390261],,2018_May_19_1226,60.0886723048,sequenceLearningTask,001,100,
min1.png,min2.png,min3.png,min4.png,allBlank.png,,,,['num_1'],,,,,,0,3,3,3,,,,,,,,,['num_1'],4,0.0594510037918,0,"['num_0', 'num_4', 'num_4', 'num_1', 'num_4', 'num_1', 'num_1']",0,"[0.634639629162848, 1.567788019310683, 1.9199077910743654, 3.018466438865289, 3.334579690825194]",,2018_May_19_1226,60.0886723048,sequenceLearningTask,001,100,
min1.png,min2.png,min3.png,min4.png,allBlank.png,,,,['num_4'],,,,,,0,3,3,3,,,,,,,,,['num_4'],4,0.0608614636585,0,"['num_1', 'num_1', 'num_4']",0,"[0.5658868933096528, 1.1821831604465842, 1.565767508931458]",,2018_May_19_1226,60.0886723048,sequenceLearningTask,001,100,
min1.png,min2.png,min3.png,min4.png,allBlank.png,,,,['num_0'],,,,,,0,3,3,3,,,,,,,,,['num_0'],4,0.0579900823068,0,"['num_1', 'num_0', 'num_0']",0,"[0.6029424373991787, 1.936592078069225]",,2018_May_19_1226,60.0886723048,sequenceLearningTask,001,100,
min1.png,min2.png,min3.png,min4.png,allBlank.png,,,,['num_0'],,,,,,0,3,3,3,,,,,,,,,['num_0'],4,0.0543519333005,0,"['num_1', 'num_0']",0,"[0.8736177966929972, 0.9059106798376888]",,2018_May_19_1226,60.0886723048,sequenceLearningTask,001,100,
min1.png,min2.png,min3.png,min4.png,allBlank.png,,,,['num_4'],,,,,,0,3,3,3,,,,,,,,,['num_4'],4,0.0548643427901,0,"['num_0', 'num_4']",0,"[0.09013937623240054, 1.0896240947768092]",,2018_May_19_1226,60.0886723048,sequenceLearningTask,001,100,
min1.png,min2.png,min3.png,min4.png,allBlank.png,,,,['num_1'],,,,,,0,3,3,3,,,,,,,,,['num_1'],4,0.0579457748681,1,['num_1'],0,[1.1851505413651466],,2018_May_19_1226,60.0886723048,sequenceLearningTask,001,100,
min1.png,min2.png,min3.png,min4.png,allBlank.png,,,,['num_0'],,,,,,0,3,3,3,,,,,,,,,['num_0'],4,0.0553894701879,1,['num_0'],0,[0.9529210836626589],,2018_May_19_1226,60.0886723048,sequenceLearningTask,001,100,
min1.png,min2.png,min3.png,min4.png,allBlank.png,,,,['num_7'],,,,,,0,4,4,4,,,,,,,,,['num_7'],5,0.0485923504457,1,['num_7'],0,[1.9448968882206827],,2018_May_19_1226,60.0886723048,sequenceLearningTask,001,100,
min1.png,min2.png,min3.png,min4.png,allBlank.png,,,,['num_1'],,,,,,0,4,4,4,,,,,,,,,['num_1'],5,0.0530883448664,1,['num_1'],0,[0.9405407912563533],,2018_May_19_1226,60.0886723048,sequenceLearningTask,001,100,
min1.png,min2.png,min3.png,min4.png,allBlank.png,,,,['num_4'],,,,,,0,4,4,4,,,,,,,,,['num_4'],5,0.0532331652939,1,['num_4'],0,[0.9077449340838939],,2018_May_19_1226,60.0886723048,sequenceLearningTask,001,100,
min1.png,min2.png,min3.png,min4.png,allBlank.png,,,,['num_0'],,,,,,0,4,4,4,,,,,,,,,['num_0'],5,0.0517656798474,1,['num_0'],0,[0.4763637213036418],,2018_May_19_1226,60.0886723048,sequenceLearningTask,001,100,
min1.png,min2.png,min3.png,min4.png,allBlank.png,,,,['num_0'],,,,,,0,4,4,4,,,,,,,,,['num_0'],5,0.0554702908266,1,['num_0'],0,[0.5556341880001128],,2018_May_19_1226,60.0886723048,sequenceLearningTask,001,100,
min1.png,min2.png,min3.png,min4.png,allBlank.png,,,,['num_4'],,,,,,0,4,4,4,,,,,,,,,['num_4'],5,0.0513751162216,0,"['num_1', 'num_4']",0,"[0.8097421829588711, 1.3763642548583448]",,2018_May_19_1226,60.0886723048,sequenceLearningTask,001,100,
min1.png,min2.png,min3.png,min4.png,allBlank.png,,,,['num_1'],,,,,,0,4,4,4,,,,,,,,,['num_1'],5,0.0552622908726,1,['num_1'],0,[0.9222392751835287],,2018_May_19_1226,60.0886723048,sequenceLearningTask,001,100,
min1.png,min2.png,min3.png,min4.png,allBlank.png,,,,['num_0'],,,,,,0,4,4,4,,,,,,,,,['num_0'],5,0.0597792086191,0,"['num_1', 'num_0']",0,"[0.6668652303051203, 1.0692212479189038]",,2018_May_19_1226,60.0886723048,sequenceLearningTask,001,100,
min1.png,min2.png,min3.png,min4.png,allBlank.png,,,,['num_7'],,,,,,0,5,5,5,,,,,,,,,['num_7'],6,0.0536889594514,1,['num_7'],0,[0.789496464189142],,2018_May_19_1226,60.0886723048,sequenceLearningTask,001,100,
min1.png,min2.png,min3.png,min4.png,allBlank.png,,,,['num_1'],,,,,,0,5,5,5,,,,,,,,,['num_1'],6,0.0541168563068,1,['num_1'],0,[1.341759989503771],,2018_May_19_1226,60.0886723048,sequenceLearningTask,001,100,
min1.png,min2.png,min3.png,min4.png,allBlank.png,,,,['num_4'],,,,,,0,5,5,5,,,,,,,,,['num_4'],6,0.0516754235141,1,['num_4'],0,[0.7255835172254592],,2018_May_19_1226,60.0886723048,sequenceLearningTask,001,100,
min1.png,min2.png,min3.png,min4.png,allBlank.png,,,,['num_0'],,,,,,0,5,5,5,,,,,,,,,['num_0'],6,0.0549459836911,1,['num_0'],0,[0.5219439729116857],,2018_May_19_1226,60.0886723048,sequenceLearningTask,001,100,
min1.png,min2.png,min3.png,min4.png,allBlank.png,,,,['num_0'],,,,,,0,5,5,5,,,,,,,,,['num_0'],6,0.0517365518026,1,['num_0'],0,[0.5605991049669683],,2018_May_19_1226,60.0886723048,sequenceLearningTask,001,100,
min1.png,min2.png,min3.png,min4.png,allBlank.png,,,,['num_4'],,,,,,0,5,5,5,,,,,,,,,['num_4'],6,0.0514387057628,1,['num_4'],0,[0.6755388607271016],,2018_May_19_1226,60.0886723048,sequenceLearningTask,001,100,
min1.png,min2.png,min3.png,min4.png,allBlank.png,,,,['num_1'],,,,,,0,5,5,5,,,,,,,,,['num_1'],6,0.0611748991068,1,['num_1'],0,[0.9165830770507455],,2018_May_19_1226,60.0886723048,sequenceLearningTask,001,100,
min1.png,min2.png,min3.png,min4.png,allBlank.png,,,,['num_0'],,,,,,0,5,5,5,,,,,,,,,['num_0'],6,0.0540622924455,1,['num_0'],0,[0.4233229660894722],,2018_May_19_1226,60.0886723048,sequenceLearningTask,001,100,
min1.png,min2.png,min3.png,min4.png,allBlank.png,,,,['num_7'],,,,,,0,6,6,6,,,,,,,,,['num_7'],7,0.0581065951847,1,['num_7'],0,[0.7679485934786499],,2018_May_19_1226,60.0886723048,sequenceLearningTask,001,100,
min1.png,min2.png,min3.png,min4.png,allBlank.png,,,,['num_1'],,,,,,0,6,6,6,,,,,,,,,['num_1'],7,0.0503334763926,1,['num_1'],0,[1.077187187038362],,2018_May_19_1226,60.0886723048,sequenceLearningTask,001,100,
min1.png,min2.png,min3.png,min4.png,allBlank.png,,,,['num_4'],,,,,,0,6,6,6,,,,,,,,,['num_4'],7,0.0589947993867,1,['num_4'],0,[1.0530678320210427],,2018_May_19_1226,60.0886723048,sequenceLearningTask,001,100,
min1.png,min2.png,min3.png,min4.png,allBlank.png,,,,['num_0'],,,,,,0,6,6,6,,,,,,,,,['num_0'],7,0.0566510071512,1,['num_0'],0,[0.487851707264781],,2018_May_19_1226,60.0886723048,sequenceLearningTask,001,100,
min1.png,min2.png,min3.png,min4.png,allBlank.png,,,,['num_0'],,,,,,0,6,6,6,,,,,,,,,['num_0'],7,0.0512171676382,1,['num_0'],0,[0.7110645608045161],,2018_May_19_1226,60.0886723048,sequenceLearningTask,001,100,
min1.png,min2.png,min3.png,min4.png,allBlank.png,,,,['num_4'],,,,,,0,6,6,6,,,,,,,,,['num_4'],7,0.0586214663927,0,"['num_1', 'num_1', 'num_4']",0,"[0.7341012503020465, 1.2846408805344254, 1.3184755055699497]",,2018_May_19_1226,60.0886723048,sequenceLearningTask,001,100,
min1.png,min2.png,min3.png,min4.png,allBlank.png,,,,['num_1'],,,,,,0,6,6,6,,,,,,,,,['num_1'],7,0.053652446717,1,['num_1'],0,[0.9075246267020702],,2018_May_19_1226,60.0886723048,sequenceLearningTask,001,100,
min1.png,min2.png,min3.png,min4.png,allBlank.png,,,,['num_0'],,,,,,0,6,6,6,,,,,,,,,['num_0'],7,0.0541193180252,0,"['num_4', 'num_0']",0,"[0.3071717245038599, 0.8401470684912056]",,2018_May_19_1226,60.0886723048,sequenceLearningTask,001,100,
min1.png,min2.png,min3.png,min4.png,allBlank.png,,,,['num_7'],,,,,,0,7,7,7,,,,,,,,,['num_7'],8,0.053517062217,1,['num_7'],0,[0.7551625578198582],,2018_May_19_1226,60.0886723048,sequenceLearningTask,001,100,
min1.png,min2.png,min3.png,min4.png,allBlank.png,,,,['num_1'],,,,,,0,7,7,7,,,,,,,,,['num_1'],8,0.0577127495781,1,['num_1'],0,[0.752989842556417],,2018_May_19_1226,60.0886723048,sequenceLearningTask,001,100,
min1.png,min2.png,min3.png,min4.png,allBlank.png,,,,['num_4'],,,,,,0,7,7,7,,,,,,,,,['num_4'],8,0.060187823372,1,['num_4'],0,[0.6009551577735692],,2018_May_19_1226,60.0886723048,sequenceLearningTask,001,100,
min1.png,min2.png,min3.png,min4.png,allBlank.png,,,,['num_0'],,,,,,0,7,7,7,,,,,,,,,['num_0'],8,0.0621673080605,0,"['num_1', 'num_0']",0,"[0.5153581348713487, 0.9149317969568074]",,2018_May_19_1226,60.0886723048,sequenceLearningTask,001,100,
min1.png,min2.png,min3.png,min4.png,allBlank.png,,,,['num_0'],,,,,,0,7,7,7,,,,,,,,,['num_0'],8,0.0575917239767,1,['num_0'],0,[0.5866027653682977],,2018_May_19_1226,60.0886723048,sequenceLearningTask,001,100,
min1.png,min2.png,min3.png,min4.png,allBlank.png,,,,['num_4'],,,,,,0,7,7,7,,,,,,,,,['num_4'],8,0.0520393205807,1,['num_4'],0,[0.9589243582449853],,2018_May_19_1226,60.0886723048,sequenceLearningTask,001,100,
min1.png,min2.png,min3.png,min4.png,allBlank.png,,,,['num_1'],,,,,,0,7,7,7,,,,,,,,,['num_1'],8,0.0494145033881,1,['num_1'],0,[0.711059637600556],,2018_May_19_1226,60.0886723048,sequenceLearningTask,001,100,
min1.png,min2.png,min3.png,min4.png,allBlank.png,,,,['num_0'],,,,,,0,7,7,7,,,,,,,,,['num_0'],8,0.0517057823017,1,['num_0'],0,[0.6099089928902686],,2018_May_19_1226,60.0886723048,sequenceLearningTask,001,100,
min1.png,min2.png,min3.png,min4.png,allBlank.png,,,,['num_7'],,,,,,0,8,8,8,,,,,,,,,['num_7'],9,0.0518579874188,1,['num_7'],0,[0.8076868008356541],,2018_May_19_1226,60.0886723048,sequenceLearningTask,001,100,
min1.png,min2.png,min3.png,min4.png,allBlank.png,,,,['num_1'],,,,,,0,8,8,8,,,,,,,,,['num_1'],9,0.0548512146343,1,['num_1'],0,[0.5392022081650794],,2018_May_19_1226,60.0886723048,sequenceLearningTask,001,100,
min1.png,min2.png,min3.png,min4.png,allBlank.png,,,,['num_4'],,,,,,0,8,8,8,,,,,,,,,['num_4'],9,0.0514748084825,0,"['num_1', 'num_4']",0,"[0.39288033707998693, 0.876142101129517]",,2018_May_19_1226,60.0886723048,sequenceLearningTask,001,100,
min1.png,min2.png,min3.png,min4.png,allBlank.png,,,,['num_0'],,,,,,0,8,8,8,,,,,,,,,['num_0'],9,0.0514694752637,1,['num_0'],0,[0.777523145545274],,2018_May_19_1226,60.0886723048,sequenceLearningTask,001,100,
min1.png,min2.png,min3.png,min4.png,allBlank.png,,,,['num_0'],,,,,,0,8,8,8,,,,,,,,,['num_0'],9,0.0588384917937,1,['num_0'],0,[0.5351460080128163],,2018_May_19_1226,60.0886723048,sequenceLearningTask,001,100,
min1.png,min2.png,min3.png,min4.png,allBlank.png,,,,['num_4'],,,,,,0,8,8,8,,,,,,,,,['num_4'],9,0.0508011681959,1,['num_4'],0,[0.7954673285130411],,2018_May_19_1226,60.0886723048,sequenceLearningTask,001,100,
min1.png,min2.png,min3.png,min4.png,allBlank.png,,,,['num_1'],,,,,,0,8,8,8,,,,,,,,,['num_1'],9,0.0532397292554,1,['num_1'],0,[1.1578906774520874],,2018_May_19_1226,60.0886723048,sequenceLearningTask,001,100,
min1.png,min2.png,min3.png,min4.png,allBlank.png,,,,['num_0'],,,,,,0,8,8,8,,,,,,,,,['num_0'],9,0.0522784995846,1,['num_0'],0,[1.3594350449275225],,2018_May_19_1226,60.0886723048,sequenceLearningTask,001,100,
min1.png,min2.png,min3.png,min4.png,allBlank.png,,,,['num_7'],,,,,,0,9,9,9,,,,,,,,,['num_7'],10,0.0506325531751,1,['num_7'],0,[0.6249169744551182],,2018_May_19_1226,60.0886723048,sequenceLearningTask,001,100,
min1.png,min2.png,min3.png,min4.png,allBlank.png,,,,['num_1'],,,,,,0,9,9,9,,,,,,,,,['num_1'],10,0.0594924397301,0,"['num_0', 'num_1']",0,"[0.7002120614051819, 1.184778439346701]",,2018_May_19_1226,60.0886723048,sequenceLearningTask,001,100,
min1.png,min2.png,min3.png,min4.png,allBlank.png,,,,['num_4'],,,,,,0,9,9,9,,,,,,,,,['num_4'],10,0.0535490624607,1,['num_4'],0,[0.6737558888271451],,2018_May_19_1226,60.0886723048,sequenceLearningTask,001,100,
min1.png,min2.png,min3.png,min4.png,allBlank.png,,,,['num_0'],,,,,,0,9,9,9,,,,,,,,,['num_0'],10,0.0542760358658,1,['num_0'],0,[0.8228408333379775],,2018_May_19_1226,60.0886723048,sequenceLearningTask,001,100,
min1.png,min2.png,min3.png,min4.png,allBlank.png,,,,['num_0'],,,,,,0,9,9,9,,,,,,,,,['num_0'],10,0.0510362447239,1,['num_0'],0,[0.576241752365604],,2018_May_19_1226,60.0886723048,sequenceLearningTask,001,100,
min1.png,min2.png,min3.png,min4.png,allBlank.png,,,,['num_4'],,,,,,0,9,9,9,,,,,,,,,['num_4'],10,0.0549057787284,1,['num_4'],0,[0.7388901675585657],,2018_May_19_1226,60.0886723048,sequenceLearningTask,001,100,
min1.png,min2.png,min3.png,min4.png,allBlank.png,,,,['num_1'],,,,,,0,9,9,9,,,,,,,,,['num_1'],10,0.0494239393156,1,['num_1'],0,[0.5783767241518945],,2018_May_19_1226,60.0886723048,sequenceLearningTask,001,100,
min1.png,min2.png,min3.png,min4.png,allBlank.png,,,,['num_0'],,,,,,0,9,9,9,,,,,,,,,['num_0'],10,0.0533890624065,1,['num_0'],0,[0.6062195615377277],,2018_May_19_1226,60.0886723048,sequenceLearningTask,001,100,
min1.png,min2.png,min3.png,min4.png,allBlank.png,,,,['num_7'],,,,,,0,0,0,0,,,,,,,,,['num_7'],1,0.0602231053635,1,['num_7'],0,[1.1341590145602822],,2018_May_19_1226,60.0886723048,sequenceLearningTask,001,100,
min1.png,min2.png,min3.png,min4.png,allBlank.png,,,,['num_1'],,,,,,0,0,0,0,,,,,,,,,['num_1'],1,0.0592347988859,1,['num_1'],0,[0.817659301450476],,2018_May_19_1226,60.0886723048,sequenceLearningTask,001,100,
min1.png,min2.png,min3.png,min4.png,allBlank.png,,,,['num_4'],,,,,,0,0,0,0,,,,,,,,,['num_4'],1,0.0576643394306,1,['num_4'],0,[0.7365558112505823],,2018_May_19_1226,60.0886723048,sequenceLearningTask,001,100,
min1.png,min2.png,min3.png,min4.png,allBlank.png,,,,['num_0'],,,,,,0,0,0,0,,,,,,,,,['num_0'],1,0.052436448168,1,['num_0'],0,[0.6591733426321298],,2018_May_19_1226,60.0886723048,sequenceLearningTask,001,100,
min1.png,min2.png,min3.png,min4.png,allBlank.png,,,,['num_0'],,,,,,0,0,0,0,,,,,,,,,['num_0'],1,0.0582883383613,1,['num_0'],0,[0.6027196685317904],,2018_May_19_1226,60.0886723048,sequenceLearningTask,001,100,
min1.png,min2.png,min3.png,min4.png,allBlank.png,,,,['num_4'],,,,,,0,0,0,0,,,,,,,,,['num_4'],1,0.0537291644141,1,['num_4'],0,[0.7743760726880282],,2018_May_19_1226,60.0886723048,sequenceLearningTask,001,100,
min1.png,min2.png,min3.png,min4.png,allBlank.png,,,,['num_1'],,,,,,0,0,0,0,,,,,,,,,['num_1'],1,0.0549898808822,1,['num_1'],0,[0.5549002401530743],,2018_May_19_1226,60.0886723048,sequenceLearningTask,001,100,
min1.png,min2.png,min3.png,min4.png,allBlank.png,,,,['num_0'],,,,,,0,0,0,0,,,,,,,,,['num_0'],1,0.0572626986541,1,['num_0'],0,[0.8192080173175782],,2018_May_19_1226,60.0886723048,sequenceLearningTask,001,100,
min1.png,min2.png,min3.png,min4.png,allBlank.png,,,,['num_7'],,,,,,0,1,1,1,,,,,,,,,['num_7'],2,0.053247113945,1,['num_7'],0,[0.7878952354658395],,2018_May_19_1226,60.0886723048,sequenceLearningTask,001,100,
min1.png,min2.png,min3.png,min4.png,allBlank.png,,,,['num_1'],,,,,,0,1,1,1,,,,,,,,,['num_1'],2,0.0506575785112,1,['num_1'],0,[0.7606608073692769],,2018_May_19_1226,60.0886723048,sequenceLearningTask,001,100,
min1.png,min2.png,min3.png,min4.png,allBlank.png,,,,['num_4'],,,,,,0,1,1,1,,,,,,,,,['num_4'],2,0.0522887560073,1,['num_4'],0,[0.7583358872216195],,2018_May_19_1226,60.0886723048,sequenceLearningTask,001,100,
min1.png,min2.png,min3.png,min4.png,allBlank.png,,,,['num_0'],,,,,,0,1,1,1,,,,,,,,,['num_0'],2,0.0522834227886,1,['num_0'],0,[0.6100357621908188],,2018_May_19_1226,60.0886723048,sequenceLearningTask,001,100,
min1.png,min2.png,min3.png,min4.png,allBlank.png,,,,['num_0'],,,,,,0,1,1,1,,,,,,,,,['num_0'],2,0.094696088694,1,['num_0'],0,[0.4168753845151514],,2018_May_19_1226,60.0886723048,sequenceLearningTask,001,100,
min1.png,min2.png,min3.png,min4.png,allBlank.png,,,,['num_4'],,,,,,0,1,1,1,,,,,,,,,['num_4'],2,0.056212033378,1,['num_4'],0,[0.737624938134104],,2018_May_19_1226,60.0886723048,sequenceLearningTask,001,100,
min1.png,min2.png,min3.png,min4.png,allBlank.png,,,,['num_1'],,,,,,0,1,1,1,,,,,,,,,['num_1'],2,0.0527363454457,1,['num_1'],0,[0.5084108614828438],,2018_May_19_1226,60.0886723048,sequenceLearningTask,001,100,
min1.png,min2.png,min3.png,min4.png,allBlank.png,,,,['num_0'],,,,,,0,1,1,1,,,,,,,,,['num_0'],2,0.0506112198345,1,['num_0'],0,[0.6935449924785644],,2018_May_19_1226,60.0886723048,sequenceLearningTask,001,100,
min1.png,min2.png,min3.png,min4.png,allBlank.png,,,,['num_7'],,,,,,0,2,2,2,,,,,,,,,['num_7'],3,0.0493484521285,1,['num_7'],0,[0.5772444177418947],,2018_May_19_1226,60.0886723048,sequenceLearningTask,001,100,
min1.png,min2.png,min3.png,min4.png,allBlank.png,,,,['num_1'],,,,,,0,2,2,2,,,,,,,,,['num_1'],3,0.0532967548352,0,"['num_4', 'num_4', 'num_1']",0,"[0.5250459178350866, 1.074642369756475, 1.1906336115207523]",,2018_May_19_1226,60.0886723048,sequenceLearningTask,001,100,
min1.png,min2.png,min3.png,min4.png,allBlank.png,,,,['num_4'],,,,,,0,2,2,2,,,,,,,,,['num_4'],3,0.0486370683648,1,['num_4'],0,[0.7288643338251859],,2018_May_19_1226,60.0886723048,sequenceLearningTask,001,100,
min1.png,min2.png,min3.png,min4.png,allBlank.png,,,,['num_0'],,,,,,0,2,2,2,,,,,,,,,['num_0'],3,0.050463527441,1,['num_0'],0,[0.7113250731490552],,2018_May_19_1226,60.0886723048,sequenceLearningTask,001,100,
min1.png,min2.png,min3.png,min4.png,allBlank.png,,,,['num_0'],,,,,,0,2,2,2,,,,,,,,,['num_0'],3,0.0497878361493,1,['num_0'],0,[0.47835346264764667],,2018_May_19_1226,60.0886723048,sequenceLearningTask,001,100,
min1.png,min2.png,min3.png,min4.png,allBlank.png,,,,['num_4'],,,,,,0,2,2,2,,,,,,,,,['num_4'],3,0.0528192170896,1,['num_4'],0,[0.7406198063399643],,2018_May_19_1226,60.0886723048,sequenceLearningTask,001,100,
min1.png,min2.png,min3.png,min4.png,allBlank.png,,,,['num_1'],,,,,,0,2,2,2,,,,,,,,,['num_1'],3,0.0516229108907,1,['num_1'],0,[0.5921875787898898],,2018_May_19_1226,60.0886723048,sequenceLearningTask,001,100,
min1.png,min2.png,min3.png,min4.png,allBlank.png,,,,['num_0'],,,,,,0,2,2,2,,,,,,,,,['num_0'],3,0.0482473252341,1,['num_0'],0,[0.5290397589560598],,2018_May_19_1226,60.0886723048,sequenceLearningTask,001,100,
min1.png,min2.png,min3.png,min4.png,allBlank.png,,,,['num_7'],,,,,,0,3,3,3,,,,,,,,,['num_7'],4,0.0561533668078,1,['num_7'],0,[0.8042566510848701],,2018_May_19_1226,60.0886723048,sequenceLearningTask,001,100,
min1.png,min2.png,min3.png,min4.png,allBlank.png,,,,['num_1'],,,,,,0,3,3,3,,,,,,,,,['num_1'],4,0.0514169624075,0,"['num_0', 'num_1']",0,"[0.6765435775741935, 1.210036254255101]",,2018_May_19_1226,60.0886723048,sequenceLearningTask,001,100,
min1.png,min2.png,min3.png,min4.png,allBlank.png,,,,['num_4'],,,,,,0,3,3,3,,,,,,,,,['num_4'],4,0.0517279363703,0,"['num_1', 'num_4']",0,"[0.09264562954194844, 0.7598739366512746]",,2018_May_19_1226,60.0886723048,sequenceLearningTask,001,100,
min1.png,min2.png,min3.png,min4.png,allBlank.png,,,,['num_0'],,,,,,0,3,3,3,,,,,,,,,['num_0'],4,0.0552627011202,1,['num_0'],0,[0.6220447728410363],,2018_May_19_1226,60.0886723048,sequenceLearningTask,001,100,
min1.png,min2.png,min3.png,min4.png,allBlank.png,,,,['num_0'],,,,,,0,3,3,3,,,,,,,,,['num_0'],4,0.0502986048814,1,['num_0'],0,[0.7116692778654397],,2018_May_19_1226,60.0886723048,sequenceLearningTask,001,100,
min1.png,min2.png,min3.png,min4.png,allBlank.png,,,,['num_4'],,,,,,0,3,3,3,,,,,,,,,['num_4'],4,0.057612236822,1,['num_4'],0,[0.6680845110677183],,2018_May_19_1226,60.0886723048,sequenceLearningTask,001,100,
min1.png,min2.png,min3.png,min4.png,allBlank.png,,,,['num_1'],,,,,,0,3,3,3,,,,,,,,,['num_1'],4,0.056913160719,1,['num_1'],0,[0.8380568146239966],,2018_May_19_1226,60.0886723048,sequenceLearningTask,001,100,
min1.png,min2.png,min3.png,min4.png,allBlank.png,,,,['num_0'],,,,,,0,3,3,3,,,,,,,,,['num_0'],4,0.051479321206,1,['num_0'],0,[0.6742633753456175],,2018_May_19_1226,60.0886723048,sequenceLearningTask,001,100,
min1.png,min2.png,min3.png,min4.png,allBlank.png,,,,['num_7'],,,,,,0,4,4,4,,,,,,,,,['num_7'],5,0.0610678221565,1,['num_7'],0,[0.6635708755347878],,2018_May_19_1226,60.0886723048,sequenceLearningTask,001,100,
min1.png,min2.png,min3.png,min4.png,allBlank.png,,,,['num_1'],,,,,,0,4,4,4,,,,,,,,,['num_1'],5,0.0592134655453,1,['num_1'],0,[0.6524656584952027],,2018_May_19_1226,60.0886723048,sequenceLearningTask,001,100,
min1.png,min2.png,min3.png,min4.png,allBlank.png,,,,['num_4'],,,,,,0,4,4,4,,,,,,,,,['num_4'],5,0.0517788080033,1,['num_4'],0,[0.841990758664906],,2018_May_19_1226,60.0886723048,sequenceLearningTask,001,100,
min1.png,min2.png,min3.png,min4.png,allBlank.png,,,,['num_0'],,,,,,0,4,4,4,,,,,,,,,['num_0'],5,0.0551273166202,1,['num_0'],0,[0.6399048534221947],,2018_May_19_1226,60.0886723048,sequenceLearningTask,001,100,
min1.png,min2.png,min3.png,min4.png,allBlank.png,,,,['num_0'],,,,,,0,4,4,4,,,,,,,,,['num_0'],5,0.0567285455763,1,['num_0'],0,[0.5710655534639955],,2018_May_19_1226,60.0886723048,sequenceLearningTask,001,100,
min1.png,min2.png,min3.png,min4.png,allBlank.png,,,,['num_4'],,,,,,0,4,4,4,,,,,,,,,['num_4'],5,0.0564881355967,1,['num_4'],0,[0.6860619247891009],,2018_May_19_1226,60.0886723048,sequenceLearningTask,001,100,
min1.png,min2.png,min3.png,min4.png,allBlank.png,,,,['num_1'],,,,,,0,4,4,4,,,,,,,,,['num_1'],5,0.051235218998,0,"['num_4', 'num_4', 'num_1']",0,"[0.6597386752255261, 1.1263657931704074, 1.8256395992357284]",,2018_May_19_1226,60.0886723048,sequenceLearningTask,001,100,
min1.png,min2.png,min3.png,min4.png,allBlank.png,,,,['num_0'],,,,,,0,4,4,4,,,,,,,,,['num_0'],5,0.0564356227405,1,['num_0'],0,[0.5550163425505161],,2018_May_19_1226,60.0886723048,sequenceLearningTask,001,100,
min1.png,min2.png,min3.png,min4.png,allBlank.png,,,,['num_7'],,,,,,0,5,5,5,,,,,,,,,['num_7'],6,0.0537279339042,0,"['num_1', 'num_7']",0,"[0.00029456382617354393, 0.6887244856916368]",,2018_May_19_1226,60.0886723048,sequenceLearningTask,001,100,
min1.png,min2.png,min3.png,min4.png,allBlank.png,,,,['num_1'],,,,,,0,5,5,5,,,,,,,,,['num_1'],6,0.0559605464805,0,"['num_4', 'num_1']",0,"[0.5390409776009619, 1.038877900922671]",,2018_May_19_1226,60.0886723048,sequenceLearningTask,001,100,
min1.png,min2.png,min3.png,min4.png,allBlank.png,,,,['num_4'],,,,,,0,5,5,5,,,,,,,,,['num_4'],6,0.0557595212013,0,"['num_1', 'num_4']",0,"[1.055786187760532, 1.4730098792351782]",,2018_May_19_1226,60.0886723048,sequenceLearningTask,001,100,
min1.png,min2.png,min3.png,min4.png,allBlank.png,,,,['num_0'],,,,,,0,5,5,5,,,,,,,,,['num_0'],6,0.0587535686791,0,"['num_1', 'num_1', 'num_0']",0,"[0.0007954861503094435, 0.15136104449629784, 0.5017524079885334]",,2018_May_19_1226,60.0886723048,sequenceLearningTask,001,100,
min1.png,min2.png,min3.png,min4.png,allBlank.png,,,,['num_0'],,,,,,0,5,5,5,,,,,,,,,['num_0'],6,0.05055501475,0,"['num_1', 'num_0']",0,"[0.0002888203598558903, 0.4607986123301089]",,2018_May_19_1226,60.0886723048,sequenceLearningTask,001,100,
min1.png,min2.png,min3.png,min4.png,allBlank.png,,,,['num_4'],,,,,,0,5,5,5,,,,,,,,,['num_4'],6,0.0513783982024,1,['num_4'],0,[0.693365300539881],,2018_May_19_1226,60.0886723048,sequenceLearningTask,001,100,
min1.png,min2.png,min3.png,min4.png,allBlank.png,,,,['num_1'],,,,,,0,5,5,5,,,,,,,,,['num_1'],6,0.0211741277017,1,['num_1'],0,[1.0918948613107204],,2018_May_19_1226,60.0886723048,sequenceLearningTask,001,100,
min1.png,min2.png,min3.png,min4.png,allBlank.png,,,,['num_0'],,,,,,0,5,5,5,,,,,,,,,['num_0'],6,0.0583404409699,1,['num_0'],0,[0.8353154847864062],,2018_May_19_1226,60.0886723048,sequenceLearningTask,001,100,
min1.png,min2.png,min3.png,min4.png,allBlank.png,,,,['num_7'],,,,,,0,6,6,6,,,,,,,,,['num_7'],7,0.051256142091,1,['num_7'],0,[0.8412879903335124],,2018_May_19_1226,60.0886723048,sequenceLearningTask,001,100,
min1.png,min2.png,min3.png,min4.png,allBlank.png,,,,['num_1'],,,,,,0,6,6,6,,,,,,,,,['num_1'],7,0.0536988058593,0,"['num_4', 'num_4', 'num_1']",0,"[0.49027139670215547, 1.107150637311861, 1.1738143502734601]",,2018_May_19_1226,60.0886723048,sequenceLearningTask,001,100,
min1.png,min2.png,min3.png,min4.png,allBlank.png,,,,['num_4'],,,,,,0,6,6,6,,,,,,,,,['num_4'],7,0.0555560342036,1,['num_4'],0,[0.9060161157976836],,2018_May_19_1226,60.0886723048,sequenceLearningTask,001,100,
min1.png,min2.png,min3.png,min4.png,allBlank.png,,,,['num_0'],,,,,,0,6,6,6,,,,,,,,,['num_0'],7,0.0581980822608,1,['num_0'],0,[0.7187859872356057],,2018_May_19_1226,60.0886723048,sequenceLearningTask,001,100,
min1.png,min2.png,min3.png,min4.png,allBlank.png,,,,['num_0'],,,,,,0,6,6,6,,,,,,,,,['num_0'],7,0.0556393163279,1,['num_0'],0,[0.6366104984190315],,2018_May_19_1226,60.0886723048,sequenceLearningTask,001,100,
min1.png,min2.png,min3.png,min4.png,allBlank.png,,,,['num_4'],,,,,,0,6,6,6,,,,,,,,,['num_4'],7,0.0485226069577,0,"['num_1', 'num_4']",0,"[0.48044084454886615, 0.7799210911616683]",,2018_May_19_1226,60.0886723048,sequenceLearningTask,001,100,
min1.png,min2.png,min3.png,min4.png,allBlank.png,,,,['num_1'],,,,,,0,6,6,6,,,,,,,,,['num_1'],7,0.0544869073201,1,['num_1'],0,[1.1900768943596631],,2018_May_19_1226,60.0886723048,sequenceLearningTask,001,100,
min1.png,min2.png,min3.png,min4.png,allBlank.png,,,,['num_0'],,,,,,0,6,6,6,,,,,,,,,['num_0'],7,0.0526329609565,1,['num_0'],0,[0.8754360508173704],,2018_May_19_1226,60.0886723048,sequenceLearningTask,001,100,
min1.png,min2.png,min3.png,min4.png,allBlank.png,,,,['num_7'],,,,,,0,7,7,7,,,,,,,,,['num_7'],8,0.0526596275158,1,['num_7'],0,[0.9726556234527379],,2018_May_19_1226,60.0886723048,sequenceLearningTask,001,100,
min1.png,min2.png,min3.png,min4.png,allBlank.png,,,,['num_1'],,,,,,0,7,7,7,,,,,,,,,['num_1'],8,0.0535014725756,0,"['num_4', 'num_1']",0,"[0.7581504513509572, 1.2418319075368345]",,2018_May_19_1226,60.0886723048,sequenceLearningTask,001,100,
min1.png,min2.png,min3.png,min4.png,allBlank.png,,,,['num_4'],,,,,,0,7,7,7,,,,,,,,,['num_4'],8,0.0618501801509,1,['num_4'],0,[0.8136223834007978],,2018_May_19_1226,60.0886723048,sequenceLearningTask,001,100,
min1.png,min2.png,min3.png,min4.png,allBlank.png,,,,['num_0'],,,,,,0,7,7,7,,,,,,,,,['num_0'],8,0.050643630093,1,['num_0'],0,[0.4114501604344696],,2018_May_19_1226,60.0886723048,sequenceLearningTask,001,100,
min1.png,min2.png,min3.png,min4.png,allBlank.png,,,,['num_0'],,,,,,0,7,7,7,,,,,,,,,['num_0'],8,0.0590821835212,1,['num_0'],0,[0.3346736393868923],,2018_May_19_1226,60.0886723048,sequenceLearningTask,001,100,
min1.png,min2.png,min3.png,min4.png,allBlank.png,,,,['num_4'],,,,,,0,7,7,7,,,,,,,,,['num_4'],8,0.0514711162541,1,['num_4'],0,[0.6092936091590673],,2018_May_19_1226,60.0886723048,sequenceLearningTask,001,100,
min1.png,min2.png,min3.png,min4.png,allBlank.png,,,,['num_1'],,,,,,0,7,7,7,,,,,,,,,['num_1'],8,0.0492581955623,1,['num_1'],0,[0.7438866740558296],,2018_May_19_1226,60.0886723048,sequenceLearningTask,001,100,
min1.png,min2.png,min3.png,min4.png,allBlank.png,,,,['num_0'],,,,,,0,7,7,7,,,,,,,,,['num_0'],8,0.058452851139,1,['num_0'],0,[0.7189935767091811],,2018_May_19_1226,60.0886723048,sequenceLearningTask,001,100,
min1.png,min2.png,min3.png,min4.png,allBlank.png,,,,['num_7'],,,,,,0,8,8,8,,,,,,,,,['num_7'],9,0.0501788100228,0,"['num_4', 'num_7', 'num_4', 'num_4', 'num_7']",0,"[0.6771536280866712, 1.1950286829378456, 2.79480640636757, 3.1437298743985593]",,2018_May_19_1226,60.0886723048,sequenceLearningTask,001,100,
min1.png,min2.png,min3.png,min4.png,allBlank.png,,,,['num_1'],,,,,,0,8,8,8,,,,,,,,,['num_1'],9,0.0561020849273,1,['num_1'],0,[0.9384242810774595],,2018_May_19_1226,60.0886723048,sequenceLearningTask,001,100,
min1.png,min2.png,min3.png,min4.png,allBlank.png,,,,['num_4'],,,,,,0,8,8,8,,,,,,,,,['num_4'],9,0.0594809525646,0,"['num_1', 'num_4']",0,"[0.68414685013704, 0.901629249099642]",,2018_May_19_1226,60.0886723048,sequenceLearningTask,001,100,
min1.png,min2.png,min3.png,min4.png,allBlank.png,,,,['num_0'],,,,,,0,8,8,8,,,,,,,,,['num_0'],9,0.0597041316796,1,['num_0'],0,[0.5169532098807395],,2018_May_19_1226,60.0886723048,sequenceLearningTask,001,100,
min1.png,min2.png,min3.png,min4.png,allBlank.png,,,,['num_0'],,,,,,0,8,8,8,,,,,,,,,['num_0'],9,0.0571252629161,1,['num_0'],0,[0.4037980670109391],,2018_May_19_1226,60.0886723048,sequenceLearningTask,001,100,
min1.png,min2.png,min3.png,min4.png,allBlank.png,,,,['num_4'],,,,,,0,8,8,8,,,,,,,,,['num_4'],9,0.0576938777231,1,['num_4'],0,[0.7024163664318621],,2018_May_19_1226,60.0886723048,sequenceLearningTask,001,100,
min1.png,min2.png,min3.png,min4.png,allBlank.png,,,,['num_1'],,,,,,0,8,8,8,,,,,,,,,['num_1'],9,0.0507991169579,1,['num_1'],0,[0.8270209308248013],,2018_May_19_1226,60.0886723048,sequenceLearningTask,001,100,
min1.png,min2.png,min3.png,min4.png,allBlank.png,,,,['num_0'],,,,,,0,8,8,8,,,,,,,,,['num_0'],9,0.0528339862358,1,['num_0'],0,[0.6423060812521726],,2018_May_19_1226,60.0886723048,sequenceLearningTask,001,100,
min1.png,min2.png,min3.png,min4.png,allBlank.png,,,,['num_7'],,,,,,0,9,9,9,,,,,,,,,['num_7'],10,0.0516836286988,1,['num_7'],0,[1.1081766874995083],,2018_May_19_1226,60.0886723048,sequenceLearningTask,001,100,
min1.png,min2.png,min3.png,min4.png,allBlank.png,,,,['num_1'],,,,,,0,9,9,9,,,,,,,,,['num_1'],10,0.0562165461015,0,"['num_0', 'num_1']",0,"[1.6887326906435192, 2.4539592361543328]",,2018_May_19_1226,60.0886723048,sequenceLearningTask,001,100,
min1.png,min2.png,min3.png,min4.png,allBlank.png,,,,['num_4'],,,,,,0,9,9,9,,,,,,,,,['num_4'],10,0.0515461929608,1,['num_4'],0,[1.0901795814279467],,2018_May_19_1226,60.0886723048,sequenceLearningTask,001,100,
min1.png,min2.png,min3.png,min4.png,allBlank.png,,,,['num_0'],,,,,,0,9,9,9,,,,,,,,,['num_0'],10,0.0506768606137,1,['num_0'],0,[0.5104892179369926],,2018_May_19_1226,60.0886723048,sequenceLearningTask,001,100,
min1.png,min2.png,min3.png,min4.png,allBlank.png,,,,['num_0'],,,,,,0,9,9,9,,,,,,,,,['num_0'],10,0.0551724450197,1,['num_0'],0,[0.5409113343339413],,2018_May_19_1226,60.0886723048,sequenceLearningTask,001,100,
min1.png,min2.png,min3.png,min4.png,allBlank.png,,,,['num_4'],,,,,,0,9,9,9,,,,,,,,,['num_4'],10,0.0505587069783,1,['num_4'],0,[0.6936951463576406],,2018_May_19_1226,60.0886723048,sequenceLearningTask,001,100,
min1.png,min2.png,min3.png,min4.png,allBlank.png,,,,['num_1'],,,,,,0,9,9,9,,,,,,,,,['num_1'],10,0.0515543979127,1,['num_1'],0,[0.4770570539403707],,2018_May_19_1226,60.0886723048,sequenceLearningTask,001,100,
min1.png,min2.png,min3.png,min4.png,allBlank.png,,,,['num_0'],,,,,,0,9,9,9,,,,,,,,,['num_0'],10,0.0536844467279,0,"['num_0', 'num_0']",0,"[0.0002855381462723017, 0.5075521958060563]",,2018_May_19_1226,60.0886723048,sequenceLearningTask,001,100,
min1.png,min2.png,min3.png,min4.png,images/allBlank.png,images/min2.png,'num_4',"['num_7', 'num_4', 'num_1', 'num_0']",['num_4'],num_4,,,,,0,9,9,9,0,0,0,1,,,,,['num_4'],,0.0611227964982,1,['num_4'],0,[0.9376279741991311],1,2018_May_19_1226,60.0886723048,sequenceLearningTask,001,100,
min1.png,min2.png,min3.png,min4.png,images/allBlank.png,images/min1.png,'num_7',"['num_7', 'num_4', 'num_1', 'num_0']",['num_7'],num_7,,,,,0,9,9,9,0,1,1,0,,,,,['num_7'],,0.0645865872502,1,['num_7'],0,[0.7756199685391039],1,2018_May_19_1226,60.0886723048,sequenceLearningTask,001,100,
min1.png,min2.png,min3.png,min4.png,images/allBlank.png,images/min4.png,'num_0',"['num_7', 'num_4', 'num_1', 'num_0']",['num_0'],num_0,,,,,0,9,9,9,0,2,2,3,,,,,['num_0'],,0.081156412838,1,['num_0'],0,[0.49359200801700354],1,2018_May_19_1226,60.0886723048,sequenceLearningTask,001,100,
min1.png,min2.png,min3.png,min4.png,images/allBlank.png,images/min3.png,'num_1',"['num_7', 'num_4', 'num_1', 'num_0']",['num_1'],num_1,,,,,0,9,9,9,0,3,3,2,,,,,['num_1'],,0.0484089660458,1,['num_1'],0,[0.628208867739886],1,2018_May_19_1226,60.0886723048,sequenceLearningTask,001,100,
min1.png,min2.png,min3.png,min4.png,images/allBlank.png,images/min1.png,'num_7',"['num_7', 'num_4', 'num_1', 'num_0']",['num_7'],num_7,,,,,0,9,9,9,1,0,4,0,,,,,['num_7'],,0.0536532672122,1,['num_7'],0,[0.7555609161499888],1,2018_May_19_1226,60.0886723048,sequenceLearningTask,001,100,
min1.png,min2.png,min3.png,min4.png,images/allBlank.png,images/min3.png,'num_1',"['num_7', 'num_4', 'num_1', 'num_0']",['num_1'],num_1,,,,,0,9,9,9,1,1,5,2,,,,,['num_1'],,0.0551191116683,0,"['num_0', 'num_1']",0,"[0.6371384977828711, 1.1703784568235278]",0,2018_May_19_1226,60.0886723048,sequenceLearningTask,001,100,
min1.png,min2.png,min3.png,min4.png,images/allBlank.png,images/min2.png,'num_4',"['num_7', 'num_4', 'num_1', 'num_0']",['num_4'],num_4,,,,,0,9,9,9,1,2,6,1,,,,,['num_4'],,0.057148237247,1,['num_4'],0,[0.4852580693550408],1,2018_May_19_1226,60.0886723048,sequenceLearningTask,001,100,
min1.png,min2.png,min3.png,min4.png,images/allBlank.png,images/min4.png,'num_0',"['num_7', 'num_4', 'num_1', 'num_0']",['num_0'],num_0,,,,,0,9,9,9,1,3,7,3,,,,,['num_0'],,0.0472249675076,1,['num_0'],0,[0.5127874712925404],1,2018_May_19_1226,60.0886723048,sequenceLearningTask,001,100,
min1.png,min2.png,min3.png,min4.png,images/allBlank.png,images/min2.png,'num_4',"['num_7', 'num_4', 'num_1', 'num_0']",['num_4'],num_4,,,,,0,9,9,9,2,0,8,1,,,,,['num_4'],,0.055093675619,0,"['num_1', 'num_4']",0,"[0.7184200389310718, 1.0691556073725224]",0,2018_May_19_1226,60.0886723048,sequenceLearningTask,001,100,
min1.png,min2.png,min3.png,min4.png,images/allBlank.png,images/min4.png,'num_0',"['num_7', 'num_4', 'num_1', 'num_0']",['num_0'],num_0,,,,,0,9,9,9,2,1,9,3,,,,,['num_0'],,0.0474395311903,1,['num_0'],0,[0.7294665894005448],1,2018_May_19_1226,60.0886723048,sequenceLearningTask,001,100,
min1.png,min2.png,min3.png,min4.png,images/allBlank.png,images/min1.png,'num_7',"['num_7', 'num_4', 'num_1', 'num_0']",['num_7'],num_7,,,,,0,9,9,9,2,2,10,0,,,,,['num_7'],,0.0503207584843,1,['num_7'],0,[0.9251943484414369],1,2018_May_19_1226,60.0886723048,sequenceLearningTask,001,100,
min1.png,min2.png,min3.png,min4.png,images/allBlank.png,images/min3.png,'num_1',"['num_7', 'num_4', 'num_1', 'num_0']",['num_1'],num_1,,,,,0,9,9,9,2,3,11,2,,,,,['num_1'],,0.0552257781383,0,"['num_0', 'num_4', 'num_1']",0,"[0.7051355424337089, 1.2713440761435777, 1.770750641124323]",0,2018_May_19_1226,60.0886723048,sequenceLearningTask,001,100,
min1.png,min2.png,min3.png,min4.png,images/allBlank.png,images/min3.png,'num_1',"['num_7', 'num_4', 'num_1', 'num_0']",['num_1'],num_1,,,,,0,9,9,9,3,0,12,2,,,,,['num_1'],,0.0573258781806,0,"['num_1', 'num_1']",0,"[0.0005526146851480007, 2.2509137424640357]",0,2018_May_19_1226,60.0886723048,sequenceLearningTask,001,100,
min1.png,min2.png,min3.png,min4.png,images/allBlank.png,images/min1.png,'num_7',"['num_7', 'num_4', 'num_1', 'num_0']",['num_7'],num_7,,,,,0,9,9,9,3,1,13,0,,,,,['num_7'],,0.0498255798593,1,['num_7'],0,[0.5088305531535298],1,2018_May_19_1226,60.0886723048,sequenceLearningTask,001,100,
min1.png,min2.png,min3.png,min4.png,images/allBlank.png,images/min4.png,'num_0',"['num_7', 'num_4', 'num_1', 'num_0']",['num_0'],num_0,,,,,0,9,9,9,3,2,14,3,,,,,['num_0'],,0.0533016780391,1,['num_0'],0,[0.5550110093317926],1,2018_May_19_1226,60.0886723048,sequenceLearningTask,001,100,
min1.png,min2.png,min3.png,min4.png,images/allBlank.png,images/min2.png,'num_4',"['num_7', 'num_4', 'num_1', 'num_0']",['num_4'],num_4,,,,,0,9,9,9,3,3,15,1,,,,,['num_4'],,0.0525328584481,0,"['num_1', 'num_4']",0,"[0.5049737372901291, 1.0055913776159286]",0,2018_May_19_1226,60.0886723048,sequenceLearningTask,001,100,
min1.png,min2.png,min3.png,min4.png,images/allBlank.png,images/min2.png,'num_4',"['num_7', 'num_4', 'num_1', 'num_0']",['num_4'],num_4,,,,,0,9,9,9,4,0,16,1,,,,,['num_4'],,0.0498436309863,1,['num_4'],0,[0.6428792087826878],1,2018_May_19_1226,60.0886723048,sequenceLearningTask,001,100,
min1.png,min2.png,min3.png,min4.png,images/allBlank.png,images/min3.png,'num_1',"['num_7', 'num_4', 'num_1', 'num_0']",['num_1'],num_1,,,,,0,9,9,9,4,1,17,2,,,,,['num_1'],,0.04753430048,1,['num_1'],0,[0.9119274930562824],1,2018_May_19_1226,60.0886723048,sequenceLearningTask,001,100,
min1.png,min2.png,min3.png,min4.png,images/allBlank.png,images/min1.png,'num_7',"['num_7', 'num_4', 'num_1', 'num_0']",['num_7'],num_7,,,,,0,9,9,9,4,2,18,0,,,,,['num_7'],,0.0520442435518,1,['num_7'],0,[0.6730502487625927],1,2018_May_19_1226,60.0886723048,sequenceLearningTask,001,100,
min1.png,min2.png,min3.png,min4.png,images/allBlank.png,images/min4.png,'num_0',"['num_7', 'num_4', 'num_1', 'num_0']",['num_0'],num_0,,,,,0,9,9,9,4,3,19,3,,,,,['num_0'],,0.0560142900795,1,['num_0'],0,[0.6855749511159956],1,2018_May_19_1226,60.0886723048,sequenceLearningTask,001,100,
min1.png,min2.png,min3.png,min4.png,images/allBlank.png,images/min1.png,'num_7',"['num_7', 'num_4', 'num_1', 'num_0']",['num_7'],num_7,,,,,0,9,9,9,5,0,20,0,,,,,['num_7'],,0.0519806540105,1,['num_7'],0,[0.4906480114441365],1,2018_May_19_1226,60.0886723048,sequenceLearningTask,001,100,
min1.png,min2.png,min3.png,min4.png,images/allBlank.png,images/min2.png,'num_4',"['num_7', 'num_4', 'num_1', 'num_0']",['num_4'],num_4,,,,,0,9,9,9,5,1,21,1,,,,,['num_4'],,0.0508315272164,0,"['num_7', 'num_7', 'num_4', 'num_4']",0,"[0.675396912265569, 1.1429397214669734, 1.7750501229893416]",0,2018_May_19_1226,60.0886723048,sequenceLearningTask,001,100,
min1.png,min2.png,min3.png,min4.png,images/allBlank.png,images/min3.png,'num_1',"['num_7', 'num_4', 'num_1', 'num_0']",['num_1'],num_1,,,,,0,9,9,9,5,2,22,2,,,,,['num_1'],,0.0524897815194,0,"['num_7', 'num_1']",0,"[0.00019446131773293018, 0.5230955614242703]",0,2018_May_19_1226,60.0886723048,sequenceLearningTask,001,100,
min1.png,min2.png,min3.png,min4.png,images/allBlank.png,images/min4.png,'num_0',"['num_7', 'num_4', 'num_1', 'num_0']",['num_0'],num_0,,,,,0,9,9,9,5,3,23,3,,,,,['num_0'],,0.0535236264113,1,['num_0'],0,[0.689274228643626],1,2018_May_19_1226,60.0886723048,sequenceLearningTask,001,100,
min1.png,min2.png,min3.png,min4.png,images/allBlank.png,images/min1.png,'num_7',"['num_7', 'num_4', 'num_1', 'num_0']",['num_7'],num_7,,,,,0,9,9,9,6,0,24,0,,,,,['num_7'],,0.0576967494562,1,['num_7'],0,[0.5492625036276877],1,2018_May_19_1226,60.0886723048,sequenceLearningTask,001,100,
min1.png,min2.png,min3.png,min4.png,images/allBlank.png,images/min4.png,'num_0',"['num_7', 'num_4', 'num_1', 'num_0']",['num_0'],num_0,,,,,0,9,9,9,6,1,25,3,,,,,['num_0'],,0.0522304999176,1,['num_0'],0,[0.6074027395807207],1,2018_May_19_1226,60.0886723048,sequenceLearningTask,001,100,
min1.png,min2.png,min3.png,min4.png,images/allBlank.png,images/min2.png,'num_4',"['num_7', 'num_4', 'num_1', 'num_0']",['num_4'],num_4,,,,,0,9,9,9,6,2,26,1,,,,,['num_4'],,0.0570559296757,1,['num_4'],0,[0.9509785219561309],1,2018_May_19_1226,60.0886723048,sequenceLearningTask,001,100,
min1.png,min2.png,min3.png,min4.png,images/allBlank.png,images/min3.png,'num_1',"['num_7', 'num_4', 'num_1', 'num_0']",['num_1'],num_1,,,,,0,9,9,9,6,3,27,2,,,,,['num_1'],,0.0516368595418,1,['num_1'],0,[0.7746698157861829],1,2018_May_19_1226,60.0886723048,sequenceLearningTask,001,100,
min1.png,min2.png,min3.png,min4.png,images/allBlank.png,images/min4.png,'num_0',"['num_7', 'num_4', 'num_1', 'num_0']",['num_0'],num_0,,,,,0,9,9,9,7,0,28,3,,,,,['num_0'],,0.0552237269003,1,['num_0'],0,[0.7367978624533862],1,2018_May_19_1226,60.0886723048,sequenceLearningTask,001,100,
min1.png,min2.png,min3.png,min4.png,images/allBlank.png,images/min1.png,'num_7',"['num_7', 'num_4', 'num_1', 'num_0']",['num_7'],num_7,,,,,0,9,9,9,7,1,29,0,,,,,['num_7'],,0.059652029071,1,['num_7'],0,[0.4976551823783666],1,2018_May_19_1226,60.0886723048,sequenceLearningTask,001,100,
min1.png,min2.png,min3.png,min4.png,images/allBlank.png,images/min2.png,'num_4',"['num_7', 'num_4', 'num_1', 'num_0']",['num_4'],num_4,,,,,0,9,9,9,7,2,30,1,,,,,['num_4'],,0.0567790069617,1,['num_4'],0,[0.8526319761294872],1,2018_May_19_1226,60.0886723048,sequenceLearningTask,001,100,
min1.png,min2.png,min3.png,min4.png,images/allBlank.png,images/min3.png,'num_1',"['num_7', 'num_4', 'num_1', 'num_0']",['num_1'],num_1,,,,,0,9,9,9,7,3,31,2,,,,,['num_1'],,0.0534776777495,1,['num_1'],0,[0.6386859831400216],1,2018_May_19_1226,60.0886723048,sequenceLearningTask,001,100,
min1.png,min2.png,min3.png,min4.png,images/allBlank.png,images/min1.png,'num_7',"['num_7', 'num_4', 'num_1', 'num_0']",['num_7'],num_7,,,,,0,9,9,9,8,0,32,0,,,,,['num_7'],,0.0545377789531,1,['num_7'],0,[0.6033539241179824],1,2018_May_19_1226,60.0886723048,sequenceLearningTask,001,100,
min1.png,min2.png,min3.png,min4.png,images/allBlank.png,images/min4.png,'num_0',"['num_7', 'num_4', 'num_1', 'num_0']",['num_0'],num_0,,,,,0,9,9,9,8,1,33,3,,,,,['num_0'],,0.0545065994374,1,['num_0'],0,[0.6222519520670176],1,2018_May_19_1226,60.0886723048,sequenceLearningTask,001,100,
min1.png,min2.png,min3.png,min4.png,images/allBlank.png,images/min3.png,'num_1',"['num_7', 'num_4', 'num_1', 'num_0']",['num_1'],num_1,,,,,0,9,9,9,8,2,34,2,,,,,['num_1'],,0.0578374674078,1,['num_1'],0,[0.615963549586013],1,2018_May_19_1226,60.0886723048,sequenceLearningTask,001,100,
min1.png,min2.png,min3.png,min4.png,images/allBlank.png,images/min2.png,'num_4',"['num_7', 'num_4', 'num_1', 'num_0']",['num_4'],num_4,,,,,0,9,9,9,8,3,35,1,,,,,['num_4'],,0.0562370591797,1,['num_4'],0,[0.4712888558860868],1,2018_May_19_1226,60.0886723048,sequenceLearningTask,001,100,
min1.png,min2.png,min3.png,min4.png,images/allBlank.png,images/min1.png,'num_7',"['num_7', 'num_4', 'num_1', 'num_0']",['num_7'],num_7,,,,,0,9,9,9,9,0,36,0,,,,,['num_7'],,0.0703330417164,1,['num_7'],0,[0.6678498445544392],1,2018_May_19_1226,60.0886723048,sequenceLearningTask,001,100,
min1.png,min2.png,min3.png,min4.png,images/allBlank.png,images/min2.png,'num_4',"['num_7', 'num_4', 'num_1', 'num_0']",['num_4'],num_4,,,,,0,9,9,9,9,1,37,1,,,,,['num_4'],,0.0546272147913,0,"['num_1', 'num_1', 'num_4']",0,"[0.6211770814843476, 1.2709695126395673, 1.3372894308995456]",0,2018_May_19_1226,60.0886723048,sequenceLearningTask,001,100,
min1.png,min2.png,min3.png,min4.png,images/allBlank.png,images/min4.png,'num_0',"['num_7', 'num_4', 'num_1', 'num_0']",['num_0'],num_0,,,,,0,9,9,9,9,2,38,3,,,,,['num_0'],,0.0628774610814,0,"['num_1', 'num_0']",0,"[0.5789432874880731, 0.9798051530960947]",0,2018_May_19_1226,60.0886723048,sequenceLearningTask,001,100,
min1.png,min2.png,min3.png,min4.png,images/allBlank.png,images/min3.png,'num_1',"['num_7', 'num_4', 'num_1', 'num_0']",['num_1'],num_1,,,,,0,9,9,9,9,3,39,2,,,,,['num_1'],,0.0560762388632,0,"['num_1', 'num_1']",0,"[0.00020676897838711739, 0.5861646118573844]",0,2018_May_19_1226,60.0886723048,sequenceLearningTask,001,100,
min1.png,min2.png,min3.png,min4.png,images/allBlank.png,images/min1.png,'num_7',"['num_7', 'num_4', 'num_1', 'num_0']",['num_7'],num_7,,,,,0,9,9,9,10,0,40,0,,,,,['num_7'],,0.0530346012674,1,['num_7'],0,[0.7054313370026648],1,2018_May_19_1226,60.0886723048,sequenceLearningTask,001,100,
min1.png,min2.png,min3.png,min4.png,images/allBlank.png,images/min4.png,'num_0',"['num_7', 'num_4', 'num_1', 'num_0']",['num_0'],num_0,,,,,0,9,9,9,10,1,41,3,,,,,['num_0'],,0.0478538896423,1,['num_0'],0,[0.6292144050821662],1,2018_May_19_1226,60.0886723048,sequenceLearningTask,001,100,
min1.png,min2.png,min3.png,min4.png,images/allBlank.png,images/min3.png,'num_1',"['num_7', 'num_4', 'num_1', 'num_0']",['num_1'],num_1,,,,,0,9,9,9,10,2,42,2,,,,,['num_1'],,0.0562735719141,1,['num_1'],0,[0.9364607962779701],1,2018_May_19_1226,60.0886723048,sequenceLearningTask,001,100,
min1.png,min2.png,min3.png,min4.png,images/allBlank.png,images/min2.png,'num_4',"['num_7', 'num_4', 'num_1', 'num_0']",['num_4'],num_4,,,,,0,9,9,9,10,3,43,1,,,,,['num_4'],,0.0575342881493,1,['num_4'],0,[0.8839324505534023],1,2018_May_19_1226,60.0886723048,sequenceLearningTask,001,100,
min1.png,min2.png,min3.png,min4.png,images/allBlank.png,images/min1.png,'num_7',"['num_7', 'num_4', 'num_1', 'num_0']",['num_7'],num_7,,,,,0,9,9,9,11,0,44,0,,,,,['num_7'],,0.0519158337265,0,"['num_1', 'num_4', 'num_7']",0,"[0.0002038970123976469, 0.9073482167441398, 1.8249356001615524]",0,2018_May_19_1226,60.0886723048,sequenceLearningTask,001,100,
min1.png,min2.png,min3.png,min4.png,images/allBlank.png,images/min4.png,'num_0',"['num_7', 'num_4', 'num_1', 'num_0']",['num_0'],num_0,,,,,0,9,9,9,11,1,45,3,,,,,['num_0'],,0.0614551038016,1,['num_0'],0,[0.4787062827963382],1,2018_May_19_1226,60.0886723048,sequenceLearningTask,001,100,
min1.png,min2.png,min3.png,min4.png,images/allBlank.png,images/min2.png,'num_4',"['num_7', 'num_4', 'num_1', 'num_0']",['num_4'],num_4,,,,,0,9,9,9,11,2,46,1,,,,,['num_4'],,0.0592528502457,0,"['num_1', 'num_4']",0,"[1.2010750346817076, 1.467381578637287]",0,2018_May_19_1226,60.0886723048,sequenceLearningTask,001,100,
min1.png,min2.png,min3.png,min4.png,images/allBlank.png,images/min3.png,'num_1',"['num_7', 'num_4', 'num_1', 'num_0']",['num_1'],num_1,,,,,0,9,9,9,11,3,47,2,,,,,['num_1'],,0.0531059859786,1,['num_1'],0,[0.504956096643582],1,2018_May_19_1226,60.0886723048,sequenceLearningTask,001,100,
min1.png,min2.png,min3.png,min4.png,images/allBlank.png,images/min2.png,'num_4',"['num_7', 'num_4', 'num_1', 'num_0']",['num_4'],num_4,,,,,0,9,9,9,12,0,48,1,,,,,['num_4'],,0.0559646489564,1,['num_4'],0,[0.7872687745839357],1,2018_May_19_1226,60.0886723048,sequenceLearningTask,001,100,
min1.png,min2.png,min3.png,min4.png,images/allBlank.png,images/min4.png,'num_0',"['num_7', 'num_4', 'num_1', 'num_0']",['num_0'],num_0,,,,,0,9,9,9,12,1,49,3,,,,,['num_0'],,0.0553599318955,0,"['num_1', 'num_0']",0,"[0.5527742940466851, 0.9695307041984051]",0,2018_May_19_1226,60.0886723048,sequenceLearningTask,001,100,
min1.png,min2.png,min3.png,min4.png,images/allBlank.png,images/min1.png,'num_7',"['num_7', 'num_4', 'num_1', 'num_0']",['num_7'],num_7,,,,,0,9,9,9,12,2,50,0,,,,,['num_7'],,0.0539277284406,1,['num_7'],0,[0.5553347012028098],1,2018_May_19_1226,60.0886723048,sequenceLearningTask,001,100,
min1.png,min2.png,min3.png,min4.png,images/allBlank.png,images/min3.png,'num_1',"['num_7', 'num_4', 'num_1', 'num_0']",['num_1'],num_1,,,,,0,9,9,9,12,3,51,2,,,,,['num_1'],,0.051733269589,1,['num_1'],0,[0.522826433647424],1,2018_May_19_1226,60.0886723048,sequenceLearningTask,001,100,
min1.png,min2.png,min3.png,min4.png,images/allBlank.png,images/min1.png,'num_7',"['num_7', 'num_4', 'num_1', 'num_0']",['num_7'],num_7,,,,,0,9,9,9,13,0,52,0,,,,,['num_7'],,0.0529632167891,1,['num_7'],0,[0.654249451123178],1,2018_May_19_1226,60.0886723048,sequenceLearningTask,001,100,
min1.png,min2.png,min3.png,min4.png,images/allBlank.png,images/min2.png,'num_4',"['num_7', 'num_4', 'num_1', 'num_0']",['num_4'],num_4,,,,,0,9,9,9,13,1,53,1,,,,,['num_4'],,0.0561275207438,0,"['num_1', 'num_4']",0,"[0.6012177215889096, 1.003690251847729]",0,2018_May_19_1226,60.0886723048,sequenceLearningTask,001,100,
min1.png,min2.png,min3.png,min4.png,images/allBlank.png,images/min4.png,'num_0',"['num_7', 'num_4', 'num_1', 'num_0']",['num_0'],num_0,,,,,0,9,9,9,13,2,54,3,,,,,['num_0'],,0.0532446524594,0,"['num_1', 'num_0']",0,"[0.25631599221378565, 0.4894459617789835]",0,2018_May_19_1226,60.0886723048,sequenceLearningTask,001,100,
min1.png,min2.png,min3.png,min4.png,images/allBlank.png,images/min3.png,'num_1',"['num_7', 'num_4', 'num_1', 'num_0']",['num_1'],num_1,,,,,0,9,9,9,13,3,55,2,,,,,['num_1'],,0.0534382932819,0,"['num_0', 'num_1']",0,"[0.5391968749463558, 0.9391943311784416]",0,2018_May_19_1226,60.0886723048,sequenceLearningTask,001,100,
min1.png,min2.png,min3.png,min4.png,images/allBlank.png,images/min1.png,'num_7',"['num_7', 'num_4', 'num_1', 'num_0']",['num_7'],num_7,,,,,0,9,9,9,14,0,56,0,,,,,['num_7'],,0.0537800365128,0,"['num_0', 'num_4', 'num_1', 'num_4', 'num_7']",0,"[0.00021251244470477104, 0.537325287470594, 1.1051005886401981, 1.1549643222242594, 3.2381941685453057]",0,2018_May_19_1226,60.0886723048,sequenceLearningTask,001,100,
min1.png,min2.png,min3.png,min4.png,images/allBlank.png,images/min4.png,'num_0',"['num_7', 'num_4', 'num_1', 'num_0']",['num_0'],num_0,,,,,0,9,9,9,14,1,57,3,,,,,['num_0'],,0.0575232112315,1,['num_0'],0,[0.6171200608368963],1,2018_May_19_1226,60.0886723048,sequenceLearningTask,001,100,
min1.png,min2.png,min3.png,min4.png,images/allBlank.png,images/min2.png,'num_4',"['num_7', 'num_4', 'num_1', 'num_0']",['num_4'],num_4,,,,,0,9,9,9,14,2,58,1,,,,,['num_4'],,0.0509082451463,1,['num_4'],0,[0.5087661431171],1,2018_May_19_1226,60.0886723048,sequenceLearningTask,001,100,
min1.png,min2.png,min3.png,min4.png,images/allBlank.png,images/min3.png,'num_1',"['num_7', 'num_4', 'num_1', 'num_0']",['num_1'],num_1,,,,,0,9,9,9,14,3,59,2,,,,,['num_1'],,0.0583847486414,1,['num_1'],0,[0.5670364303514361],1,2018_May_19_1226,60.0886723048,sequenceLearningTask,001,100,
min1.png,min2.png,min3.png,min4.png,images/allBlank.png,images/min1.png,'num_7',"['num_7', 'num_4', 'num_1', 'num_0']",['num_7'],num_7,,,,,0,9,9,9,15,0,60,0,,,,,['num_7'],,0.059684849577,1,['num_7'],0,[0.5650068945251405],1,2018_May_19_1226,60.0886723048,sequenceLearningTask,001,100,
min1.png,min2.png,min3.png,min4.png,images/allBlank.png,images/min3.png,'num_1',"['num_7', 'num_4', 'num_1', 'num_0']",['num_1'],num_1,,,,,0,9,9,9,15,1,61,2,,,,,['num_1'],,0.0501939896494,1,['num_1'],0,[0.9423803784884512],1,2018_May_19_1226,60.0886723048,sequenceLearningTask,001,100,
min1.png,min2.png,min3.png,min4.png,images/allBlank.png,images/min2.png,'num_4',"['num_7', 'num_4', 'num_1', 'num_0']",['num_4'],num_4,,,,,0,9,9,9,15,2,62,1,,,,,['num_4'],,0.0501714255661,1,['num_4'],0,[0.5740559089463204],1,2018_May_19_1226,60.0886723048,sequenceLearningTask,001,100,
min1.png,min2.png,min3.png,min4.png,images/allBlank.png,images/min4.png,'num_0',"['num_7', 'num_4', 'num_1', 'num_0']",['num_0'],num_0,,,,,0,9,9,9,15,3,63,3,,,,,['num_0'],,0.0524442431051,1,['num_0'],0,[0.5743139598052949],1,2018_May_19_1226,60.0886723048,sequenceLearningTask,001,100,
min1.png,min2.png,min3.png,min4.png,images/allBlank.png,images/min4.png,'num_0',"['num_7', 'num_4', 'num_1', 'num_0']",['num_0'],num_0,,,,,0,9,9,9,16,0,64,3,,,,,['num_0'],,0.056603417499,1,['num_0'],0,[0.5671028916258365],1,2018_May_19_1226,60.0886723048,sequenceLearningTask,001,100,
min1.png,min2.png,min3.png,min4.png,images/allBlank.png,images/min3.png,'num_1',"['num_7', 'num_4', 'num_1', 'num_0']",['num_1'],num_1,,,,,0,9,9,9,16,1,65,2,,,,,['num_1'],,0.0572897756938,0,"['num_4', 'num_4', 'num_1']",0,"[0.6184525722637773, 1.0520479360129684, 1.419893637066707]",0,2018_May_19_1226,60.0886723048,sequenceLearningTask,001,100,
min1.png,min2.png,min3.png,min4.png,images/allBlank.png,images/min2.png,'num_4',"['num_7', 'num_4', 'num_1', 'num_0']",['num_4'],num_4,,,,,0,9,9,9,16,2,66,1,,,,,['num_4'],,0.0585710050073,0,"['num_1', 'num_4']",0,"[0.7155995294451714, 0.7650825453456491]",0,2018_May_19_1226,60.0886723048,sequenceLearningTask,001,100,
min1.png,min2.png,min3.png,min4.png,images/allBlank.png,images/min1.png,'num_7',"['num_7', 'num_4', 'num_1', 'num_0']",['num_7'],num_7,,,,,0,9,9,9,16,3,67,0,,,,,['num_7'],,0.0527412684169,1,['num_7'],0,[0.672505839029327],1,2018_May_19_1226,60.0886723048,sequenceLearningTask,001,100,
min1.png,min2.png,min3.png,min4.png,images/allBlank.png,images/min1.png,'num_7',"['num_7', 'num_4', 'num_1', 'num_0']",['num_7'],num_7,,,,,0,9,9,9,17,0,68,0,,,,,['num_7'],,0.051560962107,1,['num_7'],0,[0.6082999692298472],1,2018_May_19_1226,60.0886723048,sequenceLearningTask,001,100,
min1.png,min2.png,min3.png,min4.png,images/allBlank.png,images/min4.png,'num_0',"['num_7', 'num_4', 'num_1', 'num_0']",['num_0'],num_0,,,,,0,9,9,9,17,1,69,3,,,,,['num_0'],,0.0523326534312,1,['num_0'],0,[0.5373593387193978],1,2018_May_19_1226,60.0886723048,sequenceLearningTask,001,100,
min1.png,min2.png,min3.png,min4.png,images/allBlank.png,images/min3.png,'num_1',"['num_7', 'num_4', 'num_1', 'num_0']",['num_1'],num_1,,,,,0,9,9,9,17,2,70,2,,,,,['num_1'],,0.0467211734504,1,['num_1'],0,[0.7310391003265977],1,2018_May_19_1226,60.0886723048,sequenceLearningTask,001,100,
min1.png,min2.png,min3.png,min4.png,images/allBlank.png,images/min2.png,'num_4',"['num_7', 'num_4', 'num_1', 'num_0']",['num_4'],num_4,,,,,0,9,9,9,17,3,71,1,,,,,['num_4'],,0.0591084400658,0,"['num_4', 'num_4']",0,"[0.00043117906898260117, 1.1490886369720101]",0,2018_May_19_1226,60.0886723048,sequenceLearningTask,001,100,
min1.png,min2.png,min3.png,min4.png,images/allBlank.png,images/min2.png,'num_4',"['num_7', 'num_4', 'num_1', 'num_0']",['num_4'],num_4,,,,,0,9,9,9,18,0,72,1,,,,,['num_4'],,0.0557529570069,1,['num_4'],0,[0.5712161175906658],1,2018_May_19_1226,60.0886723048,sequenceLearningTask,001,100,
min1.png,min2.png,min3.png,min4.png,images/allBlank.png,images/min3.png,'num_1',"['num_7', 'num_4', 'num_1', 'num_0']",['num_1'],num_1,,,,,0,9,9,9,18,1,73,2,,,,,['num_1'],,0.0552590088919,0,"['num_1', 'num_0', 'num_1']",0,"[0.0001682050060480833, 0.5536288570147008, 0.7710694100242108]",0,2018_May_19_1226,60.0886723048,sequenceLearningTask,001,100,
min1.png,min2.png,min3.png,min4.png,images/allBlank.png,images/min4.png,'num_0',"['num_7', 'num_4', 'num_1', 'num_0']",['num_0'],num_0,,,,,0,9,9,9,18,2,74,3,,,,,['num_0'],,0.0628741791006,0,"['num_1', 'num_0']",0,"[0.3771761511452496, 0.6455126414075494]",0,2018_May_19_1226,60.0886723048,sequenceLearningTask,001,100,
min1.png,min2.png,min3.png,min4.png,images/allBlank.png,images/min1.png,'num_7',"['num_7', 'num_4', 'num_1', 'num_0']",['num_7'],num_7,,,,,0,9,9,9,18,3,75,0,,,,,['num_7'],,0.0482157354709,0,"['num_4', 'num_7']",0,"[0.7949114318471402, 0.9785895647946745]",0,2018_May_19_1226,60.0886723048,sequenceLearningTask,001,100,
min1.png,min2.png,min3.png,min4.png,images/allBlank.png,images/min2.png,'num_4',"['num_7', 'num_4', 'num_1', 'num_0']",['num_4'],num_4,,,,,0,9,9,9,19,0,76,1,,,,,['num_4'],,0.0620208468754,0,"['num_4', 'num_1', 'num_4']",0,"[0.6931995572522283, 1.1781704474706203]",0,2018_May_19_1226,60.0886723048,sequenceLearningTask,001,100,
min1.png,min2.png,min3.png,min4.png,images/allBlank.png,images/min4.png,'num_0',"['num_7', 'num_4', 'num_1', 'num_0']",['num_0'],num_0,,,,,0,9,9,9,19,1,77,3,,,,,['num_0'],,0.0535568571649,0,"['num_1', 'num_0']",0,"[0.00021333317272365093, 0.43878879328258336]",0,2018_May_19_1226,60.0886723048,sequenceLearningTask,001,100,
min1.png,min2.png,min3.png,min4.png,images/allBlank.png,images/min1.png,'num_7',"['num_7', 'num_4', 'num_1', 'num_0']",['num_7'],num_7,,,,,0,9,9,9,19,2,78,0,,,,,['num_7'],,0.0503314253874,1,['num_7'],0,[0.6258224092889577],1,2018_May_19_1226,60.0886723048,sequenceLearningTask,001,100,
min1.png,min2.png,min3.png,min4.png,images/allBlank.png,images/min3.png,'num_1',"['num_7', 'num_4', 'num_1', 'num_0']",['num_1'],num_1,,,,,0,9,9,9,19,3,79,2,,,,,['num_1'],,0.0562268025242,0,"['num_4', 'num_1']",0,"[0.7021759562194347, 1.2533666626550257]",0,2018_May_19_1226,60.0886723048,sequenceLearningTask,001,100,
min1.png,min2.png,min3.png,min4.png,allBlank.png,,,,['num_7'],,,,,,0,0,0,0,,,,,,,,,['num_7'],1,0.0762456497177,1,['num_7'],0,[0.6514195059426129],,2018_May_19_1226,60.0886723048,sequenceLearningTask,001,100,
min1.png,min2.png,min3.png,min4.png,allBlank.png,,,,['num_1'],,,,,,0,0,0,0,,,,,,,,,['num_1'],1,0.0540229077451,0,"['num_4', 'num_1']",0,"[0.0003323073033243418, 0.7065345149021596]",,2018_May_19_1226,60.0886723048,sequenceLearningTask,001,100,
min1.png,min2.png,min3.png,min4.png,allBlank.png,,,,['num_4'],,,,,,0,0,0,0,,,,,,,,,['num_4'],1,0.059430901194,1,['num_4'],0,[0.5338885737583041],,2018_May_19_1226,60.0886723048,sequenceLearningTask,001,100,
min1.png,min2.png,min3.png,min4.png,allBlank.png,,,,['num_0'],,,,,,0,0,0,0,,,,,,,,,['num_0'],1,0.0503072200809,1,['num_0'],0,[0.4610546121839434],,2018_May_19_1226,60.0886723048,sequenceLearningTask,001,100,
min1.png,min2.png,min3.png,min4.png,allBlank.png,,,,['num_0'],,,,,,0,0,0,0,,,,,,,,,['num_0'],1,0.0552983935922,1,['num_0'],0,[0.4553315422963351],,2018_May_19_1226,60.0886723048,sequenceLearningTask,001,100,
min1.png,min2.png,min3.png,min4.png,allBlank.png,,,,['num_4'],,,,,,0,0,0,0,,,,,,,,,['num_4'],1,0.054029882187,1,['num_4'],0,[0.5078081954270601],,2018_May_19_1226,60.0886723048,sequenceLearningTask,001,100,
min1.png,min2.png,min3.png,min4.png,allBlank.png,,,,['num_1'],,,,,,0,0,0,0,,,,,,,,,['num_1'],1,0.0595445421059,0,"['num_1', 'num_1']",0,"[0.0002863586414605379, 0.41741815279237926]",,2018_May_19_1226,60.0886723048,sequenceLearningTask,001,100,
min1.png,min2.png,min3.png,min4.png,allBlank.png,,,,['num_0'],,,,,,0,0,0,0,,,,,,,,,['num_0'],1,0.0514670135453,1,['num_0'],0,[0.42629157775081694],,2018_May_19_1226,60.0886723048,sequenceLearningTask,001,100,
min1.png,min2.png,min3.png,min4.png,allBlank.png,,,,['num_7'],,,,,,0,1,1,1,,,,,,,,,['num_7'],2,0.0525008584373,0,"['num_7', 'num_4', 'num_7']",0,"[0.6911880723200738, 1.2572263500187546]",,2018_May_19_1226,60.0886723048,sequenceLearningTask,001,100,
min1.png,min2.png,min3.png,min4.png,allBlank.png,,,,['num_1'],,,,,,0,1,1,1,,,,,,,,,['num_1'],2,0.0597578752786,0,"['num_0', 'num_0', 'num_1', 'num_0', 'num_1']",0,"[0.7016073416452855, 0.8176884294953197, 1.0187138230539858, 1.4845056601334363]",,2018_May_19_1226,60.0886723048,sequenceLearningTask,001,100,
min1.png,min2.png,min3.png,min4.png,allBlank.png,,,,['num_4'],,,,,,0,1,1,1,,,,,,,,,['num_4'],2,0.056109469384,1,['num_4'],0,[0.4208064563572407],,2018_May_19_1226,60.0886723048,sequenceLearningTask,001,100,
min1.png,min2.png,min3.png,min4.png,allBlank.png,,,,['num_0'],,,,,,0,1,1,1,,,,,,,,,['num_0'],2,0.0534616778605,1,['num_0'],0,[0.5577260828576982],,2018_May_19_1226,60.0886723048,sequenceLearningTask,001,100,
min1.png,min2.png,min3.png,min4.png,allBlank.png,,,,['num_0'],,,,,,0,1,1,1,,,,,,,,,['num_0'],2,0.0534464982338,0,"['num_1', 'num_0', 'num_0']",0,"[0.5751000102609396, 1.0750394973438233]",,2018_May_19_1226,60.0886723048,sequenceLearningTask,001,100,
min1.png,min2.png,min3.png,min4.png,allBlank.png,,,,['num_4'],,,,,,0,1,1,1,,,,,,,,,['num_4'],2,0.0527859863359,1,['num_4'],0,[0.524250021437183],,2018_May_19_1226,60.0886723048,sequenceLearningTask,001,100,
min1.png,min2.png,min3.png,min4.png,allBlank.png,,,,['num_1'],,,,,,0,1,1,1,,,,,,,,,['num_1'],2,0.0489082473796,1,['num_1'],0,[0.5787824671715498],,2018_May_19_1226,60.0886723048,sequenceLearningTask,001,100,
min1.png,min2.png,min3.png,min4.png,allBlank.png,,,,['num_0'],,,,,,0,1,1,1,,,,,,,,,['num_0'],2,0.0510592192877,1,['num_0'],0,[0.560060438932851],,2018_May_19_1226,60.0886723048,sequenceLearningTask,001,100,
min1.png,min2.png,min3.png,min4.png,allBlank.png,,,,['num_7'],,,,,,0,2,2,2,,,,,,,,,['num_7'],3,0.049814092461,1,['num_7'],0,[0.5092477835714817],,2018_May_19_1226,60.0886723048,sequenceLearningTask,001,100,
min1.png,min2.png,min3.png,min4.png,allBlank.png,,,,['num_1'],,,,,,0,2,2,2,,,,,,,,,['num_1'],3,0.0531470114365,1,['num_1'],0,[0.5248727898579091],,2018_May_19_1226,60.0886723048,sequenceLearningTask,001,100,
min1.png,min2.png,min3.png,min4.png,allBlank.png,,,,['num_4'],,,,,,0,2,2,2,,,,,,,,,['num_4'],3,0.0534181906842,1,['num_4'],0,[0.6901328940875828],,2018_May_19_1226,60.0886723048,sequenceLearningTask,001,100,
min1.png,min2.png,min3.png,min4.png,allBlank.png,,,,['num_0'],,,,,,0,2,2,2,,,,,,,,,['num_0'],3,0.0580668002367,0,"['num_1', 'num_0']",0,"[0.6015779261942953, 0.9855138638522476]",,2018_May_19_1226,60.0886723048,sequenceLearningTask,001,100,
min1.png,min2.png,min3.png,min4.png,allBlank.png,,,,['num_0'],,,,,,0,2,2,2,,,,,,,,,['num_0'],3,0.0496167594101,1,['num_0'],0,[0.47803100128658116],,2018_May_19_1226,60.0886723048,sequenceLearningTask,001,100,
min1.png,min2.png,min3.png,min4.png,allBlank.png,,,,['num_4'],,,,,,0,2,2,2,,,,,,,,,['num_4'],3,0.0547145993914,1,['num_4'],0,[0.4900223712902516],,2018_May_19_1226,60.0886723048,sequenceLearningTask,001,100,
min1.png,min2.png,min3.png,min4.png,allBlank.png,,,,['num_1'],,,,,,0,2,2,2,,,,,,,,,['num_1'],3,0.0567634173203,1,['num_1'],0,[0.5529109092894942],,2018_May_19_1226,60.0886723048,sequenceLearningTask,001,100,
min1.png,min2.png,min3.png,min4.png,allBlank.png,,,,['num_0'],,,,,,0,2,2,2,,,,,,,,,['num_0'],3,0.0513107061852,1,['num_0'],0,[0.5094660394825041],,2018_May_19_1226,60.0886723048,sequenceLearningTask,001,100,
min1.png,min2.png,min3.png,min4.png,allBlank.png,,,,['num_7'],,,,,,0,3,3,3,,,,,,,,,['num_7'],4,0.0579109031241,1,['num_7'],0,[0.550287322839722],,2018_May_19_1226,60.0886723048,sequenceLearningTask,001,100,
min1.png,min2.png,min3.png,min4.png,allBlank.png,,,,['num_1'],,,,,,0,3,3,3,,,,,,,,,['num_1'],4,0.0566994172987,0,"['num_4', 'num_1']",0,"[0.5698831961490214, 0.8531989499460906]",,2018_May_19_1226,60.0886723048,sequenceLearningTask,001,100,
min1.png,min2.png,min3.png,min4.png,allBlank.png,,,,['num_4'],,,,,,0,3,3,3,,,,,,,,,['num_4'],4,0.0527798323892,1,['num_4'],0,[0.6927392499055713],,2018_May_19_1226,60.0886723048,sequenceLearningTask,001,100,
min1.png,min2.png,min3.png,min4.png,allBlank.png,,,,['num_0'],,,,,,0,3,3,3,,,,,,,,,['num_0'],4,0.0480795307085,1,['num_0'],0,[0.4469709370750934],,2018_May_19_1226,60.0886723048,sequenceLearningTask,001,100,
min1.png,min2.png,min3.png,min4.png,allBlank.png,,,,['num_0'],,,,,,0,3,3,3,,,,,,,,,['num_0'],4,0.0536183957011,1,['num_0'],0,[0.4735358275938779],,2018_May_19_1226,60.0886723048,sequenceLearningTask,001,100,
min1.png,min2.png,min3.png,min4.png,allBlank.png,,,,['num_4'],,,,,,0,3,3,3,,,,,,,,,['num_4'],4,0.0598337724805,0,"['num_1', 'num_4']",0,"[0.6501567382365465, 1.0833882049191743]",,2018_May_19_1226,60.0886723048,sequenceLearningTask,001,100,
min1.png,min2.png,min3.png,min4.png,allBlank.png,,,,['num_1'],,,,,,0,3,3,3,,,,,,,,,['num_1'],4,0.059088337468,1,['num_1'],0,[0.5190684893168509],,2018_May_19_1226,60.0886723048,sequenceLearningTask,001,100,
min1.png,min2.png,min3.png,min4.png,allBlank.png,,,,['num_0'],,,,,,0,3,3,3,,,,,,,,,['num_0'],4,0.052077884553,1,['num_0'],0,[0.5769231875892729],,2018_May_19_1226,60.0886723048,sequenceLearningTask,001,100,
min1.png,min2.png,min3.png,min4.png,allBlank.png,,,,['num_7'],,,,,,0,4,4,4,,,,,,,,,['num_7'],5,0.0488155295607,1,['num_7'],0,[0.7767334030941129],,2018_May_19_1226,60.0886723048,sequenceLearningTask,001,100,
min1.png,min2.png,min3.png,min4.png,allBlank.png,,,,['num_1'],,,,,,0,4,4,4,,,,,,,,,['num_1'],5,0.0566830071621,1,['num_1'],0,[0.571504527470097],,2018_May_19_1226,60.0886723048,sequenceLearningTask,001,100,
min1.png,min2.png,min3.png,min4.png,allBlank.png,,,,['num_4'],,,,,,0,4,4,4,,,,,,,,,['num_4'],5,0.0593923372217,1,['num_4'],0,[0.5846655366476625],,2018_May_19_1226,60.0886723048,sequenceLearningTask,001,100,
min1.png,min2.png,min3.png,min4.png,allBlank.png,,,,['num_0'],,,,,,0,4,4,4,,,,,,,,,['num_0'],5,0.0541820870712,0,"['num_1', 'num_0']",0,"[0.42133363522589207, 0.8718286706134677]",,2018_May_19_1226,60.0886723048,sequenceLearningTask,001,100,
min1.png,min2.png,min3.png,min4.png,allBlank.png,,,,['num_0'],,,,,,0,4,4,4,,,,,,,,,['num_0'],5,0.0529517296236,1,['num_0'],0,[0.4749897744040936],,2018_May_19_1226,60.0886723048,sequenceLearningTask,001,100,
min1.png,min2.png,min3.png,min4.png,allBlank.png,,,,['num_4'],,,,,,0,4,4,4,,,,,,,,,['num_4'],5,0.0510415781755,1,['num_4'],0,[0.5599513107445091],,2018_May_19_1226,60.0886723048,sequenceLearningTask,001,100,
min1.png,min2.png,min3.png,min4.png,allBlank.png,,,,['num_1'],,,,,,0,4,4,4,,,,,,,,,['num_1'],5,0.0526534735691,1,['num_1'],0,[0.49136842088773847],,2018_May_19_1226,60.0886723048,sequenceLearningTask,001,100,
min1.png,min2.png,min3.png,min4.png,allBlank.png,,,,['num_0'],,,,,,0,4,4,4,,,,,,,,,['num_0'],5,0.0523675251752,1,['num_0'],0,[0.57516647153534],,2018_May_19_1226,60.0886723048,sequenceLearningTask,001,100,
min1.png,min2.png,min3.png,min4.png,allBlank.png,,,,['num_7'],,,,,,0,5,5,5,,,,,,,,,['num_7'],6,0.0526128583588,0,"['num_4', 'num_7']",0,"[0.506983581231907, 0.8885113168507814]",,2018_May_19_1226,60.0886723048,sequenceLearningTask,001,100,
min1.png,min2.png,min3.png,min4.png,allBlank.png,,,,['num_1'],,,,,,0,5,5,5,,,,,,,,,['num_1'],6,0.0486374786124,0,"['num_4', 'num_4', 'num_1']",0,"[0.5955241899937391, 1.0449431240558624, 1.3461017278023064]",,2018_May_19_1226,60.0886723048,sequenceLearningTask,001,100,
min1.png,min2.png,min3.png,min4.png,allBlank.png,,,,['num_4'],,,,,,0,5,5,5,,,,,,,,,['num_4'],6,0.0572614679113,1,['num_4'],0,[0.47063819016329944],,2018_May_19_1226,60.0886723048,sequenceLearningTask,001,100,
min1.png,min2.png,min3.png,min4.png,allBlank.png,,,,['num_0'],,,,,,0,5,5,5,,,,,,,,,['num_0'],6,0.0580044414382,1,['num_0'],0,[0.5339517530519515],,2018_May_19_1226,60.0886723048,sequenceLearningTask,001,100,
min1.png,min2.png,min3.png,min4.png,allBlank.png,,,,['num_0'],,,,,,0,5,5,5,,,,,,,,,['num_0'],6,0.0533463959582,1,['num_0'],0,[0.42415947816334665],,2018_May_19_1226,60.0886723048,sequenceLearningTask,001,100,
min1.png,min2.png,min3.png,min4.png,allBlank.png,,,,['num_4'],,,,,,0,5,5,5,,,,,,,,,['num_4'],6,0.0550415732432,1,['num_4'],0,[0.6072878679260612],,2018_May_19_1226,60.0886723048,sequenceLearningTask,001,100,
min1.png,min2.png,min3.png,min4.png,allBlank.png,,,,['num_1'],,,,,,0,5,5,5,,,,,,,,,['num_1'],6,0.0588257736526,0,"['num_0', 'num_1']",0,"[0.6344185010530055, 1.1847164905630052]",,2018_May_19_1226,60.0886723048,sequenceLearningTask,001,100,
min1.png,min2.png,min3.png,min4.png,allBlank.png,,,,['num_0'],,,,,,0,5,5,5,,,,,,,,,['num_0'],6,0.0556668031495,1,['num_0'],0,[0.487535810098052],,2018_May_19_1226,60.0886723048,sequenceLearningTask,001,100,
min1.png,min2.png,min3.png,min4.png,allBlank.png,,,,['num_7'],,,,,,0,6,6,6,,,,,,,,,['num_7'],7,0.0532007550355,0,"['num_4', 'num_7']",0,"[0.688623562688008, 1.2390684236306697]",,2018_May_19_1226,60.0886723048,sequenceLearningTask,001,100,
min1.png,min2.png,min3.png,min4.png,allBlank.png,,,,['num_1'],,,,,,0,6,6,6,,,,,,,,,['num_1'],7,0.0566395202186,0,"['num_4', 'num_1']",0,"[0.17068286682479084, 0.6704713797662407]",,2018_May_19_1226,60.0886723048,sequenceLearningTask,001,100,
min1.png,min2.png,min3.png,min4.png,allBlank.png,,,,['num_4'],,,,,,0,6,6,6,,,,,,,,,['num_4'],7,0.052143525565,0,"['num_1', 'num_4']",0,"[0.5586622867267579, 0.9770917205605656]",,2018_May_19_1226,60.0886723048,sequenceLearningTask,001,100,
min1.png,min2.png,min3.png,min4.png,allBlank.png,,,,['num_0'],,,,,,0,6,6,6,,,,,,,,,['num_0'],7,0.0530366527382,0,"['num_1', 'num_0']",0,"[0.00031138421036303043, 0.5075058368965983]",,2018_May_19_1226,60.0886723048,sequenceLearningTask,001,100,
min1.png,min2.png,min3.png,min4.png,allBlank.png,,,,['num_0'],,,,,,0,6,6,6,,,,,,,,,['num_0'],7,0.0582169541158,1,['num_0'],0,[0.5692887352779508],,2018_May_19_1226,60.0886723048,sequenceLearningTask,001,100,
min1.png,min2.png,min3.png,min4.png,allBlank.png,,,,['num_4'],,,,,,0,6,6,6,,,,,,,,,['num_4'],7,0.0499310153536,0,"['num_1', 'num_4']",0,"[0.6435721311718225, 1.193769607692957]",,2018_May_19_1226,60.0886723048,sequenceLearningTask,001,100,
min1.png,min2.png,min3.png,min4.png,allBlank.png,,,,['num_1'],,,,,,0,6,6,6,,,,,,,,,['num_1'],7,0.0630267942324,1,['num_1'],0,[0.3957488462328911],,2018_May_19_1226,60.0886723048,sequenceLearningTask,001,100,
min1.png,min2.png,min3.png,min4.png,allBlank.png,,,,['num_0'],,,,,,0,6,6,6,,,,,,,,,['num_0'],7,0.0522419870831,1,['num_0'],0,[0.4415998668409884],,2018_May_19_1226,60.0886723048,sequenceLearningTask,001,100,
min1.png,min2.png,min3.png,min4.png,allBlank.png,,,,['num_7'],,,,,,0,7,7,7,,,,,,,,,['num_7'],8,0.0500901946798,1,['num_7'],0,[0.7425726244691759],,2018_May_19_1226,60.0886723048,sequenceLearningTask,001,100,
min1.png,min2.png,min3.png,min4.png,allBlank.png,,,,['num_1'],,,,,,0,7,7,7,,,,,,,,,['num_1'],8,0.0497139899526,1,['num_1'],0,[0.5276567863766104],,2018_May_19_1226,60.0886723048,sequenceLearningTask,001,100,
min1.png,min2.png,min3.png,min4.png,allBlank.png,,,,['num_4'],,,,,,0,7,7,7,,,,,,,,,['num_4'],8,0.0549472144339,0,"['num_1', 'num_4']",0,"[0.5898548637051135, 1.122589387698099]",,2018_May_19_1226,60.0886723048,sequenceLearningTask,001,100,
min1.png,min2.png,min3.png,min4.png,allBlank.png,,,,['num_0'],,,,,,0,7,7,7,,,,,,,,,['num_0'],8,0.0548832144123,1,['num_0'],0,[0.6582978565711528],,2018_May_19_1226,60.0886723048,sequenceLearningTask,001,100,
min1.png,min2.png,min3.png,min4.png,allBlank.png,,,,['num_0'],,,,,,0,7,7,7,,,,,,,,,['num_0'],8,0.055057573365,1,['num_0'],0,[0.5720370395574719],,2018_May_19_1226,60.0886723048,sequenceLearningTask,001,100,
min1.png,min2.png,min3.png,min4.png,allBlank.png,,,,['num_4'],,,,,,0,7,7,7,,,,,,,,,['num_4'],8,0.0502768612932,1,['num_4'],0,[0.5616259754169732],,2018_May_19_1226,60.0886723048,sequenceLearningTask,001,100,
min1.png,min2.png,min3.png,min4.png,allBlank.png,,,,['num_1'],,,,,,0,7,7,7,,,,,,,,,['num_1'],8,0.0507634247188,0,"['num_1', 'num_1']",0,"[0.00032779457978904247, 0.39313182374462485]",,2018_May_19_1226,60.0886723048,sequenceLearningTask,001,100,
min1.png,min2.png,min3.png,min4.png,allBlank.png,,,,['num_0'],,,,,,0,7,7,7,,,,,,,,,['num_0'],8,0.0531511139125,0,"['num_1', 'num_0']",0,"[0.47345213522203267, 0.6072817142121494]",,2018_May_19_1226,60.0886723048,sequenceLearningTask,001,100,
min1.png,min2.png,min3.png,min4.png,allBlank.png,,,,['num_7'],,,,,,0,8,8,8,,,,,,,,,['num_7'],9,0.0538555234671,1,['num_7'],0,[0.6046478713396937],,2018_May_19_1226,60.0886723048,sequenceLearningTask,001,100,
min1.png,min2.png,min3.png,min4.png,allBlank.png,,,,['num_1'],,,,,,0,8,8,8,,,,,,,,,['num_1'],9,0.0552754192613,0,"['num_4', 'num_1']",0,"[0.4221348650753498, 0.5054012241307646]",,2018_May_19_1226,60.0886723048,sequenceLearningTask,001,100,
min1.png,min2.png,min3.png,min4.png,allBlank.png,,,,['num_4'],,,,,,0,8,8,8,,,,,,,,,['num_4'],9,0.0527318324894,1,['num_4'],0,[0.5917264511808753],,2018_May_19_1226,60.0886723048,sequenceLearningTask,001,100,
min1.png,min2.png,min3.png,min4.png,allBlank.png,,,,['num_0'],,,,,,0,8,8,8,,,,,,,,,['num_0'],9,0.0576918264851,0,"['num_1', 'num_0']",0,"[0.470550395315513, 0.8865781908389181]",,2018_May_19_1226,60.0886723048,sequenceLearningTask,001,100,
min1.png,min2.png,min3.png,min4.png,allBlank.png,,,,['num_0'],,,,,,0,8,8,8,,,,,,,,,['num_0'],9,0.0537451647688,1,['num_0'],0,[0.5906228628009558],,2018_May_19_1226,60.0886723048,sequenceLearningTask,001,100,
min1.png,min2.png,min3.png,min4.png,allBlank.png,,,,['num_4'],,,,,,0,8,8,8,,,,,,,,,['num_4'],9,0.0426990245469,0,"['num_1', 'num_4']",0,"[0.7014826238155365, 1.3848327572923154]",,2018_May_19_1226,60.0886723048,sequenceLearningTask,001,100,
min1.png,min2.png,min3.png,min4.png,allBlank.png,,,,['num_1'],,,,,,0,8,8,8,,,,,,,,,['num_1'],9,0.0568914171308,1,['num_1'],0,[0.7536261493805796],,2018_May_19_1226,60.0886723048,sequenceLearningTask,001,100,
min1.png,min2.png,min3.png,min4.png,allBlank.png,,,,['num_0'],,,,,,0,8,8,8,,,,,,,,,['num_0'],9,0.061880949419,1,['num_0'],0,[0.5647828944493085],,2018_May_19_1226,60.0886723048,sequenceLearningTask,001,100,
min1.png,min2.png,min3.png,min4.png,allBlank.png,,,,['num_7'],,,,,,0,9,9,9,,,,,,,,,['num_7'],10,0.0501788100228,1,['num_7'],0,[0.4930160087533295],,2018_May_19_1226,60.0886723048,sequenceLearningTask,001,100,
min1.png,min2.png,min3.png,min4.png,allBlank.png,,,,['num_1'],,,,,,0,9,9,9,,,,,,,,,['num_1'],10,0.0601874131244,0,"['num_4', 'num_4', 'num_1']",0,"[0.58491784427315, 1.317456429824233, 1.4016278134658933]",,2018_May_19_1226,60.0886723048,sequenceLearningTask,001,100,
min1.png,min2.png,min3.png,min4.png,allBlank.png,,,,['num_4'],,,,,,0,9,9,9,,,,,,,,,['num_4'],10,0.0531958320644,0,"['num_1', 'num_4']",0,"[0.0002884098794311285, 0.6246380002703518]",,2018_May_19_1226,60.0886723048,sequenceLearningTask,001,100,
min1.png,min2.png,min3.png,min4.png,allBlank.png,,,,['num_0'],,,,,,0,9,9,9,,,,,,,,,['num_0'],10,0.0588261841331,0,"['num_1', 'num_0']",0,"[0.5348387265112251, 0.6352291670627892]",,2018_May_19_1226,60.0886723048,sequenceLearningTask,001,100,
min1.png,min2.png,min3.png,min4.png,allBlank.png,,,,['num_0'],,,,,,0,9,9,9,,,,,,,,,['num_0'],10,0.0492175805848,1,['num_0'],0,[0.4952937492635101],,2018_May_19_1226,60.0886723048,sequenceLearningTask,001,100,
min1.png,min2.png,min3.png,min4.png,allBlank.png,,,,['num_4'],,,,,,0,9,9,9,,,,,,,,,['num_4'],10,0.0491695804521,0,"['num_1', 'num_4']",0,"[0.47789110406301916, 0.7276155145373195]",,2018_May_19_1226,60.0886723048,sequenceLearningTask,001,100,
min1.png,min2.png,min3.png,min4.png,allBlank.png,,,,['num_1'],,,,,,0,9,9,9,,,,,,,,,['num_1'],10,0.0617488468997,1,['num_1'],0,[0.43225259613245726],,2018_May_19_1226,60.0886723048,sequenceLearningTask,001,100,
min1.png,min2.png,min3.png,min4.png,allBlank.png,,,,['num_0'],,,,,,0,9,9,9,,,,,,,,,['num_0'],10,0.0599043364637,1,['num_0'],0,[0.8502586458344012],,2018_May_19_1226,60.0886723048,sequenceLearningTask,001,100,
min1.png,min2.png,min3.png,min4.png,allBlank.png,,,,,,,,,,0,9,9,9,,,,,0,-1,-1,0,,,,,,,,,2018_May_19_1226,60.0886723048,sequenceLearningTask,001,100,
