pawPatrol1,pawPatrol2,pawPatrol3,pawPatrol4,blank,allowableKey,correctKey,correctKeyPressNum,posLoc,correctKeyPress,randomPaw,im_size,trials.thisRepN,trials.thisTrialN,trials.thisN,trials.thisIndex,trials_3.thisRepN,trials_3.thisTrialN,trials_3.thisN,trials_3.thisIndex,trials_2.thisRepN,trials_2.thisTrialN,trials_2.thisN,trials_2.thisIndex,trials_questions.thisRepN,trials_questions.thisTrialN,trials_questions.thisN,trials_questions.thisIndex,correctLocation,correctImage,repetitionNumber,stimulusPresent.t,responseTimeCorrect,pressLoc,responseTimeIncorrect,trialIncorrect,date,frameRate,expName,session,participant,
min1.png,min2.png,min3.png,min4.png,allBlank.png,,,,,,,,,,,,0,0,0,0,,,,,,,,,"(-0.75, -0.04)",images/min1.png,1,0.104237495689,0.841208680533,[ 0.9875      0.87222222],,,2018_Jun_30_1127,59.7357902181,sequenceLearningTask,001,104,
min1.png,min2.png,min3.png,min4.png,allBlank.png,,,,,,,,,,,,0,0,0,0,,,,,,,,,"(0.25, -0.04)",images/min3.png,1,0.075154020451,0.686050180113,[-0.8265625  -0.02777778],,,2018_Jun_30_1127,59.7357902181,sequenceLearningTask,001,104,
min1.png,min2.png,min3.png,min4.png,allBlank.png,,,,,,,,,,,,0,0,0,0,,,,,,,,,"(-0.25, -0.04)",images/min2.png,1,0.0790633521974,0.964108322514,[ 0.2921875  -0.01944444],,,2018_Jun_30_1127,59.7357902181,sequenceLearningTask,001,104,
min1.png,min2.png,min3.png,min4.png,allBlank.png,,,,,,,,,,,,0,0,0,0,,,,,,,,,"(0.75, -0.04)",images/min4.png,1,0.0986703184899,0.728720521438,[-0.1734375  -0.13611111],,,2018_Jun_30_1127,59.7357902181,sequenceLearningTask,001,104,
min1.png,min2.png,min3.png,min4.png,allBlank.png,,,,,,,,,,,,0,0,0,0,,,,,,,,,"(0.75, -0.04)",images/min4.png,1,0.0582781299017,0.719311294728,[ 0.721875   -0.11388889],,,2018_Jun_30_1127,59.7357902181,sequenceLearningTask,001,104,
min1.png,min2.png,min3.png,min4.png,allBlank.png,,,,,,,,,,,,0,0,0,0,,,,,,,,,"(-0.25, -0.04)",images/min2.png,1,0.0599450011505,0.603708880488,[ 0.7953125  -0.06388889],,,2018_Jun_30_1127,59.7357902181,sequenceLearningTask,001,104,
min1.png,min2.png,min3.png,min4.png,allBlank.png,,,,,,,,,,,,0,0,0,0,,,,,,,,,"(0.25, -0.04)",images/min3.png,1,0.052737209131,0.739822875941,[-0.1828125  -0.11111111],,,2018_Jun_30_1127,59.7357902181,sequenceLearningTask,001,104,
min1.png,min2.png,min3.png,min4.png,allBlank.png,,,,,,,,,,,,0,0,0,0,,,,,,,,,"(0.75, -0.04)",images/min4.png,1,0.0604824367911,0.649391323328,[ 0.2390625   0.01388889],,,2018_Jun_30_1127,59.7357902181,sequenceLearningTask,001,104,
min1.png,min2.png,min3.png,min4.png,allBlank.png,,,,,,,,,,,,0,1,1,1,,,,,,,,,"(-0.75, -0.04)",images/min1.png,2,0.0527429527137,0.740411593695,[ 0.65       -0.10833333],,,2018_Jun_30_1127,59.7357902181,sequenceLearningTask,001,104,
min1.png,min2.png,min3.png,min4.png,allBlank.png,,,,,,,,,,,,0,1,1,1,,,,,,,,,"(0.25, -0.04)",images/min3.png,2,0.062565307715,0.648202400771,[-0.7046875  -0.03055556],,,2018_Jun_30_1127,59.7357902181,sequenceLearningTask,001,104,
min1.png,min2.png,min3.png,min4.png,allBlank.png,,,,,,,,,,,,0,1,1,1,,,,,,,,,"(-0.25, -0.04)",images/min2.png,2,0.0592816167045,0.733740827185,[ 0.1671875  -0.10277778],,,2018_Jun_30_1127,59.7357902181,sequenceLearningTask,001,104,
min1.png,min2.png,min3.png,min4.png,allBlank.png,,,,,,,,,,,,0,1,1,1,,,,,,,,,"(0.75, -0.04)",images/min4.png,2,0.0683047923958,0.72555088182,[-0.259375   -0.23055556],,,2018_Jun_30_1127,59.7357902181,sequenceLearningTask,001,104,
min1.png,min2.png,min3.png,min4.png,allBlank.png,,,,,,,,,,,,0,1,1,1,,,,,,,,,"(0.75, -0.04)",images/min4.png,2,0.061628692667,0.646073170821,[ 0.7578125  -0.01111111],,,2018_Jun_30_1127,59.7357902181,sequenceLearningTask,001,104,
min1.png,min2.png,min3.png,min4.png,allBlank.png,,,,,,,,,,,,0,1,1,1,,,,,,,,,"(-0.25, -0.04)",images/min2.png,2,0.0574481815565,0.751761742868,[ 0.721875   -0.08333333],,,2018_Jun_30_1127,59.7357902181,sequenceLearningTask,001,104,
min1.png,min2.png,min3.png,min4.png,allBlank.png,,,,,,,,,,,,0,1,1,1,,,,,,,,,"(0.25, -0.04)",images/min3.png,2,0.0512799789431,0.613012671587,[-0.1796875  -0.08055556],,,2018_Jun_30_1127,59.7357902181,sequenceLearningTask,001,104,
min1.png,min2.png,min3.png,min4.png,allBlank.png,,,,,,,,,,,,0,1,1,1,,,,,,,,,"(0.75, -0.04)",images/min4.png,2,0.0617817181628,0.649555425858,[ 0.309375   -0.05833333],,,2018_Jun_30_1127,59.7357902181,sequenceLearningTask,001,104,
min1.png,min2.png,min3.png,min4.png,allBlank.png,,,,,,,,,,,,0,2,2,2,,,,,,,,,"(-0.75, -0.04)",images/min1.png,3,0.0579671557061,0.750359076774,[ 0.7578125   0.03055556],,,2018_Jun_30_1127,59.7357902181,sequenceLearningTask,001,104,
min1.png,min2.png,min3.png,min4.png,allBlank.png,,,,,,,,,,,,0,2,2,2,,,,,,,,,"(0.25, -0.04)",images/min3.png,3,0.0542998751625,0.605142726097,[-0.63125    -0.04722222],,,2018_Jun_30_1127,59.7357902181,sequenceLearningTask,001,104,
min1.png,min2.png,min3.png,min4.png,allBlank.png,,,,,,,,,,,,0,2,2,2,,,,,,,,,"(-0.25, -0.04)",images/min2.png,3,0.0518670555903,0.693341664271,[ 0.2765625  -0.06666667],,,2018_Jun_30_1127,59.7357902181,sequenceLearningTask,001,104,
min1.png,min2.png,min3.png,min4.png,allBlank.png,,,,,,,,,,,,0,2,2,2,,,,,,,,,"(0.75, -0.04)",images/min4.png,3,0.0540877727326,0.706205248833,[-0.20625    -0.10277778],,,2018_Jun_30_1127,59.7357902181,sequenceLearningTask,001,104,
min1.png,min2.png,min3.png,min4.png,allBlank.png,,,,,,,,,,,,0,2,2,2,,,,,,,,,"(0.75, -0.04)",images/min4.png,3,0.056803669082,0.701763814664,[ 0.721875 -0.075   ],,,2018_Jun_30_1127,59.7357902181,sequenceLearningTask,001,104,
min1.png,min2.png,min3.png,min4.png,allBlank.png,,,,,,,,,,,,0,2,2,2,,,,,,,,,"(-0.25, -0.04)",images/min2.png,3,0.0643630505074,0.662297164206,[ 0.8359375   0.01666667],,,2018_Jun_30_1127,59.7357902181,sequenceLearningTask,001,104,
min1.png,min2.png,min3.png,min4.png,allBlank.png,,,,,,,,,,,,0,2,2,2,,,,,,,,,"(0.25, -0.04)",images/min3.png,3,0.0618514618836,0.613157081767,[-0.2546875  -0.08888889],,,2018_Jun_30_1127,59.7357902181,sequenceLearningTask,001,104,
min1.png,min2.png,min3.png,min4.png,allBlank.png,,,,,,,,,,,,0,2,2,2,,,,,,,,,"(0.75, -0.04)",images/min4.png,3,0.059031770681,0.622605693294,[ 0.2890625  -0.04166667],,,2018_Jun_30_1127,59.7357902181,sequenceLearningTask,001,104,
min1.png,min2.png,min3.png,min4.png,allBlank.png,,,,,,,,,,,,0,3,3,3,,,,,,,,,"(-0.75, -0.04)",images/min1.png,4,0.0574190533953,0.835682528908,[ 0.7390625   0.12777778],,,2018_Jun_30_1127,59.7357902181,sequenceLearningTask,001,104,
min1.png,min2.png,min3.png,min4.png,allBlank.png,,,,,,,,,,,,0,3,3,3,,,,,,,,,"(0.25, -0.04)",images/min3.png,4,0.0656291012419,0.562028077198,[-0.6625     -0.04722222],,,2018_Jun_30_1127,59.7357902181,sequenceLearningTask,001,104,
min1.png,min2.png,min3.png,min4.png,allBlank.png,,,,,,,,,,,,0,3,3,3,,,,,,,,,"(-0.25, -0.04)",images/min2.png,4,0.0598879754543,0.661357677425,[ 0.2625 -0.075 ],,,2018_Jun_30_1127,59.7357902181,sequenceLearningTask,001,104,
min1.png,min2.png,min3.png,min4.png,allBlank.png,,,,,,,,,,,,0,3,3,3,,,,,,,,,"(0.75, -0.04)",images/min4.png,4,0.0605132059427,0.61601328582,[-0.2625     -0.10277778],,,2018_Jun_30_1127,59.7357902181,sequenceLearningTask,001,104,
min1.png,min2.png,min3.png,min4.png,allBlank.png,,,,,,,,,,,,0,3,3,3,,,,,,,,,"(0.75, -0.04)",images/min4.png,4,0.0564373101806,0.754526459728,[ 0.7359375  0.05     ],,,2018_Jun_30_1127,59.7357902181,sequenceLearningTask,001,104,
min1.png,min2.png,min3.png,min4.png,allBlank.png,,,,,,,,,,,,0,3,3,3,,,,,,,,,"(-0.25, -0.04)",images/min2.png,4,0.0509706457378,0.677013055538,[ 0.7578125  -0.08888889],,,2018_Jun_30_1127,59.7357902181,sequenceLearningTask,001,104,
min1.png,min2.png,min3.png,min4.png,allBlank.png,,,,,,,,,,,,0,3,3,3,,,,,,,,,"(0.25, -0.04)",images/min3.png,4,0.0545649006963,0.590796475532,[-0.1765625  -0.13055556],,,2018_Jun_30_1127,59.7357902181,sequenceLearningTask,001,104,
min1.png,min2.png,min3.png,min4.png,allBlank.png,,,,,,,,,,,,0,3,3,3,,,,,,,,,"(0.75, -0.04)",images/min4.png,4,0.0558395668631,0.756431689719,[ 0.2703125  -0.11944444],,,2018_Jun_30_1127,59.7357902181,sequenceLearningTask,001,104,
min1.png,min2.png,min3.png,min4.png,allBlank.png,,,,,,,,,,,,0,4,4,4,,,,,,,,,"(-0.75, -0.04)",images/min1.png,5,0.057892078883,0.767880300293,[ 0.7328125   0.05277778],,,2018_Jun_30_1127,59.7357902181,sequenceLearningTask,001,104,
min1.png,min2.png,min3.png,min4.png,allBlank.png,,,,,,,,,,,,0,4,4,4,,,,,,,,,"(0.25, -0.04)",images/min3.png,5,0.0606034623925,0.598746420932,[-0.6359375  -0.05277778],,,2018_Jun_30_1127,59.7357902181,sequenceLearningTask,001,104,
min1.png,min2.png,min3.png,min4.png,allBlank.png,,,,,,,,,,,,0,4,4,4,,,,,,,,,"(-0.25, -0.04)",images/min2.png,5,0.0528122860705,0.674413261819,[ 0.2515625  -0.11111111],,,2018_Jun_30_1127,59.7357902181,sequenceLearningTask,001,104,
min1.png,min2.png,min3.png,min4.png,allBlank.png,,,,,,,,,,,,0,4,4,4,,,,,,,,,"(0.75, -0.04)",images/min4.png,5,0.0599138216348,0.647980862414,[-0.175      -0.02222222],,,2018_Jun_30_1127,59.7357902181,sequenceLearningTask,001,104,
min1.png,min2.png,min3.png,min4.png,allBlank.png,,,,,,,,,,,,0,4,4,4,,,,,,,,,"(0.75, -0.04)",images/min4.png,5,0.0543954649474,0.642079736572,[ 0.7078125   0.01388889],,,2018_Jun_30_1127,59.7357902181,sequenceLearningTask,001,104,
min1.png,min2.png,min3.png,min4.png,allBlank.png,,,,,,,,,,,,0,4,4,4,,,,,,,,,"(-0.25, -0.04)",images/min2.png,5,0.0734715596773,0.683569770772,[ 0.6640625  -0.01111111],,,2018_Jun_30_1127,59.7357902181,sequenceLearningTask,001,104,
min1.png,min2.png,min3.png,min4.png,allBlank.png,,,,,,,,,,,,0,4,4,4,,,,,,,,,"(0.25, -0.04)",images/min3.png,5,0.0592405910138,0.71662616753,[-0.1609375 -0.2      ],,,2018_Jun_30_1127,59.7357902181,sequenceLearningTask,001,104,
min1.png,min2.png,min3.png,min4.png,allBlank.png,,,,,,,,,,,,0,4,4,4,,,,,,,,,"(0.75, -0.04)",images/min4.png,5,0.056074643624,0.638199533103,[ 0.2578125  -0.24166667],,,2018_Jun_30_1127,59.7357902181,sequenceLearningTask,001,104,
min1.png,min2.png,min3.png,min4.png,allBlank.png,,,,,,,,,,,,0,5,5,5,,,,,,,,,"(-0.75, -0.04)",images/min1.png,6,0.0597324883565,0.894305684371,[ 0.7734375  -0.05833333],,,2018_Jun_30_1127,59.7357902181,sequenceLearningTask,001,104,
min1.png,min2.png,min3.png,min4.png,allBlank.png,,,,,,,,,,,,0,5,5,5,,,,,,,,,"(0.25, -0.04)",images/min3.png,6,0.053237311542,0.65382660355,[-0.584375   -0.11388889],,,2018_Jun_30_1127,59.7357902181,sequenceLearningTask,001,104,
min1.png,min2.png,min3.png,min4.png,allBlank.png,,,,,,,,,,,,0,5,5,5,,,,,,,,,"(-0.25, -0.04)",images/min2.png,6,0.0522440811619,0.558220488834,[ 0.1765625  -0.20833333],,,2018_Jun_30_1127,59.7357902181,sequenceLearningTask,001,104,
min1.png,min2.png,min3.png,min4.png,allBlank.png,,,,,,,,,,,,0,5,5,5,,,,,,,,,"(0.75, -0.04)",images/min4.png,6,0.0569292074069,0.788749214844,[-0.071875   -0.14722222],,,2018_Jun_30_1127,59.7357902181,sequenceLearningTask,001,104,
min1.png,min2.png,min3.png,min4.png,allBlank.png,,,,,,,,,,,,0,5,5,5,,,,,,,,,"(0.75, -0.04)",images/min4.png,6,0.052251465735,0.874510820722,[ 0.8015625  -0.28333333],,,2018_Jun_30_1127,59.7357902181,sequenceLearningTask,001,104,
min1.png,min2.png,min3.png,min4.png,allBlank.png,,,,,,,,,,,,0,5,5,5,,,,,,,,,"(-0.25, -0.04)",images/min2.png,6,0.0576504379278,0.622858821414,[ 0.7328125  -0.13055556],,,2018_Jun_30_1127,59.7357902181,sequenceLearningTask,001,104,
min1.png,min2.png,min3.png,min4.png,allBlank.png,,,,,,,,,,,,0,5,5,5,,,,,,,,,"(0.25, -0.04)",images/min3.png,6,0.0514379276428,0.5235017339,[-0.1890625  -0.12777778],,,2018_Jun_30_1127,59.7357902181,sequenceLearningTask,001,104,
min1.png,min2.png,min3.png,min4.png,allBlank.png,,,,,,,,,,,,0,5,5,5,,,,,,,,,"(0.75, -0.04)",images/min4.png,6,0.0527384399902,0.556398540968,[ 0.2578125  -0.16944444],,,2018_Jun_30_1127,59.7357902181,sequenceLearningTask,001,104,
min1.png,min2.png,min3.png,min4.png,allBlank.png,,,,,,,,,,,,0,6,6,6,,,,,,,,,"(-0.75, -0.04)",images/min1.png,7,0.0543413109845,0.752583075897,[ 0.625      -0.15277778],,,2018_Jun_30_1127,59.7357902181,sequenceLearningTask,001,104,
min1.png,min2.png,min3.png,min4.png,allBlank.png,,,,,,,,,,,,0,6,6,6,,,,,,,,,"(0.25, -0.04)",images/min3.png,7,0.0573743353598,0.602249599062,[-0.6609375  -0.11388889],,,2018_Jun_30_1127,59.7357902181,sequenceLearningTask,001,104,
min1.png,min2.png,min3.png,min4.png,allBlank.png,,,,,,,,,,,,0,6,6,6,,,,,,,,,"(-0.25, -0.04)",images/min2.png,7,0.0545575161232,0.66709921346,[ 0.2484375 -0.125    ],,,2018_Jun_30_1127,59.7357902181,sequenceLearningTask,001,104,
min1.png,min2.png,min3.png,min4.png,allBlank.png,,,,,,,,,,,,0,6,6,6,,,,,,,,,"(0.75, -0.04)",images/min4.png,7,0.05794787372,0.603118521743,[-0.178125   -0.03611111],,,2018_Jun_30_1127,59.7357902181,sequenceLearningTask,001,104,
min1.png,min2.png,min3.png,min4.png,allBlank.png,,,,,,,,,,,,0,6,6,6,,,,,,,,,"(0.75, -0.04)",images/min4.png,7,0.0555646951543,0.671204647748,[ 0.7015625  -0.13055556],,,2018_Jun_30_1127,59.7357902181,sequenceLearningTask,001,104,
min1.png,min2.png,min3.png,min4.png,allBlank.png,,,,,,,,,,,,0,6,6,6,,,,,,,,,"(-0.25, -0.04)",images/min2.png,7,0.060554231517,0.700623712502,[ 0.715625    0.03333333],,,2018_Jun_30_1127,59.7357902181,sequenceLearningTask,001,104,
min1.png,min2.png,min3.png,min4.png,allBlank.png,,,,,,,,,,,,0,6,6,6,,,,,,,,,"(0.25, -0.04)",images/min3.png,7,0.0553058234509,0.537198959151,[-0.2375     -0.19166667],,,2018_Jun_30_1127,59.7357902181,sequenceLearningTask,001,104,
min1.png,min2.png,min3.png,min4.png,allBlank.png,,,,,,,,,,,,0,6,6,6,,,,,,,,,"(0.75, -0.04)",images/min4.png,7,0.0536487984937,0.588027656195,[ 0.2546875  -0.10833333],,,2018_Jun_30_1127,59.7357902181,sequenceLearningTask,001,104,
min1.png,min2.png,min3.png,min4.png,allBlank.png,,,,,,,,,,,,0,7,7,7,,,,,,,,,"(-0.75, -0.04)",images/min1.png,8,0.0576336174272,0.835362939397,[ 0.709375   -0.05833333],,,2018_Jun_30_1127,59.7357902181,sequenceLearningTask,001,104,
min1.png,min2.png,min3.png,min4.png,allBlank.png,,,,,,,,,,,,0,7,7,7,,,,,,,,,"(0.25, -0.04)",images/min3.png,8,0.0563027460594,0.622558513889,[-0.6734375  -0.13333333],,,2018_Jun_30_1127,59.7357902181,sequenceLearningTask,001,104,
min1.png,min2.png,min3.png,min4.png,allBlank.png,,,,,,,,,,,,0,7,7,7,,,,,,,,,"(-0.25, -0.04)",images/min2.png,8,0.0667269469704,0.674488749006,[ 0.2609375  -0.05555556],,,2018_Jun_30_1127,59.7357902181,sequenceLearningTask,001,104,
min1.png,min2.png,min3.png,min4.png,allBlank.png,,,,,,,,,,,,0,7,7,7,,,,,,,,,"(0.75, -0.04)",images/min4.png,8,0.0548742339015,0.52208593965,[-0.1578125  -0.21388889],,,2018_Jun_30_1127,59.7357902181,sequenceLearningTask,001,104,
min1.png,min2.png,min3.png,min4.png,allBlank.png,,,,,,,,,,,,0,7,7,7,,,,,,,,,"(0.75, -0.04)",images/min4.png,8,0.0219794781879,0.520378863439,[ 0.734375   -0.00833333],,,2018_Jun_30_1127,59.7357902181,sequenceLearningTask,001,104,
min1.png,min2.png,min3.png,min4.png,allBlank.png,,,,,,,,,,,,0,7,7,7,,,,,,,,,"(-0.25, -0.04)",images/min2.png,8,0.0639146404574,0.695109458407,[ 0.7640625  -0.01111111],,,2018_Jun_30_1127,59.7357902181,sequenceLearningTask,001,104,
min1.png,min2.png,min3.png,min4.png,allBlank.png,,,,,,,,,,,,0,7,7,7,,,,,,,,,"(0.25, -0.04)",images/min3.png,8,0.0589271553326,0.653354808921,[-0.215625   -0.21111111],,,2018_Jun_30_1127,59.7357902181,sequenceLearningTask,001,104,
min1.png,min2.png,min3.png,min4.png,allBlank.png,,,,,,,,,,,,0,7,7,7,,,,,,,,,"(0.75, -0.04)",images/min4.png,8,0.0599728984525,0.477365547791,[ 0.153125   -0.11944444],,,2018_Jun_30_1127,59.7357902181,sequenceLearningTask,001,104,
min1.png,min2.png,min3.png,min4.png,allBlank.png,,,,,,,,,,,,0,8,8,8,,,,,,,,,"(-0.75, -0.04)",images/min1.png,9,0.061614333652,0.845831447863,[ 0.7265625   0.01111111],,,2018_Jun_30_1127,59.7357902181,sequenceLearningTask,001,104,
min1.png,min2.png,min3.png,min4.png,allBlank.png,,,,,,,,,,,,0,8,8,8,,,,,,,,,"(0.25, -0.04)",images/min3.png,9,0.0553480798844,0.620924463263,[-0.603125   -0.11944444],,,2018_Jun_30_1127,59.7357902181,sequenceLearningTask,001,104,
min1.png,min2.png,min3.png,min4.png,allBlank.png,,,,,,,,,,,,0,8,8,8,,,,,,,,,"(-0.25, -0.04)",images/min2.png,9,0.0636200765148,0.69798617519,[ 0.1859375  -0.26111111],,,2018_Jun_30_1127,59.7357902181,sequenceLearningTask,001,104,
min1.png,min2.png,min3.png,min4.png,allBlank.png,,,,,,,,,,,,0,8,8,8,,,,,,,,,"(0.75, -0.04)",images/min4.png,9,0.0522965939017,0.760078867665,[-0.165625   -0.14166667],,,2018_Jun_30_1127,59.7357902181,sequenceLearningTask,001,104,
min1.png,min2.png,min3.png,min4.png,allBlank.png,,,,,,,,,,,,0,8,8,8,,,,,,,,,"(0.75, -0.04)",images/min4.png,9,0.0586309502833,0.807109412504,[ 0.6234375  0.025    ],,,2018_Jun_30_1127,59.7357902181,sequenceLearningTask,001,104,
min1.png,min2.png,min3.png,min4.png,allBlank.png,,,,,,,,,,,,0,8,8,8,,,,,,,,,"(-0.25, -0.04)",images/min2.png,9,0.0643983326154,0.729197239387,[ 0.70625    -0.03055556],,,2018_Jun_30_1127,59.7357902181,sequenceLearningTask,001,104,
min1.png,min2.png,min3.png,min4.png,allBlank.png,,,,,,,,,,,,0,8,8,8,,,,,,,,,"(0.25, -0.04)",images/min3.png,9,0.0557205924997,0.723952933797,[-0.1765625  -0.20555556],,,2018_Jun_30_1127,59.7357902181,sequenceLearningTask,001,104,
min1.png,min2.png,min3.png,min4.png,allBlank.png,,,,,,,,,,,,0,8,8,8,,,,,,,,,"(0.75, -0.04)",images/min4.png,9,0.0606670520501,0.649809374474,[ 0.24375 -0.275  ],,,2018_Jun_30_1127,59.7357902181,sequenceLearningTask,001,104,
min1.png,min2.png,min3.png,min4.png,allBlank.png,,,,,,,,,,,,0,9,9,9,,,,,,,,,"(-0.75, -0.04)",images/min1.png,10,0.0519396709278,0.724508010549,[ 0.7390625  -0.05833333],,,2018_Jun_30_1127,59.7357902181,sequenceLearningTask,001,104,
min1.png,min2.png,min3.png,min4.png,allBlank.png,,,,,,,,,,,,0,9,9,9,,,,,,,,,"(0.25, -0.04)",images/min3.png,10,0.0629497177433,0.623975128634,[-0.6125     -0.11388889],,,2018_Jun_30_1127,59.7357902181,sequenceLearningTask,001,104,
min1.png,min2.png,min3.png,min4.png,allBlank.png,,,,,,,,,,,,0,9,9,9,,,,,,,,,"(-0.25, -0.04)",images/min2.png,10,0.0230687084841,0.654426808353,[ 0.3        -0.09722222],,,2018_Jun_30_1127,59.7357902181,sequenceLearningTask,001,104,
min1.png,min2.png,min3.png,min4.png,allBlank.png,,,,,,,,,,,,0,9,9,9,,,,,,,,,"(0.75, -0.04)",images/min4.png,10,0.0547979263356,0.807399463607,[-0.2453125  -0.16388889],,,2018_Jun_30_1127,59.7357902181,sequenceLearningTask,001,104,
min1.png,min2.png,min3.png,min4.png,allBlank.png,,,,,,,,,,,,0,9,9,9,,,,,,,,,"(0.75, -0.04)",images/min4.png,10,0.0518161838409,0.802008286351,[ 0.7328125   0.06666667],,,2018_Jun_30_1127,59.7357902181,sequenceLearningTask,001,104,
min1.png,min2.png,min3.png,min4.png,allBlank.png,,,,,,,,,,,,0,9,9,9,,,,,,,,,"(-0.25, -0.04)",images/min2.png,10,0.0614280774025,0.667985777254,[ 0.79375    -0.08055556],,,2018_Jun_30_1127,59.7357902181,sequenceLearningTask,001,104,
min1.png,min2.png,min3.png,min4.png,allBlank.png,,,,,,,,,,,,0,9,9,9,,,,,,,,,"(0.25, -0.04)",images/min3.png,10,0.0521497221198,0.624736564234,[-0.24375    -0.10833333],,,2018_Jun_30_1127,59.7357902181,sequenceLearningTask,001,104,
min1.png,min2.png,min3.png,min4.png,allBlank.png,,,,,,,,,,,,0,9,9,9,,,,,,,,,"(0.75, -0.04)",images/min4.png,10,0.0578846941935,0.787199676968,[ 0.2453125  -0.01388889],,,2018_Jun_30_1127,59.7357902181,sequenceLearningTask,001,104,
min1.png,min2.png,min3.png,min4.png,allBlank.png,,,,,,,,,,,,0,0,0,0,,,,,,,,,"(-0.75, -0.04)",images/min1.png,1,0.0313669615425,0.745758053032,[ 0.6875     -0.00833333],,,2018_Jun_30_1127,59.7357902181,sequenceLearningTask,001,104,
min1.png,min2.png,min3.png,min4.png,allBlank.png,,,,,,,,,,,,0,0,0,0,,,,,,,,,"(0.25, -0.04)",images/min3.png,1,0.0612635646248,0.563726948225,[-0.6109375  -0.04722222],,,2018_Jun_30_1127,59.7357902181,sequenceLearningTask,001,104,
min1.png,min2.png,min3.png,min4.png,allBlank.png,,,,,,,,,,,,0,0,0,0,,,,,,,,,"(-0.25, -0.04)",images/min2.png,1,0.057408386725,0.652794398833,[ 0.2921875  -0.13888889],,,2018_Jun_30_1127,59.7357902181,sequenceLearningTask,001,104,
min1.png,min2.png,min3.png,min4.png,allBlank.png,,,,,,,,,,,,0,0,0,0,,,,,,,,,"(0.75, -0.04)",images/min4.png,1,0.0575179251609,0.584574529319,[-0.196875   -0.09444444],,,2018_Jun_30_1127,59.7357902181,sequenceLearningTask,001,104,
min1.png,min2.png,min3.png,min4.png,allBlank.png,,,,,,,,,,,,0,0,0,0,,,,,,,,,"(0.75, -0.04)",images/min4.png,1,0.0547166954493,0.58923668135,[ 0.6828125  -0.03055556],,,2018_Jun_30_1127,59.7357902181,sequenceLearningTask,001,104,
min1.png,min2.png,min3.png,min4.png,allBlank.png,,,,,,,,,,,,0,0,0,0,,,,,,,,,"(-0.25, -0.04)",images/min2.png,1,0.0558067463571,0.619562002248,[ 0.6875     -0.00277778],,,2018_Jun_30_1127,59.7357902181,sequenceLearningTask,001,104,
min1.png,min2.png,min3.png,min4.png,allBlank.png,,,,,,,,,,,,0,0,0,0,,,,,,,,,"(0.25, -0.04)",images/min3.png,1,0.0595618216321,0.476932727383,[-0.1546875  -0.07777778],,,2018_Jun_30_1127,59.7357902181,sequenceLearningTask,001,104,
min1.png,min2.png,min3.png,min4.png,allBlank.png,,,,,,,,,,,,0,0,0,0,,,,,,,,,"(0.75, -0.04)",images/min4.png,1,0.0630354613531,0.579672377557,[ 0.240625    0.00555556],,,2018_Jun_30_1127,59.7357902181,sequenceLearningTask,001,104,
min1.png,min2.png,min3.png,min4.png,allBlank.png,,,,,,,,,,,,0,1,1,1,,,,,,,,,"(-0.75, -0.04)",images/min1.png,2,0.0616040773457,0.810265923967,[ 0.6953125   0.05277778],,,2018_Jun_30_1127,59.7357902181,sequenceLearningTask,001,104,
min1.png,min2.png,min3.png,min4.png,allBlank.png,,,,,,,,,,,,0,1,1,1,,,,,,,,,"(0.25, -0.04)",images/min3.png,2,0.0568012073636,0.653568552341,[-0.6640625  -0.31666667],,,2018_Jun_30_1127,59.7357902181,sequenceLearningTask,001,104,
min1.png,min2.png,min3.png,min4.png,allBlank.png,,,,,,,,,,,,0,1,1,1,,,,,,,,,"(-0.25, -0.04)",images/min2.png,2,0.0543712597573,0.672227826784,[ 0.3203125  -0.02777778],,,2018_Jun_30_1127,59.7357902181,sequenceLearningTask,001,104,
min1.png,min2.png,min3.png,min4.png,allBlank.png,,,,,,,,,,,,0,1,1,1,,,,,,,,,"(0.75, -0.04)",images/min4.png,2,0.059307052521,0.699510277016,[-0.153125   -0.09166667],,,2018_Jun_30_1127,59.7357902181,sequenceLearningTask,001,104,
min1.png,min2.png,min3.png,min4.png,allBlank.png,,,,,,,,,,,,0,1,1,1,,,,,,,,,"(0.75, -0.04)",images/min4.png,2,0.0587552579818,0.637447123067,[ 0.6984375   0.14722222],,,2018_Jun_30_1127,59.7357902181,sequenceLearningTask,001,104,
min1.png,min2.png,min3.png,min4.png,allBlank.png,,,,,,,,,,,,0,1,1,1,,,,,,,,,"(-0.25, -0.04)",images/min2.png,2,0.0523199784802,0.624789487338,[ 0.74375     0.01388889],,,2018_Jun_30_1127,59.7357902181,sequenceLearningTask,001,104,
min1.png,min2.png,min3.png,min4.png,allBlank.png,,,,,,,,,,,,0,1,1,1,,,,,,,,,"(0.25, -0.04)",images/min3.png,2,0.0588713604957,0.527736398974,[-0.1703125  -0.19166667],,,2018_Jun_30_1127,59.7357902181,sequenceLearningTask,001,104,
min1.png,min2.png,min3.png,min4.png,allBlank.png,,,,,,,,,,,,0,1,1,1,,,,,,,,,"(0.75, -0.04)",images/min4.png,2,0.0605862316443,1.13039994647,[ 0.3125 -0.2   ],,,2018_Jun_30_1127,59.7357902181,sequenceLearningTask,001,104,
min1.png,min2.png,min3.png,min4.png,allBlank.png,,,,,,,,,,,,0,2,2,2,,,,,,,,,"(-0.75, -0.04)",images/min1.png,3,0.0535425421549,1.0586990529,[ 0.740625   -0.01944444],,,2018_Jun_30_1127,59.7357902181,sequenceLearningTask,001,104,
min1.png,min2.png,min3.png,min4.png,allBlank.png,,,,,,,,,,,,0,2,2,2,,,,,,,,,"(0.25, -0.04)",images/min3.png,3,0.059311975725,0.619037694763,[-0.6296875  -0.16666667],,,2018_Jun_30_1127,59.7357902181,sequenceLearningTask,001,104,
min1.png,min2.png,min3.png,min4.png,allBlank.png,,,,,,,,,,,,0,2,2,2,,,,,,,,,"(-0.25, -0.04)",images/min2.png,3,0.0507400818169,0.879708357039,[ 0.3078125  -0.11111111],,,2018_Jun_30_1127,59.7357902181,sequenceLearningTask,001,104,
min1.png,min2.png,min3.png,min4.png,allBlank.png,,,,,,,,,,,,0,2,2,2,,,,,,,,,"(0.75, -0.04)",images/min4.png,3,0.0591244884999,0.685491821379,[-0.2296875  -0.27777778],,,2018_Jun_30_1127,59.7357902181,sequenceLearningTask,001,104,
min1.png,min2.png,min3.png,min4.png,allBlank.png,,,,,,,,,,,,0,2,2,2,,,,,,,,,"(0.75, -0.04)",images/min4.png,3,0.0533292088658,0.892372146714,[ 0.7421875  -0.09722222],,,2018_Jun_30_1127,59.7357902181,sequenceLearningTask,001,104,
min1.png,min2.png,min3.png,min4.png,allBlank.png,,,,,,,,,,,,0,2,2,2,,,,,,,,,"(-0.25, -0.04)",images/min2.png,3,0.0533263371326,0.639714609366,[ 0.80625    -0.16111111],,,2018_Jun_30_1127,59.7357902181,sequenceLearningTask,001,104,
min1.png,min2.png,min3.png,min4.png,allBlank.png,,,,,,,,,,,,0,2,2,2,,,,,,,,,"(0.25, -0.04)",images/min3.png,3,0.0612795646302,0.650682809995,[-0.14375    -0.12222222],,,2018_Jun_30_1127,59.7357902181,sequenceLearningTask,001,104,
min1.png,min2.png,min3.png,min4.png,allBlank.png,,,,,,,,,,,,0,2,2,2,,,,,,,,,"(0.75, -0.04)",images/min4.png,3,0.0603261290817,0.565387255163,[ 0.3203125  -0.04444444],,,2018_Jun_30_1127,59.7357902181,sequenceLearningTask,001,104,
min1.png,min2.png,min3.png,min4.png,allBlank.png,,,,,,,,,,,,0,3,3,3,,,,,,,,,"(-0.75, -0.04)",images/min1.png,4,0.0562912588939,0.768808710272,[ 0.7796875   0.08055556],,,2018_Jun_30_1127,59.7357902181,sequenceLearningTask,001,104,
min1.png,min2.png,min3.png,min4.png,allBlank.png,,,,,,,,,,,,0,3,3,3,,,,,,,,,"(0.25, -0.04)",images/min3.png,4,0.0586928989505,0.654207731597,[-0.6296875   0.01944444],,,2018_Jun_30_1127,59.7357902181,sequenceLearningTask,001,104,
min1.png,min2.png,min3.png,min4.png,allBlank.png,,,,,,,,,,,,0,3,3,3,,,,,,,,,"(-0.25, -0.04)",images/min2.png,4,0.0579954633722,0.755127485027,[ 0.2234375  -0.03888889],,,2018_Jun_30_1127,59.7357902181,sequenceLearningTask,001,104,
min1.png,min2.png,min3.png,min4.png,allBlank.png,,,,,,,,,,,,0,3,3,3,,,,,,,,,"(0.75, -0.04)",images/min4.png,4,0.058846745058,0.720438678749,[-0.203125   -0.14166667],,,2018_Jun_30_1127,59.7357902181,sequenceLearningTask,001,104,
min1.png,min2.png,min3.png,min4.png,allBlank.png,,,,,,,,,,,,0,3,3,3,,,,,,,,,"(0.75, -0.04)",images/min4.png,4,0.0515618250938,0.555541105336,[ 0.725      -0.11111111],,,2018_Jun_30_1127,59.7357902181,sequenceLearningTask,001,104,
min1.png,min2.png,min3.png,min4.png,allBlank.png,,,,,,,,,,,,0,3,3,3,,,,,,,,,"(-0.25, -0.04)",images/min2.png,4,0.0692089973018,0.723383908393,[ 0.7453125  -0.08333333],,,2018_Jun_30_1127,59.7357902181,sequenceLearningTask,001,104,
min1.png,min2.png,min3.png,min4.png,allBlank.png,,,,,,,,,,,,0,3,3,3,,,,,,,,,"(0.25, -0.04)",images/min3.png,4,0.0552656183718,0.55531136191,[-0.2484375  -0.24166667],,,2018_Jun_30_1127,59.7357902181,sequenceLearningTask,001,104,
min1.png,min2.png,min3.png,min4.png,allBlank.png,,,,,,,,,,,,0,3,3,3,,,,,,,,,"(0.75, -0.04)",images/min4.png,4,0.0579651044682,0.537913215114,[ 0.234375   -0.15555556],,,2018_Jun_30_1127,59.7357902181,sequenceLearningTask,001,104,
min1.png,min2.png,min3.png,min4.png,allBlank.png,,,,,,,,,,,,0,4,4,4,,,,,,,,,"(-0.75, -0.04)",images/min1.png,5,0.0575893096393,0.868352464284,[ 0.71875    -0.05277778],,,2018_Jun_30_1127,59.7357902181,sequenceLearningTask,001,104,
min1.png,min2.png,min3.png,min4.png,allBlank.png,,,,,,,,,,,,0,4,4,4,,,,,,,,,"(0.25, -0.04)",images/min3.png,5,0.0607031545369,0.633323637652,[-0.58125    -0.15833333],,,2018_Jun_30_1127,59.7357902181,sequenceLearningTask,001,104,
min1.png,min2.png,min3.png,min4.png,allBlank.png,,,,,,,,,,,,0,4,4,4,,,,,,,,,"(-0.25, -0.04)",images/min2.png,5,0.0557345411507,0.821126637398,[ 0.3234375  -0.14166667],,,2018_Jun_30_1127,59.7357902181,sequenceLearningTask,001,104,
min1.png,min2.png,min3.png,min4.png,allBlank.png,,,,,,,,,,,,0,4,4,4,,,,,,,,,"(0.75, -0.04)",images/min4.png,5,0.0551006953465,0.788982240483,[-0.1171875  -0.12222222],,,2018_Jun_30_1127,59.7357902181,sequenceLearningTask,001,104,
min1.png,min2.png,min3.png,min4.png,allBlank.png,,,,,,,,,,,,0,4,4,4,,,,,,,,,"(0.75, -0.04)",images/min4.png,5,0.0564541306812,0.520132709644,[ 0.7234375 -0.025    ],,,2018_Jun_30_1127,59.7357902181,sequenceLearningTask,001,104,
min1.png,min2.png,min3.png,min4.png,allBlank.png,,,,,,,,,,,,0,4,4,4,,,,,,,,,"(-0.25, -0.04)",images/min2.png,5,0.0411597780185,0.640433378285,[ 0.7015625  -0.06944444],,,2018_Jun_30_1127,59.7357902181,sequenceLearningTask,001,104,
min1.png,min2.png,min3.png,min4.png,allBlank.png,,,,,,,,,,,,0,4,4,4,,,,,,,,,"(0.25, -0.04)",images/min3.png,5,0.0560332076857,0.420547109563,[-0.20625    -0.13888889],,,2018_Jun_30_1127,59.7357902181,sequenceLearningTask,001,104,
min1.png,min2.png,min3.png,min4.png,allBlank.png,,,,,,,,,,,,0,4,4,4,,,,,,,,,"(0.75, -0.04)",images/min4.png,5,0.0632274613017,0.662901471718,[ 0.2640625  -0.11666667],,,2018_Jun_30_1127,59.7357902181,sequenceLearningTask,001,104,
min1.png,min2.png,min3.png,min4.png,allBlank.png,,,,,,,,,,,,0,5,5,5,,,,,,,,,"(-0.75, -0.04)",images/min1.png,6,0.0527798758121,0.724526471924,[ 0.6890625 -0.025    ],,,2018_Jun_30_1127,59.7357902181,sequenceLearningTask,001,104,
min1.png,min2.png,min3.png,min4.png,allBlank.png,,,,,,,,,,,,0,5,5,5,,,,,,,,,"(0.25, -0.04)",images/min3.png,6,0.060935359681,0.497685129172,[-0.5734375  -0.14166667],,,2018_Jun_30_1127,59.7357902181,sequenceLearningTask,001,104,
min1.png,min2.png,min3.png,min4.png,allBlank.png,,,,,,,,,,,,0,5,5,5,,,,,,,,,"(-0.25, -0.04)",images/min2.png,6,0.0581562838051,0.751089743106,[ 0.3296875  -0.07222222],,,2018_Jun_30_1127,59.7357902181,sequenceLearningTask,001,104,
min1.png,min2.png,min3.png,min4.png,allBlank.png,,,,,,,,,,,,0,5,5,5,,,,,,,,,"(0.75, -0.04)",images/min4.png,6,0.0578514634399,0.671598903951,[-0.1171875 -0.175    ],,,2018_Jun_30_1127,59.7357902181,sequenceLearningTask,001,104,
min1.png,min2.png,min3.png,min4.png,allBlank.png,,,,,,,,,,,,0,5,5,5,,,,,,,,,"(0.75, -0.04)",images/min4.png,6,0.0526711578714,0.793076187489,[ 0.7546875  -0.09722222],,,2018_Jun_30_1127,59.7357902181,sequenceLearningTask,001,104,
min1.png,min2.png,min3.png,min4.png,allBlank.png,,,,,,,,,,,,0,5,5,5,,,,,,,,,"(-0.25, -0.04)",images/min2.png,6,0.058482437511,0.700953558669,[ 0.8203125  -0.06666667],,,2018_Jun_30_1127,59.7357902181,sequenceLearningTask,001,104,
min1.png,min2.png,min3.png,min4.png,allBlank.png,,,,,,,,,,,,0,5,5,5,,,,,,,,,"(0.25, -0.04)",images/min3.png,6,0.0643958710134,0.579873403069,[-0.1390625  -0.10555556],,,2018_Jun_30_1127,59.7357902181,sequenceLearningTask,001,104,
min1.png,min2.png,min3.png,min4.png,allBlank.png,,,,,,,,,,,,0,5,5,5,,,,,,,,,"(0.75, -0.04)",images/min4.png,6,0.0388545481255,0.452069147839,[ 0.3640625  -0.14722222],,,2018_Jun_30_1127,59.7357902181,sequenceLearningTask,001,104,
min1.png,min2.png,min3.png,min4.png,allBlank.png,,,,,,,,,,,,0,6,6,6,,,,,,,,,"(-0.75, -0.04)",images/min1.png,7,0.0599191548536,0.792411982547,[ 0.6953125  -0.10833333],,,2018_Jun_30_1127,59.7357902181,sequenceLearningTask,001,104,
min1.png,min2.png,min3.png,min4.png,allBlank.png,,,,,,,,,,,,0,6,6,6,,,,,,,,,"(0.25, -0.04)",images/min3.png,7,0.056507053785,0.550860081683,[-0.6203125  -0.26111111],,,2018_Jun_30_1127,59.7357902181,sequenceLearningTask,001,104,
min1.png,min2.png,min3.png,min4.png,allBlank.png,,,,,,,,,,,,0,6,6,6,,,,,,,,,"(-0.25, -0.04)",images/min2.png,7,0.0523249015678,0.790621624328,[ 0.371875   -0.11388889],,,2018_Jun_30_1127,59.7357902181,sequenceLearningTask,001,104,
min1.png,min2.png,min3.png,min4.png,allBlank.png,,,,,,,,,,,,0,6,6,6,,,,,,,,,"(0.75, -0.04)",images/min4.png,7,0.051546235336,0.676680748002,[-0.1828125  -0.27777778],,,2018_Jun_30_1127,59.7357902181,sequenceLearningTask,001,104,
min1.png,min2.png,min3.png,min4.png,allBlank.png,,,,,,,,,,,,0,6,6,6,,,,,,,,,"(0.75, -0.04)",images/min4.png,7,0.055261926027,0.737444620579,[ 0.70625    -0.00833333],,,2018_Jun_30_1127,59.7357902181,sequenceLearningTask,001,104,
min1.png,min2.png,min3.png,min4.png,allBlank.png,,,,,,,,,,,,0,6,6,6,,,,,,,,,"(-0.25, -0.04)",images/min2.png,7,0.054813105613,0.739206671133,[ 0.690625  0.      ],,,2018_Jun_30_1127,59.7357902181,sequenceLearningTask,001,104,
min1.png,min2.png,min3.png,min4.png,allBlank.png,,,,,,,,,,,,0,6,6,6,,,,,,,,,"(0.25, -0.04)",images/min3.png,7,0.0575749507407,0.66837962321,[-0.1546875  -0.24444444],,,2018_Jun_30_1127,59.7357902181,sequenceLearningTask,001,104,
min1.png,min2.png,min3.png,min4.png,allBlank.png,,,,,,,,,,,,0,6,6,6,,,,,,,,,"(0.75, -0.04)",images/min4.png,7,0.0570691048633,0.568373100134,[ 0.2546875  -0.05277778],,,2018_Jun_30_1127,59.7357902181,sequenceLearningTask,001,104,
min1.png,min2.png,min3.png,min4.png,allBlank.png,,,,,,,,,,,,0,7,7,7,,,,,,,,,"(-0.75, -0.04)",images/min1.png,8,0.0526252090931,0.892800454167,[ 0.6265625  -0.04722222],,,2018_Jun_30_1127,59.7357902181,sequenceLearningTask,001,104,
min1.png,min2.png,min3.png,min4.png,allBlank.png,,,,,,,,,,,,0,7,7,7,,,,,,,,,"(0.25, -0.04)",images/min3.png,8,0.0550740286708,0.504599177511,[-0.5921875 -0.225    ],,,2018_Jun_30_1127,59.7357902181,sequenceLearningTask,001,104,
min1.png,min2.png,min3.png,min4.png,allBlank.png,,,,,,,,,,,,0,7,7,7,,,,,,,,,"(-0.25, -0.04)",images/min2.png,8,0.055000182474,0.723849549191,[ 0.278125   -0.00555556],,,2018_Jun_30_1127,59.7357902181,sequenceLearningTask,001,104,
min1.png,min2.png,min3.png,min4.png,allBlank.png,,,,,,,,,,,,0,7,7,7,,,,,,,,,"(0.75, -0.04)",images/min4.png,8,0.0603934112005,0.566880998202,[-0.1        -0.11944444],,,2018_Jun_30_1127,59.7357902181,sequenceLearningTask,001,104,
min1.png,min2.png,min3.png,min4.png,allBlank.png,,,,,,,,,,,,0,7,7,7,,,,,,,,,"(0.75, -0.04)",images/min4.png,8,0.0525944399415,0.577695762971,[ 0.6515625  -0.05277778],,,2018_Jun_30_1127,59.7357902181,sequenceLearningTask,001,104,
min1.png,min2.png,min3.png,min4.png,allBlank.png,,,,,,,,,,,,0,7,7,7,,,,,,,,,"(-0.25, -0.04)",images/min2.png,8,0.0554403874557,0.808662642608,[ 0.6671875   0.00833333],,,2018_Jun_30_1127,59.7357902181,sequenceLearningTask,001,104,
min1.png,min2.png,min3.png,min4.png,allBlank.png,,,,,,,,,,,,0,7,7,7,,,,,,,,,"(0.25, -0.04)",images/min3.png,8,0.0597874626983,0.736334877438,[-0.1   -0.175],,,2018_Jun_30_1127,59.7357902181,sequenceLearningTask,001,104,
min1.png,min2.png,min3.png,min4.png,allBlank.png,,,,,,,,,,,,0,7,7,7,,,,,,,,,"(0.75, -0.04)",images/min4.png,8,0.0624795641052,0.630454305443,[ 0.3453125  -0.00833333],,,2018_Jun_30_1127,59.7357902181,sequenceLearningTask,001,104,
min1.png,min2.png,min3.png,min4.png,allBlank.png,,,,,,,,,,,,0,8,8,8,,,,,,,,,"(-0.75, -0.04)",images/min1.png,9,0.0584393606987,0.832635966013,[ 0.6828125  -0.03333333],,,2018_Jun_30_1127,59.7357902181,sequenceLearningTask,001,104,
min1.png,min2.png,min3.png,min4.png,allBlank.png,,,,,,,,,,,,0,8,8,8,,,,,,,,,"(0.25, -0.04)",images/min3.png,9,0.0806096079759,0.480376828578,[-0.615625   -0.26944444],,,2018_Jun_30_1127,59.7357902181,sequenceLearningTask,001,104,
min1.png,min2.png,min3.png,min4.png,allBlank.png,,,,,,,,,,,,0,8,8,8,,,,,,,,,"(-0.25, -0.04)",images/min2.png,9,0.0589238733519,0.698590892833,[ 0.3234375  -0.06388889],,,2018_Jun_30_1127,59.7357902181,sequenceLearningTask,001,104,
min1.png,min2.png,min3.png,min4.png,allBlank.png,,,,,,,,,,,,0,8,8,8,,,,,,,,,"(0.75, -0.04)",images/min4.png,9,0.0547569005284,0.55248674762,[-0.11875 -0.25   ],,,2018_Jun_30_1127,59.7357902181,sequenceLearningTask,001,104,
min1.png,min2.png,min3.png,min4.png,allBlank.png,,,,,,,,,,,,0,8,8,8,,,,,,,,,"(0.75, -0.04)",images/min4.png,9,0.0565677717095,0.635685893008,[ 0.7140625  -0.06944444],,,2018_Jun_30_1127,59.7357902181,sequenceLearningTask,001,104,
min1.png,min2.png,min3.png,min4.png,allBlank.png,,,,,,,,,,,,0,8,8,8,,,,,,,,,"(-0.25, -0.04)",images/min2.png,9,0.0590112578357,0.701749866013,[ 0.775       0.01944444],,,2018_Jun_30_1127,59.7357902181,sequenceLearningTask,001,104,
min1.png,min2.png,min3.png,min4.png,allBlank.png,,,,,,,,,,,,0,8,8,8,,,,,,,,,"(0.25, -0.04)",images/min3.png,9,0.0596996678505,0.616490824032,[-0.1921875  -0.21666667],,,2018_Jun_30_1127,59.7357902181,sequenceLearningTask,001,104,
min1.png,min2.png,min3.png,min4.png,allBlank.png,,,,,,,,,,,,0,8,8,8,,,,,,,,,"(0.75, -0.04)",images/min4.png,9,0.0606190520339,0.565543562872,[ 0.3609375  -0.11944444],,,2018_Jun_30_1127,59.7357902181,sequenceLearningTask,001,104,
min1.png,min2.png,min3.png,min4.png,allBlank.png,,,,,,,,,,,,0,9,9,9,,,,,,,,,"(-0.75, -0.04)",images/min1.png,10,0.0524783374276,0.771861016634,[ 0.721875   -0.02222222],,,2018_Jun_30_1127,59.7357902181,sequenceLearningTask,001,104,
min1.png,min2.png,min3.png,min4.png,allBlank.png,,,,,,,,,,,,0,9,9,9,,,,,,,,,"(0.25, -0.04)",images/min3.png,10,0.0571015150053,0.634464149945,[-0.5765625  -0.29166667],,,2018_Jun_30_1127,59.7357902181,sequenceLearningTask,001,104,
min1.png,min2.png,min3.png,min4.png,allBlank.png,,,,,,,,,,,,0,9,9,9,,,,,,,,,"(-0.25, -0.04)",images/min2.png,10,0.0552254132926,0.638135533081,[ 0.3296875  -0.14722222],,,2018_Jun_30_1127,59.7357902181,sequenceLearningTask,001,104,
min1.png,min2.png,min3.png,min4.png,allBlank.png,,,,,,,,,,,,0,9,9,9,,,,,,,,,"(0.75, -0.04)",images/min4.png,10,0.0635581278475,0.798294236651,[-0.0546875  -0.07777778],,,2018_Jun_30_1127,59.7357902181,sequenceLearningTask,001,104,
min1.png,min2.png,min3.png,min4.png,allBlank.png,,,,,,,,,,,,0,9,9,9,,,,,,,,,"(0.75, -0.04)",images/min4.png,10,0.0589353604009,0.701294891769,[ 0.7359375  -0.00277778],,,2018_Jun_30_1127,59.7357902181,sequenceLearningTask,001,104,
min1.png,min2.png,min3.png,min4.png,allBlank.png,,,,,,,,,,,,0,9,9,9,,,,,,,,,"(-0.25, -0.04)",images/min2.png,10,0.0624471538467,0.785340395756,[ 0.7046875   0.01388889],,,2018_Jun_30_1127,59.7357902181,sequenceLearningTask,001,104,
min1.png,min2.png,min3.png,min4.png,allBlank.png,,,,,,,,,,,,0,9,9,9,,,,,,,,,"(0.25, -0.04)",images/min3.png,10,0.0574149508029,0.615496362792,[-0.1046875  -0.29722222],,,2018_Jun_30_1127,59.7357902181,sequenceLearningTask,001,104,
min1.png,min2.png,min3.png,min4.png,allBlank.png,,,,,,,,,,,,0,9,9,9,,,,,,,,,"(0.75, -0.04)",images/min4.png,10,0.0582051043166,0.532287781592,[ 0.2703125  -0.01111111],,,2018_Jun_30_1127,59.7357902181,sequenceLearningTask,001,104,
min1.png,min2.png,min3.png,min4.png,images/allBlank.png,"['num_7', 'num_4', 'num_1', 'num_0']",['num_0'],num_0,[4],'num_0',images/min4.png,"[(0.45, 0.79)]",,,,,0,-1,-1,0,0,0,0,3,,,,,"(0.25, 0.04)",images/min3.png,1,0.078753198497,0.549075877294,[ 0.7765625  -0.08055556],,,2018_Jun_30_1127,59.7357902181,sequenceLearningTask,001,104,
min1.png,min2.png,min3.png,min4.png,images/allBlank.png,"['num_7', 'num_4', 'num_1', 'num_0']",['num_0'],num_0,[4],'num_0',images/min4.png,"[(0.45, 0.79)]",,,,,0,-1,-1,0,0,0,0,3,,,,,"(-0.25, 0.04)",images/min2.png,1,0.0589111553272,0.653574706288,[ 0.278125   -0.00277778],,,2018_Jun_30_1127,59.7357902181,sequenceLearningTask,001,104,
min1.png,min2.png,min3.png,min4.png,images/allBlank.png,"['num_7', 'num_4', 'num_1', 'num_0']",['num_0'],num_0,[4],'num_0',images/min4.png,"[(0.45, 0.79)]",,,,,0,-1,-1,0,0,0,0,3,,,,,"(0.75, 0.04)",images/min4.png,1,0.0582280787639,0.652976552723,[-0.1546875  -0.02777778],,,2018_Jun_30_1127,59.7357902181,sequenceLearningTask,001,104,
min1.png,min2.png,min3.png,min4.png,images/allBlank.png,"['num_7', 'num_4', 'num_1', 'num_0']",['num_0'],num_0,[4],'num_0',images/min4.png,"[(0.45, 0.79)]",,,,,0,-1,-1,0,0,0,0,3,,,,,"(-0.25, 0.04)",images/min2.png,1,0.0625374102965,0.576663558371,[ 0.7734375   0.00833333],,,2018_Jun_30_1127,59.7357902181,sequenceLearningTask,001,104,
min1.png,min2.png,min3.png,min4.png,images/allBlank.png,"['num_7', 'num_4', 'num_1', 'num_0']",['num_1'],num_1,[3],'num_1',images/min3.png,"[(0.45, 0.79)]",,,,,0,-1,-1,0,0,1,1,2,,,,,"(-0.75, 0.04)",images/min1.png,2,0.0554678746266,0.934107924462,[-0.1828125 -0.175    ],,,2018_Jun_30_1127,59.7357902181,sequenceLearningTask,001,104,
min1.png,min2.png,min3.png,min4.png,images/allBlank.png,"['num_7', 'num_4', 'num_1', 'num_0']",['num_1'],num_1,[3],'num_1',images/min3.png,"[(0.45, 0.79)]",,,,,0,-1,-1,0,0,1,1,2,,,,,"(0.75, 0.04)",images/min4.png,2,0.0619938207092,0.564930640045,[-0.5984375  -0.00277778],,,2018_Jun_30_1127,59.7357902181,sequenceLearningTask,001,104,
min1.png,min2.png,min3.png,min4.png,images/allBlank.png,"['num_7', 'num_4', 'num_1', 'num_0']",['num_1'],num_1,[3],'num_1',images/min3.png,"[(0.45, 0.79)]",,,,,0,-1,-1,0,0,1,1,2,,,,,"(-0.25, 0.04)",images/min2.png,2,0.0634686918929,0.728402983281,[ 0.7390625  -0.05277778],,,2018_Jun_30_1127,59.7357902181,sequenceLearningTask,001,104,
min1.png,min2.png,min3.png,min4.png,images/allBlank.png,"['num_7', 'num_4', 'num_1', 'num_0']",['num_1'],num_1,[3],'num_1',images/min3.png,"[(0.45, 0.79)]",,,,,0,-1,-1,0,0,1,1,2,,,,,"(0.75, 0.04)",images/min4.png,2,0.0628836664837,0.596970421844,[-0.171875   -0.12777778],,,2018_Jun_30_1127,59.7357902181,sequenceLearningTask,001,104,
min1.png,min2.png,min3.png,min4.png,images/allBlank.png,"['num_7', 'num_4', 'num_1', 'num_0']",['num_7'],num_7,[1],'num_7',images/min1.png,"[(0.45, 0.79)]",,,,,0,-1,-1,0,0,2,2,0,,,,,"(0.75, 0.04)",images/min4.png,3,0.0611700261943,0.680709464359,[ 0.6828125   0.04722222],,,2018_Jun_30_1127,59.7357902181,sequenceLearningTask,001,104,
min1.png,min2.png,min3.png,min4.png,images/allBlank.png,"['num_7', 'num_4', 'num_1', 'num_0']",['num_7'],num_7,[1],'num_7',images/min1.png,"[(0.45, 0.79)]",,,,,0,-1,-1,0,0,2,2,0,,,,,"(0.75, 0.04)",images/min4.png,3,0.0584373093443,0.681972232996,[ 0.7296875  -0.08611111],,,2018_Jun_30_1127,59.7357902181,sequenceLearningTask,001,104,
min1.png,min2.png,min3.png,min4.png,images/allBlank.png,"['num_7', 'num_4', 'num_1', 'num_0']",['num_7'],num_7,[1],'num_7',images/min1.png,"[(0.45, 0.79)]",,,,,0,-1,-1,0,0,2,2,0,,,,,"(0.75, 0.04)",images/min4.png,3,0.0520401838003,0.641649377765,[ 0.6796875  -0.01388889],,,2018_Jun_30_1127,59.7357902181,sequenceLearningTask,001,104,
min1.png,min2.png,min3.png,min4.png,images/allBlank.png,"['num_7', 'num_4', 'num_1', 'num_0']",['num_7'],num_7,[1],'num_7',images/min1.png,"[(0.45, 0.79)]",,,,,0,-1,-1,0,0,2,2,0,,,,,"(-0.75, 0.04)",images/min1.png,3,0.0652451014612,0.961091298028,[ 0.728125  0.025   ],,,2018_Jun_30_1127,59.7357902181,sequenceLearningTask,001,104,
min1.png,min2.png,min3.png,min4.png,images/allBlank.png,"['num_7', 'num_4', 'num_1', 'num_0']",['num_4'],num_4,[2],'num_4',images/min2.png,"[(0.45, 0.79)]",,,,,0,-1,-1,0,0,3,3,1,,,,,"(-0.75, 0.04)",images/min1.png,4,0.0584668477532,0.81900561275,[-0.5578125  -0.06111111],,,2018_Jun_30_1127,59.7357902181,sequenceLearningTask,001,104,
min1.png,min2.png,min3.png,min4.png,images/allBlank.png,"['num_7', 'num_4', 'num_1', 'num_0']",['num_4'],num_4,[2],'num_4',images/min2.png,"[(0.45, 0.79)]",,,,,0,-1,-1,0,0,3,3,1,,,,,"(-0.25, 0.04)",images/min2.png,4,0.0552849003579,0.686368538998,[-0.5765625  -0.11388889],,,2018_Jun_30_1127,59.7357902181,sequenceLearningTask,001,104,
min1.png,min2.png,min3.png,min4.png,images/allBlank.png,"['num_7', 'num_4', 'num_1', 'num_0']",['num_4'],num_4,[2],'num_4',images/min2.png,"[(0.45, 0.79)]",,,,,0,-1,-1,0,0,3,3,1,,,,,"(0.25, 0.04)",images/min3.png,4,0.0540492086438,0.554523259634,[-0.225      -0.01944444],,,2018_Jun_30_1127,59.7357902181,sequenceLearningTask,001,104,
min1.png,min2.png,min3.png,min4.png,images/allBlank.png,"['num_7', 'num_4', 'num_1', 'num_0']",['num_4'],num_4,[2],'num_4',images/min2.png,"[(0.45, 0.79)]",,,,,0,-1,-1,0,0,3,3,1,,,,,"(-0.25, 0.04)",images/min2.png,4,0.0622736155055,0.711839707918,[ 0.2953125  -0.01388889],,,2018_Jun_30_1127,59.7357902181,sequenceLearningTask,001,104,
min1.png,min2.png,min3.png,min4.png,images/allBlank.png,"['num_7', 'num_4', 'num_1', 'num_0']",['num_7'],num_7,[1],'num_7',images/min1.png,"[(0.45, 0.79)]",,,,,0,-1,-1,0,1,0,4,0,,,,,"(-0.75, 0.04)",images/min1.png,5,0.0663917675847,0.889966404065,[-0.1859375  -0.06944444],,,2018_Jun_30_1127,59.7357902181,sequenceLearningTask,001,104,
min1.png,min2.png,min3.png,min4.png,images/allBlank.png,"['num_7', 'num_4', 'num_1', 'num_0']",['num_7'],num_7,[1],'num_7',images/min1.png,"[(0.45, 0.79)]",,,,,0,-1,-1,0,1,0,4,0,,,,,"(-0.75, 0.04)",images/min1.png,5,0.0605542316334,0.882458304637,[-0.571875   -0.11388889],,,2018_Jun_30_1127,59.7357902181,sequenceLearningTask,001,104,
min1.png,min2.png,min3.png,min4.png,images/allBlank.png,"['num_7', 'num_4', 'num_1', 'num_0']",['num_7'],num_7,[1],'num_7',images/min1.png,"[(0.45, 0.79)]",,,,,0,-1,-1,0,1,0,4,0,,,,,"(-0.75, 0.04)",images/min1.png,5,0.061400179984,0.784427165287,[-0.58125    -0.14444444],,,2018_Jun_30_1127,59.7357902181,sequenceLearningTask,001,104,
min1.png,min2.png,min3.png,min4.png,images/allBlank.png,"['num_7', 'num_4', 'num_1', 'num_0']",['num_7'],num_7,[1],'num_7',images/min1.png,"[(0.45, 0.79)]",,,,,0,-1,-1,0,1,0,4,0,,,,,"(-0.25, 0.04)",images/min2.png,5,0.0570059253369,0.767707992811,[-0.6703125  -0.16388889],,,2018_Jun_30_1127,59.7357902181,sequenceLearningTask,001,104,
min1.png,min2.png,min3.png,min4.png,images/allBlank.png,"['num_7', 'num_4', 'num_1', 'num_0']",['num_1'],num_1,[3],'num_1',images/min3.png,"[(0.45, 0.79)]",,,,,0,-1,-1,0,1,1,5,2,,,,,"(0.75, 0.04)",images/min4.png,6,0.0570678740041,0.787502035964,[-0.140625   -0.07777778],,,2018_Jun_30_1127,59.7357902181,sequenceLearningTask,001,104,
min1.png,min2.png,min3.png,min4.png,images/allBlank.png,"['num_7', 'num_4', 'num_1', 'num_0']",['num_1'],num_1,[3],'num_1',images/min3.png,"[(0.45, 0.79)]",,,,,0,-1,-1,0,1,1,5,2,,,,,"(0.25, 0.04)",images/min3.png,6,0.0589472579304,0.835047862493,[ 0.7609375   0.01944444],,,2018_Jun_30_1127,59.7357902181,sequenceLearningTask,001,104,
min1.png,min2.png,min3.png,min4.png,images/allBlank.png,"['num_7', 'num_4', 'num_1', 'num_0']",['num_1'],num_1,[3],'num_1',images/min3.png,"[(0.45, 0.79)]",,,,,0,-1,-1,0,1,1,5,2,,,,,"(0.75, 0.04)",images/min4.png,6,0.056595669128,0.882899330114,[ 0.3046875  -0.03333333],,,2018_Jun_30_1127,59.7357902181,sequenceLearningTask,001,104,
min1.png,min2.png,min3.png,min4.png,images/allBlank.png,"['num_7', 'num_4', 'num_1', 'num_0']",['num_1'],num_1,[3],'num_1',images/min3.png,"[(0.45, 0.79)]",,,,,0,-1,-1,0,1,1,5,2,,,,,"(0.25, 0.04)",images/min3.png,6,0.056962027913,0.786316395388,[ 0.771875   -0.01111111],,,2018_Jun_30_1127,59.7357902181,sequenceLearningTask,001,104,
min1.png,min2.png,min3.png,min4.png,images/allBlank.png,"['num_7', 'num_4', 'num_1', 'num_0']",['num_0'],num_0,[4],'num_0',images/min4.png,"[(0.45, 0.79)]",,,,,0,-1,-1,0,1,2,6,3,,,,,"(-0.75, 0.04)",images/min1.png,7,0.0588902322343,0.97156431945,[ 0.3109375  -0.06388889],,,2018_Jun_30_1127,59.7357902181,sequenceLearningTask,001,104,
min1.png,min2.png,min3.png,min4.png,images/allBlank.png,"['num_7', 'num_4', 'num_1', 'num_0']",['num_0'],num_0,[4],'num_0',images/min4.png,"[(0.45, 0.79)]",,,,,0,-1,-1,0,1,2,6,3,,,,,"(-0.25, 0.04)",images/min2.png,7,0.0609603852499,0.60123462521,[-0.65625    -0.21666667],,,2018_Jun_30_1127,59.7357902181,sequenceLearningTask,001,104,
min1.png,min2.png,min3.png,min4.png,images/allBlank.png,"['num_7', 'num_4', 'num_1', 'num_0']",['num_0'],num_0,[4],'num_0',images/min4.png,"[(0.45, 0.79)]",,,,,0,-1,-1,0,1,2,6,3,,,,,"(-0.25, 0.04)",images/min2.png,7,0.0604487956734,0.750658563804,[-0.1140625  -0.15555556],,,2018_Jun_30_1127,59.7357902181,sequenceLearningTask,001,104,
min1.png,min2.png,min3.png,min4.png,images/allBlank.png,"['num_7', 'num_4', 'num_1', 'num_0']",['num_0'],num_0,[4],'num_0',images/min4.png,"[(0.45, 0.79)]",,,,,0,-1,-1,0,1,2,6,3,,,,,"(0.75, 0.04)",images/min4.png,7,0.0604217187501,0.937509769225,[-0.10625    -0.21388889],,,2018_Jun_30_1127,59.7357902181,sequenceLearningTask,001,104,
min1.png,min2.png,min3.png,min4.png,images/allBlank.png,"['num_7', 'num_4', 'num_1', 'num_0']",['num_4'],num_4,[2],'num_4',images/min2.png,"[(0.45, 0.79)]",,,,,0,-1,-1,0,1,3,7,1,,,,,"(0.75, 0.04)",images/min4.png,8,0.0594604884973,0.784274960286,[ 0.709375  0.      ],,,2018_Jun_30_1127,59.7357902181,sequenceLearningTask,001,104,
min1.png,min2.png,min3.png,min4.png,images/allBlank.png,"['num_7', 'num_4', 'num_1', 'num_0']",['num_4'],num_4,[2],'num_4',images/min2.png,"[(0.45, 0.79)]",,,,,0,-1,-1,0,1,3,7,1,,,,,"(-0.25, 0.04)",images/min2.png,8,0.0669554596534,0.825054020504,[ 0.703125   -0.00555556],,,2018_Jun_30_1127,59.7357902181,sequenceLearningTask,001,104,
min1.png,min2.png,min3.png,min4.png,images/allBlank.png,"['num_7', 'num_4', 'num_1', 'num_0']",['num_4'],num_4,[2],'num_4',images/min2.png,"[(0.45, 0.79)]",,,,,0,-1,-1,0,1,3,7,1,,,,,"(-0.75, 0.04)",images/min1.png,8,0.0641148454743,0.879367023823,[-0.1734375  -0.24444444],,,2018_Jun_30_1127,59.7357902181,sequenceLearningTask,001,104,
min1.png,min2.png,min3.png,min4.png,images/allBlank.png,"['num_7', 'num_4', 'num_1', 'num_0']",['num_4'],num_4,[2],'num_4',images/min2.png,"[(0.45, 0.79)]",,,,,0,-1,-1,0,1,3,7,1,,,,,"(0.75, 0.04)",images/min4.png,8,0.0569234638242,1.25756584306,[-0.6140625  -0.13333333],,,2018_Jun_30_1127,59.7357902181,sequenceLearningTask,001,104,
min1.png,min2.png,min3.png,min4.png,images/allBlank.png,"['num_7', 'num_4', 'num_1', 'num_0']",['num_0'],num_0,[4],'num_0',images/min4.png,"[(0.45, 0.79)]",,,,,0,-1,-1,0,2,0,8,3,,,,,"(-0.25, 0.04)",images/min2.png,9,0.059309924487,0.711649349076,[ 0.7        -0.14166667],,,2018_Jun_30_1127,59.7357902181,sequenceLearningTask,001,104,
min1.png,min2.png,min3.png,min4.png,images/allBlank.png,"['num_7', 'num_4', 'num_1', 'num_0']",['num_0'],num_0,[4],'num_0',images/min4.png,"[(0.45, 0.79)]",,,,,0,-1,-1,0,2,0,8,3,,,,,"(0.75, 0.04)",images/min4.png,9,0.0419224442448,0.905186910764,[-0.1421875  -0.23055556],,,2018_Jun_30_1127,59.7357902181,sequenceLearningTask,001,104,
min1.png,min2.png,min3.png,min4.png,images/allBlank.png,"['num_7', 'num_4', 'num_1', 'num_0']",['num_0'],num_0,[4],'num_0',images/min4.png,"[(0.45, 0.79)]",,,,,0,-1,-1,0,2,0,8,3,,,,,"(0.75, 0.04)",images/min4.png,9,0.0599938215455,0.783264909522,[ 0.7015625   0.06388889],,,2018_Jun_30_1127,59.7357902181,sequenceLearningTask,001,104,
min1.png,min2.png,min3.png,min4.png,images/allBlank.png,"['num_7', 'num_4', 'num_1', 'num_0']",['num_0'],num_0,[4],'num_0',images/min4.png,"[(0.45, 0.79)]",,,,,0,-1,-1,0,2,0,8,3,,,,,"(0.25, 0.04)",images/min3.png,9,0.0644311531214,0.758598663146,[ 0.70625    -0.00833333],,,2018_Jun_30_1127,59.7357902181,sequenceLearningTask,001,104,
min1.png,min2.png,min3.png,min4.png,images/allBlank.png,"['num_7', 'num_4', 'num_1', 'num_0']",['num_1'],num_1,[3],'num_1',images/min3.png,"[(0.45, 0.79)]",,,,,0,-1,-1,0,2,1,9,2,,,,,"(0.25, 0.04)",images/min3.png,10,0.0627429486485,0.726010779035,[ 0.2671875 -0.05     ],,,2018_Jun_30_1127,59.7357902181,sequenceLearningTask,001,104,
min1.png,min2.png,min3.png,min4.png,images/allBlank.png,"['num_7', 'num_4', 'num_1', 'num_0']",['num_1'],num_1,[3],'num_1',images/min3.png,"[(0.45, 0.79)]",,,,,0,-1,-1,0,2,1,9,2,,,,,"(-0.75, 0.04)",images/min1.png,10,0.0597587447846,0.935325975297,[ 0.278125   -0.00277778],,,2018_Jun_30_1127,59.7357902181,sequenceLearningTask,001,104,
min1.png,min2.png,min3.png,min4.png,images/allBlank.png,"['num_7', 'num_4', 'num_1', 'num_0']",['num_1'],num_1,[3],'num_1',images/min3.png,"[(0.45, 0.79)]",,,,,0,-1,-1,0,2,1,9,2,,,,,"(0.25, 0.04)",images/min3.png,10,0.054694131366,0.822322944761,[-0.6234375  -0.21944444],,,2018_Jun_30_1127,59.7357902181,sequenceLearningTask,001,104,
min1.png,min2.png,min3.png,min4.png,images/allBlank.png,"['num_7', 'num_4', 'num_1', 'num_0']",['num_1'],num_1,[3],'num_1',images/min3.png,"[(0.45, 0.79)]",,,,,0,-1,-1,0,2,1,9,2,,,,,"(-0.25, 0.04)",images/min2.png,10,0.0575765918475,0.737804825534,[ 0.2671875  0.       ],,,2018_Jun_30_1127,59.7357902181,sequenceLearningTask,001,104,
min1.png,min2.png,min3.png,min4.png,images/allBlank.png,"['num_7', 'num_4', 'num_1', 'num_0']",['num_7'],num_7,[1],'num_7',images/min1.png,"[(0.45, 0.79)]",,,,,0,-1,-1,0,2,2,10,0,,,,,"(-0.75, 0.04)",images/min1.png,11,0.0564615153708,0.917108136578,[-0.14375    -0.16944444],,,2018_Jun_30_1127,59.7357902181,sequenceLearningTask,001,104,
min1.png,min2.png,min3.png,min4.png,images/allBlank.png,"['num_7', 'num_4', 'num_1', 'num_0']",['num_7'],num_7,[1],'num_7',images/min1.png,"[(0.45, 0.79)]",,,,,0,-1,-1,0,2,2,10,0,,,,,"(0.25, 0.04)",images/min3.png,11,0.0622424359899,0.563403256005,[-0.5984375  -0.18611111],,,2018_Jun_30_1127,59.7357902181,sequenceLearningTask,001,104,
min1.png,min2.png,min3.png,min4.png,images/allBlank.png,"['num_7', 'num_4', 'num_1', 'num_0']",['num_7'],num_7,[1],'num_7',images/min1.png,"[(0.45, 0.79)]",,,,,0,-1,-1,0,2,2,10,0,,,,,"(0.75, 0.04)",images/min4.png,11,0.0568643868901,0.618647130788,[ 0.2984375  -0.03888889],,,2018_Jun_30_1127,59.7357902181,sequenceLearningTask,001,104,
min1.png,min2.png,min3.png,min4.png,images/allBlank.png,"['num_7', 'num_4', 'num_1', 'num_0']",['num_7'],num_7,[1],'num_7',images/min1.png,"[(0.45, 0.79)]",,,,,0,-1,-1,0,2,2,10,0,,,,,"(-0.25, 0.04)",images/min2.png,11,0.0656914602732,0.690962588298,[ 0.7171875   0.04722222],,,2018_Jun_30_1127,59.7357902181,sequenceLearningTask,001,104,
min1.png,min2.png,min3.png,min4.png,images/allBlank.png,"['num_7', 'num_4', 'num_1', 'num_0']",['num_4'],num_4,[2],'num_4',images/min2.png,"[(0.45, 0.79)]",,,,,0,-1,-1,0,2,3,11,1,,,,,"(0.25, 0.04)",images/min3.png,12,0.0620327951619,0.579667454469,[-0.2109375  -0.15555556],,,2018_Jun_30_1127,59.7357902181,sequenceLearningTask,001,104,
min1.png,min2.png,min3.png,min4.png,images/allBlank.png,"['num_7', 'num_4', 'num_1', 'num_0']",['num_4'],num_4,[2],'num_4',images/min2.png,"[(0.45, 0.79)]",,,,,0,-1,-1,0,2,3,11,1,,,,,"(-0.75, 0.04)",images/min1.png,12,0.0630350511055,0.915734188515,[ 0.3078125  -0.12777778],,,2018_Jun_30_1127,59.7357902181,sequenceLearningTask,001,104,
min1.png,min2.png,min3.png,min4.png,images/allBlank.png,"['num_7', 'num_4', 'num_1', 'num_0']",['num_4'],num_4,[2],'num_4',images/min2.png,"[(0.45, 0.79)]",,,,,0,-1,-1,0,2,3,11,1,,,,,"(-0.75, 0.04)",images/min1.png,12,0.0570157715119,0.771125837578,[-0.5875     -0.26111111],,,2018_Jun_30_1127,59.7357902181,sequenceLearningTask,001,104,
min1.png,min2.png,min3.png,min4.png,images/allBlank.png,"['num_7', 'num_4', 'num_1', 'num_0']",['num_4'],num_4,[2],'num_4',images/min2.png,"[(0.45, 0.79)]",,,,,0,-1,-1,0,2,3,11,1,,,,,"(0.25, 0.04)",images/min3.png,12,0.0654645885807,0.762485430692,[-0.5640625  -0.21388889],,,2018_Jun_30_1127,59.7357902181,sequenceLearningTask,001,104,
min1.png,min2.png,min3.png,min4.png,images/allBlank.png,"['num_7', 'num_4', 'num_1', 'num_0']",['num_4'],num_4,[2],'num_4',images/min2.png,"[(0.45, 0.79)]",,,,,0,-1,-1,0,3,0,12,1,,,,,"(0.25, 0.04)",images/min3.png,13,0.055679977173,0.633352355566,[ 0.2125     -0.02777778],,,2018_Jun_30_1127,59.7357902181,sequenceLearningTask,001,104,
min1.png,min2.png,min3.png,min4.png,images/allBlank.png,"['num_7', 'num_4', 'num_1', 'num_0']",['num_4'],num_4,[2],'num_4',images/min2.png,"[(0.45, 0.79)]",,,,,0,-1,-1,0,3,0,12,1,,,,,"(0.25, 0.04)",images/min3.png,13,0.0565534126945,0.56965063815,[ 0.3125     -0.04722222],,,2018_Jun_30_1127,59.7357902181,sequenceLearningTask,001,104,
min1.png,min2.png,min3.png,min4.png,images/allBlank.png,"['num_7', 'num_4', 'num_1', 'num_0']",['num_4'],num_4,[2],'num_4',images/min2.png,"[(0.45, 0.79)]",,,,,0,-1,-1,0,3,0,12,1,,,,,"(0.75, 0.04)",images/min4.png,13,0.0568336177384,0.618420669343,[ 0.3578125  -0.09722222],,,2018_Jun_30_1127,59.7357902181,sequenceLearningTask,001,104,
min1.png,min2.png,min3.png,min4.png,images/allBlank.png,"['num_7', 'num_4', 'num_1', 'num_0']",['num_4'],num_4,[2],'num_4',images/min2.png,"[(0.45, 0.79)]",,,,,0,-1,-1,0,3,0,12,1,,,,,"(-0.25, 0.04)",images/min2.png,13,0.0555515668821,1.26075722638,[ 0.703125 -0.075   ],0.707476632902,1,2018_Jun_30_1127,59.7357902181,sequenceLearningTask,001,104,
min1.png,min2.png,min3.png,min4.png,images/allBlank.png,"['num_7', 'num_4', 'num_1', 'num_0']",['num_7'],num_7,[1],'num_7',images/min1.png,"[(0.45, 0.79)]",,,,,0,-1,-1,0,3,1,13,0,,,,,"(0.25, 0.04)",images/min3.png,14,0.0569661305053,0.718919499894,[-0.075      -0.24722222],,,2018_Jun_30_1127,59.7357902181,sequenceLearningTask,001,104,
min1.png,min2.png,min3.png,min4.png,images/allBlank.png,"['num_7', 'num_4', 'num_1', 'num_0']",['num_7'],num_7,[1],'num_7',images/min1.png,"[(0.45, 0.79)]",,,,,0,-1,-1,0,3,1,13,0,,,,,"(0.25, 0.04)",images/min3.png,14,0.0598691037158,0.617031131405,[ 0.303125   -0.05277778],,,2018_Jun_30_1127,59.7357902181,sequenceLearningTask,001,104,
min1.png,min2.png,min3.png,min4.png,images/allBlank.png,"['num_7', 'num_4', 'num_1', 'num_0']",['num_7'],num_7,[1],'num_7',images/min1.png,"[(0.45, 0.79)]",,,,,0,-1,-1,0,3,1,13,0,,,,,"(-0.25, 0.04)",images/min2.png,14,0.0668426392367,0.82636725076,[ 0.3078125  -0.14722222],,,2018_Jun_30_1127,59.7357902181,sequenceLearningTask,001,104,
min1.png,min2.png,min3.png,min4.png,images/allBlank.png,"['num_7', 'num_4', 'num_1', 'num_0']",['num_7'],num_7,[1],'num_7',images/min1.png,"[(0.45, 0.79)]",,,,,0,-1,-1,0,3,1,13,0,,,,,"(0.75, 0.04)",images/min4.png,14,0.0541546444874,0.573324482772,[-0.14375 -0.025  ],,,2018_Jun_30_1127,59.7357902181,sequenceLearningTask,001,104,
min1.png,min2.png,min3.png,min4.png,images/allBlank.png,"['num_7', 'num_4', 'num_1', 'num_0']",['num_1'],num_1,[3],'num_1',images/min3.png,"[(0.45, 0.79)]",,,,,0,-1,-1,0,3,2,14,2,,,,,"(0.25, 0.04)",images/min3.png,15,0.0617739233421,0.561960795079,[ 0.7015625   0.03611111],,,2018_Jun_30_1127,59.7357902181,sequenceLearningTask,001,104,
min1.png,min2.png,min3.png,min4.png,images/allBlank.png,"['num_7', 'num_4', 'num_1', 'num_0']",['num_1'],num_1,[3],'num_1',images/min3.png,"[(0.45, 0.79)]",,,,,0,-1,-1,0,3,2,14,2,,,,,"(-0.25, 0.04)",images/min2.png,15,0.0678654080257,0.890988762607,[ 0.2828125  -0.13333333],,,2018_Jun_30_1127,59.7357902181,sequenceLearningTask,001,104,
min1.png,min2.png,min3.png,min4.png,images/allBlank.png,"['num_7', 'num_4', 'num_1', 'num_0']",['num_1'],num_1,[3],'num_1',images/min3.png,"[(0.45, 0.79)]",,,,,0,-1,-1,0,3,2,14,2,,,,,"(0.25, 0.04)",images/min3.png,15,0.0634678713977,0.558753821999,[-0.1140625  -0.29166667],,,2018_Jun_30_1127,59.7357902181,sequenceLearningTask,001,104,
min1.png,min2.png,min3.png,min4.png,images/allBlank.png,"['num_7', 'num_4', 'num_1', 'num_0']",['num_1'],num_1,[3],'num_1',images/min3.png,"[(0.45, 0.79)]",,,,,0,-1,-1,0,3,2,14,2,,,,,"(0.25, 0.04)",images/min3.png,15,0.0583088991698,0.616096157581,[ 0.3109375  -0.31944444],,,2018_Jun_30_1127,59.7357902181,sequenceLearningTask,001,104,
min1.png,min2.png,min3.png,min4.png,images/allBlank.png,"['num_7', 'num_4', 'num_1', 'num_0']",['num_0'],num_0,[4],'num_0',images/min4.png,"[(0.45, 0.79)]",,,,,0,-1,-1,0,3,3,15,3,,,,,"(-0.25, 0.04)",images/min2.png,16,0.0629833587445,0.694771817536,[ 0.39375    -0.15277778],,,2018_Jun_30_1127,59.7357902181,sequenceLearningTask,001,104,
min1.png,min2.png,min3.png,min4.png,images/allBlank.png,"['num_7', 'num_4', 'num_1', 'num_0']",['num_0'],num_0,[4],'num_0',images/min4.png,"[(0.45, 0.79)]",,,,,0,-1,-1,0,3,3,15,3,,,,,"(0.75, 0.04)",images/min4.png,16,0.0595925910166,0.682651617331,[-0.153125   -0.21111111],,,2018_Jun_30_1127,59.7357902181,sequenceLearningTask,001,104,
min1.png,min2.png,min3.png,min4.png,images/allBlank.png,"['num_7', 'num_4', 'num_1', 'num_0']",['num_0'],num_0,[4],'num_0',images/min4.png,"[(0.45, 0.79)]",,,,,0,-1,-1,0,3,3,15,3,,,,,"(-0.75, 0.04)",images/min1.png,16,0.060087359976,0.836465708097,[ 0.7359375   0.08055556],,,2018_Jun_30_1127,59.7357902181,sequenceLearningTask,001,104,
min1.png,min2.png,min3.png,min4.png,images/allBlank.png,"['num_7', 'num_4', 'num_1', 'num_0']",['num_0'],num_0,[4],'num_0',images/min4.png,"[(0.45, 0.79)]",,,,,0,-1,-1,0,3,3,15,3,,,,,"(0.25, 0.04)",images/min3.png,16,0.0693808945362,0.658146191505,[-0.5859375  -0.16388889],,,2018_Jun_30_1127,59.7357902181,sequenceLearningTask,001,104,
min1.png,min2.png,min3.png,min4.png,images/allBlank.png,"['num_7', 'num_4', 'num_1', 'num_0']",['num_0'],num_0,[4],'num_0',images/min4.png,"[(0.45, 0.79)]",,,,,0,-1,-1,0,4,0,16,3,,,,,"(0.75, 0.04)",images/min4.png,17,0.0598313601222,0.580678736209,[ 0.1828125  -0.02777778],,,2018_Jun_30_1127,59.7357902181,sequenceLearningTask,001,104,
min1.png,min2.png,min3.png,min4.png,images/allBlank.png,"['num_7', 'num_4', 'num_1', 'num_0']",['num_0'],num_0,[4],'num_0',images/min4.png,"[(0.45, 0.79)]",,,,,0,-1,-1,0,4,0,16,3,,,,,"(-0.75, 0.04)",images/min1.png,17,0.0604918726021,0.932563309791,[ 0.734375    0.03333333],,,2018_Jun_30_1127,59.7357902181,sequenceLearningTask,001,104,
min1.png,min2.png,min3.png,min4.png,images/allBlank.png,"['num_7', 'num_4', 'num_1', 'num_0']",['num_0'],num_0,[4],'num_0',images/min4.png,"[(0.45, 0.79)]",,,,,0,-1,-1,0,4,0,16,3,,,,,"(0.75, 0.04)",images/min4.png,17,0.0576229507569,0.718939602491,[-0.5921875  -0.19444444],,,2018_Jun_30_1127,59.7357902181,sequenceLearningTask,001,104,
min1.png,min2.png,min3.png,min4.png,images/allBlank.png,"['num_7', 'num_4', 'num_1', 'num_0']",['num_0'],num_0,[4],'num_0',images/min4.png,"[(0.45, 0.79)]",,,,,0,-1,-1,0,4,0,16,3,,,,,"(-0.75, 0.04)",images/min1.png,17,0.0630407946883,0.899762502755,[ 0.74375     0.13055556],,,2018_Jun_30_1127,59.7357902181,sequenceLearningTask,001,104,
min1.png,min2.png,min3.png,min4.png,images/allBlank.png,"['num_7', 'num_4', 'num_1', 'num_0']",['num_4'],num_4,[2],'num_4',images/min2.png,"[(0.45, 0.79)]",,,,,0,-1,-1,0,4,1,17,1,,,,,"(-0.25, 0.04)",images/min2.png,18,0.055656592478,0.802443568246,[-0.5515625  -0.24722222],,,2018_Jun_30_1127,59.7357902181,sequenceLearningTask,001,104,
min1.png,min2.png,min3.png,min4.png,images/allBlank.png,"['num_7', 'num_4', 'num_1', 'num_0']",['num_4'],num_4,[2],'num_4',images/min2.png,"[(0.45, 0.79)]",,,,,0,-1,-1,0,4,1,17,1,,,,,"(-0.25, 0.04)",images/min2.png,18,0.0587392579764,0.786892805365,[-0.0515625  -0.15277778],,,2018_Jun_30_1127,59.7357902181,sequenceLearningTask,001,104,
min1.png,min2.png,min3.png,min4.png,images/allBlank.png,"['num_7', 'num_4', 'num_1', 'num_0']",['num_4'],num_4,[2],'num_4',images/min2.png,"[(0.45, 0.79)]",,,,,0,-1,-1,0,4,1,17,1,,,,,"(0.75, 0.04)",images/min4.png,18,0.0648586400785,0.823977508117,[-0.0796875  -0.16944444],,,2018_Jun_30_1127,59.7357902181,sequenceLearningTask,001,104,
min1.png,min2.png,min3.png,min4.png,images/allBlank.png,"['num_7', 'num_4', 'num_1', 'num_0']",['num_4'],num_4,[2],'num_4',images/min2.png,"[(0.45, 0.79)]",,,,,0,-1,-1,0,4,1,17,1,,,,,"(-0.25, 0.04)",images/min2.png,18,0.0664734086022,0.761061841622,[ 0.721875   -0.08611111],,,2018_Jun_30_1127,59.7357902181,sequenceLearningTask,001,104,
min1.png,min2.png,min3.png,min4.png,images/allBlank.png,"['num_7', 'num_4', 'num_1', 'num_0']",['num_1'],num_1,[3],'num_1',images/min3.png,"[(0.45, 0.79)]",,,,,0,-1,-1,0,4,2,18,2,,,,,"(0.25, 0.04)",images/min3.png,19,0.063359563821,0.675889773993,[-0.1359375  -0.33055556],,,2018_Jun_30_1127,59.7357902181,sequenceLearningTask,001,104,
min1.png,min2.png,min3.png,min4.png,images/allBlank.png,"['num_7', 'num_4', 'num_1', 'num_0']",['num_1'],num_1,[3],'num_1',images/min3.png,"[(0.45, 0.79)]",,,,,0,-1,-1,0,4,2,18,2,,,,,"(-0.25, 0.04)",images/min2.png,19,0.0707622272894,1.00357333187,[ 0.3328125  -0.17777778],,,2018_Jun_30_1127,59.7357902181,sequenceLearningTask,001,104,
min1.png,min2.png,min3.png,min4.png,images/allBlank.png,"['num_7', 'num_4', 'num_1', 'num_0']",['num_1'],num_1,[3],'num_1',images/min3.png,"[(0.45, 0.79)]",,,,,0,-1,-1,0,4,2,18,2,,,,,"(0.25, 0.04)",images/min3.png,19,0.0681411002297,0.791956187924,[-0.1375     -0.29444444],,,2018_Jun_30_1127,59.7357902181,sequenceLearningTask,001,104,
min1.png,min2.png,min3.png,min4.png,images/allBlank.png,"['num_7', 'num_4', 'num_1', 'num_0']",['num_1'],num_1,[3],'num_1',images/min3.png,"[(0.45, 0.79)]",,,,,0,-1,-1,0,4,2,18,2,,,,,"(-0.25, 0.04)",images/min2.png,19,0.0617136156652,0.797511057463,[ 0.3046875  -0.08055556],,,2018_Jun_30_1127,59.7357902181,sequenceLearningTask,001,104,
min1.png,min2.png,min3.png,min4.png,images/allBlank.png,"['num_7', 'num_4', 'num_1', 'num_0']",['num_7'],num_7,[1],'num_7',images/min1.png,"[(0.45, 0.79)]",,,,,0,-1,-1,0,4,3,19,0,,,,,"(-0.25, 0.04)",images/min2.png,20,0.0612040774431,0.861682928517,[-0.10625    -0.35277778],,,2018_Jun_30_1127,59.7357902181,sequenceLearningTask,001,104,
min1.png,min2.png,min3.png,min4.png,images/allBlank.png,"['num_7', 'num_4', 'num_1', 'num_0']",['num_7'],num_7,[1],'num_7',images/min1.png,"[(0.45, 0.79)]",,,,,0,-1,-1,0,4,3,19,0,,,,,"(0.75, 0.04)",images/min4.png,20,0.0673209980596,1.00786461215,[-0.096875   -0.29722222],,,2018_Jun_30_1127,59.7357902181,sequenceLearningTask,001,104,
min1.png,min2.png,min3.png,min4.png,images/allBlank.png,"['num_7', 'num_4', 'num_1', 'num_0']",['num_7'],num_7,[1],'num_7',images/min1.png,"[(0.45, 0.79)]",,,,,0,-1,-1,0,4,3,19,0,,,,,"(-0.75, 0.04)",images/min1.png,20,0.0615335131297,0.831984479213,[ 0.6546875  -0.04722222],,,2018_Jun_30_1127,59.7357902181,sequenceLearningTask,001,104,
min1.png,min2.png,min3.png,min4.png,images/allBlank.png,"['num_7', 'num_4', 'num_1', 'num_0']",['num_7'],num_7,[1],'num_7',images/min1.png,"[(0.45, 0.79)]",,,,,0,-1,-1,0,4,3,19,0,,,,,"(0.75, 0.04)",images/min4.png,20,0.0586768990615,0.734408724355,[-0.578125   -0.11388889],,,2018_Jun_30_1127,59.7357902181,sequenceLearningTask,001,104,
min1.png,min2.png,min3.png,min4.png,allBlank.png,"['num_7', 'num_4', 'num_1', 'num_0']",['num_7'],num_7,[1],'num_7',images/min1.png,"[(0.45, 0.79)]",,,,,0,0,0,0,4,3,19,0,,,,,"(-0.75, -0.04)",images/min1.png,1,0.0414875727147,0.769504915108,[ 0.7140625   0.04166667],,,2018_Jun_30_1127,59.7357902181,sequenceLearningTask,001,104,
min1.png,min2.png,min3.png,min4.png,allBlank.png,"['num_7', 'num_4', 'num_1', 'num_0']",['num_7'],num_7,[1],'num_7',images/min1.png,"[(0.45, 0.79)]",,,,,0,0,0,0,4,3,19,0,,,,,"(0.25, -0.04)",images/min3.png,1,0.0637964865891,0.596001806785,[-0.540625   -0.15833333],,,2018_Jun_30_1127,59.7357902181,sequenceLearningTask,001,104,
min1.png,min2.png,min3.png,min4.png,allBlank.png,"['num_7', 'num_4', 'num_1', 'num_0']",['num_7'],num_7,[1],'num_7',images/min1.png,"[(0.45, 0.79)]",,,,,0,0,0,0,4,3,19,0,,,,,"(-0.25, -0.04)",images/min2.png,1,0.0508266458055,0.690947819152,[ 0.325      -0.04166667],,,2018_Jun_30_1127,59.7357902181,sequenceLearningTask,001,104,
min1.png,min2.png,min3.png,min4.png,allBlank.png,"['num_7', 'num_4', 'num_1', 'num_0']",['num_7'],num_7,[1],'num_7',images/min1.png,"[(0.45, 0.79)]",,,,,0,0,0,0,4,3,19,0,,,,,"(0.75, -0.04)",images/min4.png,1,0.0574789507082,0.553107055137,[-0.171875   -0.18055556],,,2018_Jun_30_1127,59.7357902181,sequenceLearningTask,001,104,
min1.png,min2.png,min3.png,min4.png,allBlank.png,"['num_7', 'num_4', 'num_1', 'num_0']",['num_7'],num_7,[1],'num_7',images/min1.png,"[(0.45, 0.79)]",,,,,0,0,0,0,4,3,19,0,,,,,"(0.75, -0.04)",images/min4.png,1,0.0641136147315,0.659950908739,[ 0.6609375  -0.06944444],,,2018_Jun_30_1127,59.7357902181,sequenceLearningTask,001,104,
min1.png,min2.png,min3.png,min4.png,allBlank.png,"['num_7', 'num_4', 'num_1', 'num_0']",['num_7'],num_7,[1],'num_7',images/min1.png,"[(0.45, 0.79)]",,,,,0,0,0,0,4,3,19,0,,,,,"(-0.25, -0.04)",images/min2.png,1,0.0528816193109,0.743143079802,[ 0.7015625   0.10277778],,,2018_Jun_30_1127,59.7357902181,sequenceLearningTask,001,104,
min1.png,min2.png,min3.png,min4.png,allBlank.png,"['num_7', 'num_4', 'num_1', 'num_0']",['num_7'],num_7,[1],'num_7',images/min1.png,"[(0.45, 0.79)]",,,,,0,0,0,0,4,3,19,0,,,,,"(0.25, -0.04)",images/min3.png,1,0.0571335150162,0.498810462072,[-0.203125   -0.13055556],,,2018_Jun_30_1127,59.7357902181,sequenceLearningTask,001,104,
min1.png,min2.png,min3.png,min4.png,allBlank.png,"['num_7', 'num_4', 'num_1', 'num_0']",['num_7'],num_7,[1],'num_7',images/min1.png,"[(0.45, 0.79)]",,,,,0,0,0,0,4,3,19,0,,,,,"(0.75, -0.04)",images/min4.png,1,0.0577731045196,0.528611475485,[ 0.290625   -0.01944444],,,2018_Jun_30_1127,59.7357902181,sequenceLearningTask,001,104,
min1.png,min2.png,min3.png,min4.png,allBlank.png,"['num_7', 'num_4', 'num_1', 'num_0']",['num_7'],num_7,[1],'num_7',images/min1.png,"[(0.45, 0.79)]",,,,,0,1,1,1,4,3,19,0,,,,,"(-0.75, -0.04)",images/min1.png,2,0.0586875656154,0.746905129519,[ 0.7453125   0.01111111],,,2018_Jun_30_1127,59.7357902181,sequenceLearningTask,001,104,
min1.png,min2.png,min3.png,min4.png,allBlank.png,"['num_7', 'num_4', 'num_1', 'num_0']",['num_7'],num_7,[1],'num_7',images/min1.png,"[(0.45, 0.79)]",,,,,0,1,1,1,4,3,19,0,,,,,"(0.25, -0.04)",images/min3.png,2,0.067128998111,0.692668433767,[-0.5703125  -0.17777778],,,2018_Jun_30_1127,59.7357902181,sequenceLearningTask,001,104,
min1.png,min2.png,min3.png,min4.png,allBlank.png,"['num_7', 'num_4', 'num_1', 'num_0']",['num_7'],num_7,[1],'num_7',images/min1.png,"[(0.45, 0.79)]",,,,,0,1,1,1,4,3,19,0,,,,,"(-0.25, -0.04)",images/min2.png,2,0.0536861318396,0.708201145404,[ 0.278125    0.00833333],,,2018_Jun_30_1127,59.7357902181,sequenceLearningTask,001,104,
min1.png,min2.png,min3.png,min4.png,allBlank.png,"['num_7', 'num_4', 'num_1', 'num_0']",['num_7'],num_7,[1],'num_7',images/min1.png,"[(0.45, 0.79)]",,,,,0,1,1,1,4,3,19,0,,,,,"(0.75, -0.04)",images/min4.png,2,0.0599880778464,0.75072625617,[-0.1046875  -0.04722222],,,2018_Jun_30_1127,59.7357902181,sequenceLearningTask,001,104,
min1.png,min2.png,min3.png,min4.png,allBlank.png,"['num_7', 'num_4', 'num_1', 'num_0']",['num_7'],num_7,[1],'num_7',images/min1.png,"[(0.45, 0.79)]",,,,,0,1,1,1,4,3,19,0,,,,,"(0.75, -0.04)",images/min4.png,2,0.0510469534202,0.609575954964,[ 0.796875    0.07777778],,,2018_Jun_30_1127,59.7357902181,sequenceLearningTask,001,104,
min1.png,min2.png,min3.png,min4.png,allBlank.png,"['num_7', 'num_4', 'num_1', 'num_0']",['num_7'],num_7,[1],'num_7',images/min1.png,"[(0.45, 0.79)]",,,,,0,1,1,1,4,3,19,0,,,,,"(-0.25, -0.04)",images/min2.png,2,0.0541415162152,0.682800540351,[ 0.7421875   0.00277778],,,2018_Jun_30_1127,59.7357902181,sequenceLearningTask,001,104,
min1.png,min2.png,min3.png,min4.png,allBlank.png,"['num_7', 'num_4', 'num_1', 'num_0']",['num_7'],num_7,[1],'num_7',images/min1.png,"[(0.45, 0.79)]",,,,,0,1,1,1,4,3,19,0,,,,,"(0.25, -0.04)",images/min3.png,2,0.0551240800414,0.55420859321,[-0.18125    -0.20555556],,,2018_Jun_30_1127,59.7357902181,sequenceLearningTask,001,104,
min1.png,min2.png,min3.png,min4.png,allBlank.png,"['num_7', 'num_4', 'num_1', 'num_0']",['num_7'],num_7,[1],'num_7',images/min1.png,"[(0.45, 0.79)]",,,,,0,1,1,1,4,3,19,0,,,,,"(0.75, -0.04)",images/min4.png,2,0.0575269508408,0.469925550744,[ 0.3015625  -0.04166667],,,2018_Jun_30_1127,59.7357902181,sequenceLearningTask,001,104,
min1.png,min2.png,min3.png,min4.png,allBlank.png,"['num_7', 'num_4', 'num_1', 'num_0']",['num_7'],num_7,[1],'num_7',images/min1.png,"[(0.45, 0.79)]",,,,,0,2,2,2,4,3,19,0,,,,,"(-0.75, -0.04)",images/min1.png,3,0.0914091933519,0.7874368052,[ 0.6578125   0.02222222],,,2018_Jun_30_1127,59.7357902181,sequenceLearningTask,001,104,
min1.png,min2.png,min3.png,min4.png,allBlank.png,"['num_7', 'num_4', 'num_1', 'num_0']",['num_7'],num_7,[1],'num_7',images/min1.png,"[(0.45, 0.79)]",,,,,0,2,2,2,4,3,19,0,,,,,"(0.25, -0.04)",images/min3.png,3,0.0537021318451,0.555708079599,[-0.6546875  -0.16111111],,,2018_Jun_30_1127,59.7357902181,sequenceLearningTask,001,104,
min1.png,min2.png,min3.png,min4.png,allBlank.png,"['num_7', 'num_4', 'num_1', 'num_0']",['num_7'],num_7,[1],'num_7',images/min1.png,"[(0.45, 0.79)]",,,,,0,2,2,2,4,3,19,0,,,,,"(-0.25, -0.04)",images/min2.png,3,0.0558313616784,0.670360340388,[ 0.3171875  -0.14166667],,,2018_Jun_30_1127,59.7357902181,sequenceLearningTask,001,104,
min1.png,min2.png,min3.png,min4.png,allBlank.png,"['num_7', 'num_4', 'num_1', 'num_0']",['num_7'],num_7,[1],'num_7',images/min1.png,"[(0.45, 0.79)]",,,,,0,2,2,2,4,3,19,0,,,,,"(0.75, -0.04)",images/min4.png,3,0.0596693089465,0.482284520054,[-0.1359375  -0.16944444],,,2018_Jun_30_1127,59.7357902181,sequenceLearningTask,001,104,
min1.png,min2.png,min3.png,min4.png,allBlank.png,"['num_7', 'num_4', 'num_1', 'num_0']",['num_7'],num_7,[1],'num_7',images/min1.png,"[(0.45, 0.79)]",,,,,0,2,2,2,4,3,19,0,,,,,"(0.75, -0.04)",images/min4.png,3,0.0636471533217,0.680576951592,[ 0.703125  0.075   ],,,2018_Jun_30_1127,59.7357902181,sequenceLearningTask,001,104,
min1.png,min2.png,min3.png,min4.png,allBlank.png,"['num_7', 'num_4', 'num_1', 'num_0']",['num_7'],num_7,[1],'num_7',images/min1.png,"[(0.45, 0.79)]",,,,,0,2,2,2,4,3,19,0,,,,,"(-0.25, -0.04)",images/min2.png,3,0.0607290007174,0.63271317631,[ 0.6234375   0.04722222],,,2018_Jun_30_1127,59.7357902181,sequenceLearningTask,001,104,
min1.png,min2.png,min3.png,min4.png,allBlank.png,"['num_7', 'num_4', 'num_1', 'num_0']",['num_7'],num_7,[1],'num_7',images/min1.png,"[(0.45, 0.79)]",,,,,0,2,2,2,4,3,19,0,,,,,"(0.25, -0.04)",images/min3.png,3,0.0603109496878,0.502150768414,[-0.209375   -0.03611111],,,2018_Jun_30_1127,59.7357902181,sequenceLearningTask,001,104,
min1.png,min2.png,min3.png,min4.png,allBlank.png,"['num_7', 'num_4', 'num_1', 'num_0']",['num_7'],num_7,[1],'num_7',images/min1.png,"[(0.45, 0.79)]",,,,,0,2,2,2,4,3,19,0,,,,,"(0.75, -0.04)",images/min4.png,3,0.0625689999433,0.564382537617,[ 0.3078125  0.05     ],,,2018_Jun_30_1127,59.7357902181,sequenceLearningTask,001,104,
min1.png,min2.png,min3.png,min4.png,allBlank.png,"['num_7', 'num_4', 'num_1', 'num_0']",['num_7'],num_7,[1],'num_7',images/min1.png,"[(0.45, 0.79)]",,,,,0,3,3,3,4,3,19,0,,,,,"(-0.75, -0.04)",images/min1.png,4,0.057340694475,0.832953504403,[ 0.6984375   0.14166667],,,2018_Jun_30_1127,59.7357902181,sequenceLearningTask,001,104,
min1.png,min2.png,min3.png,min4.png,allBlank.png,"['num_7', 'num_4', 'num_1', 'num_0']",['num_7'],num_7,[1],'num_7',images/min1.png,"[(0.45, 0.79)]",,,,,0,3,3,3,4,3,19,0,,,,,"(0.25, -0.04)",images/min3.png,4,0.0595277703833,0.564525306923,[-0.615625   -0.05277778],,,2018_Jun_30_1127,59.7357902181,sequenceLearningTask,001,104,
min1.png,min2.png,min3.png,min4.png,allBlank.png,"['num_7', 'num_4', 'num_1', 'num_0']",['num_7'],num_7,[1],'num_7',images/min1.png,"[(0.45, 0.79)]",,,,,0,3,3,3,4,3,19,0,,,,,"(-0.25, -0.04)",images/min2.png,4,0.0604931033449,0.698746380047,[ 0.275      -0.00277778],,,2018_Jun_30_1127,59.7357902181,sequenceLearningTask,001,104,
min1.png,min2.png,min3.png,min4.png,allBlank.png,"['num_7', 'num_4', 'num_1', 'num_0']",['num_7'],num_7,[1],'num_7',images/min1.png,"[(0.45, 0.79)]",,,,,0,3,3,3,4,3,19,0,,,,,"(0.75, -0.04)",images/min4.png,4,0.0550933107734,0.43778320495,[-0.1140625  -0.07777778],,,2018_Jun_30_1127,59.7357902181,sequenceLearningTask,001,104,
min1.png,min2.png,min3.png,min4.png,allBlank.png,"['num_7', 'num_4', 'num_1', 'num_0']",['num_7'],num_7,[1],'num_7',images/min1.png,"[(0.45, 0.79)]",,,,,0,3,3,3,4,3,19,0,,,,,"(0.75, -0.04)",images/min4.png,4,0.0563601820031,0.657730191713,[ 0.6625      0.04722222],,,2018_Jun_30_1127,59.7357902181,sequenceLearningTask,001,104,
min1.png,min2.png,min3.png,min4.png,allBlank.png,"['num_7', 'num_4', 'num_1', 'num_0']",['num_7'],num_7,[1],'num_7',images/min1.png,"[(0.45, 0.79)]",,,,,0,3,3,3,4,3,19,0,,,,,"(-0.25, -0.04)",images/min2.png,4,0.0521981323836,0.709427811438,[ 0.7390625   0.06111111],,,2018_Jun_30_1127,59.7357902181,sequenceLearningTask,001,104,
min1.png,min2.png,min3.png,min4.png,allBlank.png,"['num_7', 'num_4', 'num_1', 'num_0']",['num_7'],num_7,[1],'num_7',images/min1.png,"[(0.45, 0.79)]",,,,,0,3,3,3,4,3,19,0,,,,,"(0.25, -0.04)",images/min3.png,4,0.0536996702431,0.537287984742,[-0.1265625  -0.10277778],,,2018_Jun_30_1127,59.7357902181,sequenceLearningTask,001,104,
min1.png,min2.png,min3.png,min4.png,allBlank.png,"['num_7', 'num_4', 'num_1', 'num_0']",['num_7'],num_7,[1],'num_7',images/min1.png,"[(0.45, 0.79)]",,,,,0,3,3,3,4,3,19,0,,,,,"(0.75, -0.04)",images/min4.png,4,0.0621640770696,0.548916697851,[ 0.2578125  -0.13611111],,,2018_Jun_30_1127,59.7357902181,sequenceLearningTask,001,104,
min1.png,min2.png,min3.png,min4.png,allBlank.png,"['num_7', 'num_4', 'num_1', 'num_0']",['num_7'],num_7,[1],'num_7',images/min1.png,"[(0.45, 0.79)]",,,,,0,4,4,4,4,3,19,0,,,,,"(-0.75, -0.04)",images/min1.png,5,0.0602727957303,0.848272882751,[ 0.6609375   0.00555556],,,2018_Jun_30_1127,59.7357902181,sequenceLearningTask,001,104,
min1.png,min2.png,min3.png,min4.png,allBlank.png,"['num_7', 'num_4', 'num_1', 'num_0']",['num_7'],num_7,[1],'num_7',images/min1.png,"[(0.45, 0.79)]",,,,,0,4,4,4,4,3,19,0,,,,,"(0.25, -0.04)",images/min3.png,5,0.0579995659646,0.533936191117,[-0.6625     -0.08055556],,,2018_Jun_30_1127,59.7357902181,sequenceLearningTask,001,104,
min1.png,min2.png,min3.png,min4.png,allBlank.png,"['num_7', 'num_4', 'num_1', 'num_0']",['num_7'],num_7,[1],'num_7',images/min1.png,"[(0.45, 0.79)]",,,,,0,4,4,4,4,3,19,0,,,,,"(-0.25, -0.04)",images/min2.png,5,0.0592143347021,0.835141811287,[ 0.3171875   0.01944444],0.667268239078,1,2018_Jun_30_1127,59.7357902181,sequenceLearningTask,001,104,
min1.png,min2.png,min3.png,min4.png,allBlank.png,"['num_7', 'num_4', 'num_1', 'num_0']",['num_7'],num_7,[1],'num_7',images/min1.png,"[(0.45, 0.79)]",,,,,0,4,4,4,4,3,19,0,,,,,"(0.75, -0.04)",images/min4.png,5,0.0592627448495,0.583074632566,[-0.078125   -0.12222222],,,2018_Jun_30_1127,59.7357902181,sequenceLearningTask,001,104,
min1.png,min2.png,min3.png,min4.png,allBlank.png,"['num_7', 'num_4', 'num_1', 'num_0']",['num_7'],num_7,[1],'num_7',images/min1.png,"[(0.45, 0.79)]",,,,,0,4,4,4,4,3,19,0,,,,,"(0.75, -0.04)",images/min4.png,5,0.0493534156121,0.442072844249,[ 0.7046875   0.03611111],,,2018_Jun_30_1127,59.7357902181,sequenceLearningTask,001,104,
min1.png,min2.png,min3.png,min4.png,allBlank.png,"['num_7', 'num_4', 'num_1', 'num_0']",['num_7'],num_7,[1],'num_7',images/min1.png,"[(0.45, 0.79)]",,,,,0,4,4,4,4,3,19,0,,,,,"(-0.25, -0.04)",images/min2.png,5,0.0615195644787,0.699167302926,[ 0.7359375  -0.04722222],,,2018_Jun_30_1127,59.7357902181,sequenceLearningTask,001,104,
min1.png,min2.png,min3.png,min4.png,allBlank.png,"['num_7', 'num_4', 'num_1', 'num_0']",['num_7'],num_7,[1],'num_7',images/min1.png,"[(0.45, 0.79)]",,,,,0,4,4,4,4,3,19,0,,,,,"(0.25, -0.04)",images/min3.png,5,0.0574748482322,0.485668723821,[-0.1734375  -0.19444444],,,2018_Jun_30_1127,59.7357902181,sequenceLearningTask,001,104,
min1.png,min2.png,min3.png,min4.png,allBlank.png,"['num_7', 'num_4', 'num_1', 'num_0']",['num_7'],num_7,[1],'num_7',images/min1.png,"[(0.45, 0.79)]",,,,,0,4,4,4,4,3,19,0,,,,,"(0.75, -0.04)",images/min4.png,5,0.0551511568483,0.587584989727,[ 0.3328125  -0.05833333],,,2018_Jun_30_1127,59.7357902181,sequenceLearningTask,001,104,
min1.png,min2.png,min3.png,min4.png,allBlank.png,"['num_7', 'num_4', 'num_1', 'num_0']",['num_7'],num_7,[1],'num_7',images/min1.png,"[(0.45, 0.79)]",,,,,0,5,5,5,4,3,19,0,,,,,"(-0.75, -0.04)",images/min1.png,6,0.0606498213019,0.882231432945,[ 0.728125   -0.01388889],,,2018_Jun_30_1127,59.7357902181,sequenceLearningTask,001,104,
min1.png,min2.png,min3.png,min4.png,allBlank.png,"['num_7', 'num_4', 'num_1', 'num_0']",['num_7'],num_7,[1],'num_7',images/min1.png,"[(0.45, 0.79)]",,,,,0,5,5,5,4,3,19,0,,,,,"(0.25, -0.04)",images/min3.png,6,0.0551897209371,0.736463287612,[-0.653125   -0.05555556],,,2018_Jun_30_1127,59.7357902181,sequenceLearningTask,001,104,
min1.png,min2.png,min3.png,min4.png,allBlank.png,"['num_7', 'num_4', 'num_1', 'num_0']",['num_7'],num_7,[1],'num_7',images/min1.png,"[(0.45, 0.79)]",,,,,0,5,5,5,4,3,19,0,,,,,"(-0.25, -0.04)",images/min2.png,6,0.0605246931082,0.781126243644,[ 0.3328125  -0.04722222],,,2018_Jun_30_1127,59.7357902181,sequenceLearningTask,001,104,
min1.png,min2.png,min3.png,min4.png,allBlank.png,"['num_7', 'num_4', 'num_1', 'num_0']",['num_7'],num_7,[1],'num_7',images/min1.png,"[(0.45, 0.79)]",,,,,0,5,5,5,4,3,19,0,,,,,"(0.75, -0.04)",images/min4.png,6,0.061112180003,0.597358934465,[-0.1140625  -0.11944444],,,2018_Jun_30_1127,59.7357902181,sequenceLearningTask,001,104,
min1.png,min2.png,min3.png,min4.png,allBlank.png,"['num_7', 'num_4', 'num_1', 'num_0']",['num_7'],num_7,[1],'num_7',images/min1.png,"[(0.45, 0.79)]",,,,,0,5,5,5,4,3,19,0,,,,,"(0.75, -0.04)",images/min4.png,6,0.0575068481266,0.555002028705,[ 0.7234375  -0.09166667],,,2018_Jun_30_1127,59.7357902181,sequenceLearningTask,001,104,
min1.png,min2.png,min3.png,min4.png,allBlank.png,"['num_7', 'num_4', 'num_1', 'num_0']",['num_7'],num_7,[1],'num_7',images/min1.png,"[(0.45, 0.79)]",,,,,0,5,5,5,4,3,19,0,,,,,"(-0.25, -0.04)",images/min2.png,6,0.0547351570567,0.67436115921,[ 0.7671875   0.08055556],,,2018_Jun_30_1127,59.7357902181,sequenceLearningTask,001,104,
min1.png,min2.png,min3.png,min4.png,allBlank.png,"['num_7', 'num_4', 'num_1', 'num_0']",['num_7'],num_7,[1],'num_7',images/min1.png,"[(0.45, 0.79)]",,,,,0,5,5,5,4,3,19,0,,,,,"(0.25, -0.04)",images/min3.png,6,0.0589103347156,0.568214741186,[-0.0796875  -0.28888889],,,2018_Jun_30_1127,59.7357902181,sequenceLearningTask,001,104,
min1.png,min2.png,min3.png,min4.png,allBlank.png,"['num_7', 'num_4', 'num_1', 'num_0']",['num_7'],num_7,[1],'num_7',images/min1.png,"[(0.45, 0.79)]",,,,,0,5,5,5,4,3,19,0,,,,,"(0.75, -0.04)",images/min4.png,6,0.051476081484,0.511894354131,[ 0.3203125  -0.14722222],,,2018_Jun_30_1127,59.7357902181,sequenceLearningTask,001,104,
min1.png,min2.png,min3.png,min4.png,allBlank.png,"['num_7', 'num_4', 'num_1', 'num_0']",['num_7'],num_7,[1],'num_7',images/min1.png,"[(0.45, 0.79)]",,,,,0,6,6,6,4,3,19,0,,,,,"(-0.75, -0.04)",images/min1.png,7,0.0539179266198,0.80281443987,[ 0.6953125   0.03611111],,,2018_Jun_30_1127,59.7357902181,sequenceLearningTask,001,104,
min1.png,min2.png,min3.png,min4.png,allBlank.png,"['num_7', 'num_4', 'num_1', 'num_0']",['num_7'],num_7,[1],'num_7',images/min1.png,"[(0.45, 0.79)]",,,,,0,6,6,6,4,3,19,0,,,,,"(0.25, -0.04)",images/min3.png,7,0.0550883876858,0.436930692522,[-0.5875     -0.18611111],,,2018_Jun_30_1127,59.7357902181,sequenceLearningTask,001,104,
min1.png,min2.png,min3.png,min4.png,allBlank.png,"['num_7', 'num_4', 'num_1', 'num_0']",['num_7'],num_7,[1],'num_7',images/min1.png,"[(0.45, 0.79)]",,,,,0,6,6,6,4,3,19,0,,,,,"(-0.25, -0.04)",images/min2.png,7,0.0566235665465,0.717881551711,[ 0.2765625  -0.00833333],,,2018_Jun_30_1127,59.7357902181,sequenceLearningTask,001,104,
min1.png,min2.png,min3.png,min4.png,allBlank.png,"['num_7', 'num_4', 'num_1', 'num_0']",['num_7'],num_7,[1],'num_7',images/min1.png,"[(0.45, 0.79)]",,,,,0,6,6,6,4,3,19,0,,,,,"(0.75, -0.04)",images/min4.png,7,0.0532742346404,0.552247158019,[-0.225      -0.24444444],,,2018_Jun_30_1127,59.7357902181,sequenceLearningTask,001,104,
min1.png,min2.png,min3.png,min4.png,allBlank.png,"['num_7', 'num_4', 'num_1', 'num_0']",['num_7'],num_7,[1],'num_7',images/min1.png,"[(0.45, 0.79)]",,,,,0,6,6,6,4,3,19,0,,,,,"(0.75, -0.04)",images/min4.png,7,0.0617755643325,0.658963421942,[ 0.6890625  0.15     ],,,2018_Jun_30_1127,59.7357902181,sequenceLearningTask,001,104,
min1.png,min2.png,min3.png,min4.png,allBlank.png,"['num_7', 'num_4', 'num_1', 'num_0']",['num_7'],num_7,[1],'num_7',images/min1.png,"[(0.45, 0.79)]",,,,,0,6,6,6,4,3,19,0,,,,,"(-0.25, -0.04)",images/min2.png,7,0.0688524845755,0.728073957725,[ 0.7171875  -0.00833333],,,2018_Jun_30_1127,59.7357902181,sequenceLearningTask,001,104,
min1.png,min2.png,min3.png,min4.png,allBlank.png,"['num_7', 'num_4', 'num_1', 'num_0']",['num_7'],num_7,[1],'num_7',images/min1.png,"[(0.45, 0.79)]",,,,,0,6,6,6,4,3,19,0,,,,,"(0.25, -0.04)",images/min3.png,7,0.0585780271795,0.685199308675,[-0.1078125  -0.10555556],,,2018_Jun_30_1127,59.7357902181,sequenceLearningTask,001,104,
min1.png,min2.png,min3.png,min4.png,allBlank.png,"['num_7', 'num_4', 'num_1', 'num_0']",['num_7'],num_7,[1],'num_7',images/min1.png,"[(0.45, 0.79)]",,,,,0,6,6,6,4,3,19,0,,,,,"(0.75, -0.04)",images/min4.png,7,0.0557066437323,0.78817854845,[ 0.3140625   0.01944444],,,2018_Jun_30_1127,59.7357902181,sequenceLearningTask,001,104,
min1.png,min2.png,min3.png,min4.png,allBlank.png,"['num_7', 'num_4', 'num_1', 'num_0']",['num_7'],num_7,[1],'num_7',images/min1.png,"[(0.45, 0.79)]",,,,,0,7,7,7,4,3,19,0,,,,,"(-0.75, -0.04)",images/min1.png,8,0.0611466414994,0.678917054785,[ 0.8046875   0.01944444],,,2018_Jun_30_1127,59.7357902181,sequenceLearningTask,001,104,
min1.png,min2.png,min3.png,min4.png,allBlank.png,"['num_7', 'num_4', 'num_1', 'num_0']",['num_7'],num_7,[1],'num_7',images/min1.png,"[(0.45, 0.79)]",,,,,0,7,7,7,4,3,19,0,,,,,"(0.25, -0.04)",images/min3.png,8,0.0419782391982,0.616806721315,[-0.6125     -0.21111111],,,2018_Jun_30_1127,59.7357902181,sequenceLearningTask,001,104,
min1.png,min2.png,min3.png,min4.png,allBlank.png,"['num_7', 'num_4', 'num_1', 'num_0']",['num_7'],num_7,[1],'num_7',images/min1.png,"[(0.45, 0.79)]",,,,,0,7,7,7,4,3,19,0,,,,,"(-0.25, -0.04)",images/min2.png,8,0.0607601801166,0.767072505783,[ 0.26875    -0.03611111],,,2018_Jun_30_1127,59.7357902181,sequenceLearningTask,001,104,
min1.png,min2.png,min3.png,min4.png,allBlank.png,"['num_7', 'num_4', 'num_1', 'num_0']",['num_7'],num_7,[1],'num_7',images/min1.png,"[(0.45, 0.79)]",,,,,0,7,7,7,4,3,19,0,,,,,"(0.75, -0.04)",images/min4.png,8,0.0547486954601,0.48760800506,[-0.1484375  -0.14722222],,,2018_Jun_30_1127,59.7357902181,sequenceLearningTask,001,104,
min1.png,min2.png,min3.png,min4.png,allBlank.png,"['num_7', 'num_4', 'num_1', 'num_0']",['num_7'],num_7,[1],'num_7',images/min1.png,"[(0.45, 0.79)]",,,,,0,7,7,7,4,3,19,0,,,,,"(0.75, -0.04)",images/min4.png,8,0.0595934113953,0.583720786148,[ 0.7234375   0.11666667],,,2018_Jun_30_1127,59.7357902181,sequenceLearningTask,001,104,
min1.png,min2.png,min3.png,min4.png,allBlank.png,"['num_7', 'num_4', 'num_1', 'num_0']",['num_7'],num_7,[1],'num_7',images/min1.png,"[(0.45, 0.79)]",,,,,0,7,7,7,4,3,19,0,,,,,"(-0.25, -0.04)",images/min2.png,8,0.0616647951538,0.731596007594,[ 0.7171875   0.12777778],,,2018_Jun_30_1127,59.7357902181,sequenceLearningTask,001,104,
min1.png,min2.png,min3.png,min4.png,allBlank.png,"['num_7', 'num_4', 'num_1', 'num_0']",['num_7'],num_7,[1],'num_7',images/min1.png,"[(0.45, 0.79)]",,,,,0,7,7,7,4,3,19,0,,,,,"(0.25, -0.04)",images/min3.png,8,0.0583585401764,1.12154169369,[-0.1140625  -0.25833333],,,2018_Jun_30_1127,59.7357902181,sequenceLearningTask,001,104,
min1.png,min2.png,min3.png,min4.png,allBlank.png,"['num_7', 'num_4', 'num_1', 'num_0']",['num_7'],num_7,[1],'num_7',images/min1.png,"[(0.45, 0.79)]",,,,,0,7,7,7,4,3,19,0,,,,,"(0.75, -0.04)",images/min4.png,8,0.0581177198328,0.535387267591,[ 0.3234375  -0.07222222],,,2018_Jun_30_1127,59.7357902181,sequenceLearningTask,001,104,
min1.png,min2.png,min3.png,min4.png,allBlank.png,"['num_7', 'num_4', 'num_1', 'num_0']",['num_7'],num_7,[1],'num_7',images/min1.png,"[(0.45, 0.79)]",,,,,0,8,8,8,4,3,19,0,,,,,"(-0.75, -0.04)",images/min1.png,9,0.0567593612941,0.664548240136,[ 0.7015625  -0.13333333],,,2018_Jun_30_1127,59.7357902181,sequenceLearningTask,001,104,
min1.png,min2.png,min3.png,min4.png,allBlank.png,"['num_7', 'num_4', 'num_1', 'num_0']",['num_7'],num_7,[1],'num_7',images/min1.png,"[(0.45, 0.79)]",,,,,0,8,8,8,4,3,19,0,,,,,"(0.25, -0.04)",images/min3.png,9,0.0558284898289,0.619991950807,[-0.6453125  -0.01666667],,,2018_Jun_30_1127,59.7357902181,sequenceLearningTask,001,104,
min1.png,min2.png,min3.png,min4.png,allBlank.png,"['num_7', 'num_4', 'num_1', 'num_0']",['num_7'],num_7,[1],'num_7',images/min1.png,"[(0.45, 0.79)]",,,,,0,8,8,8,4,3,19,0,,,,,"(-0.25, -0.04)",images/min2.png,9,0.0625402820297,0.730098982458,[ 0.2328125  -0.06388889],,,2018_Jun_30_1127,59.7357902181,sequenceLearningTask,001,104,
min1.png,min2.png,min3.png,min4.png,allBlank.png,"['num_7', 'num_4', 'num_1', 'num_0']",['num_7'],num_7,[1],'num_7',images/min1.png,"[(0.45, 0.79)]",,,,,0,8,8,8,4,3,19,0,,,,,"(0.75, -0.04)",images/min4.png,9,0.0535511574708,0.611481185071,[-0.1328125  -0.10833333],,,2018_Jun_30_1127,59.7357902181,sequenceLearningTask,001,104,
min1.png,min2.png,min3.png,min4.png,allBlank.png,"['num_7', 'num_4', 'num_1', 'num_0']",['num_7'],num_7,[1],'num_7',images/min1.png,"[(0.45, 0.79)]",,,,,0,8,8,8,4,3,19,0,,,,,"(0.75, -0.04)",images/min4.png,9,0.0545685929246,0.657447935431,[ 0.678125    0.16944444],,,2018_Jun_30_1127,59.7357902181,sequenceLearningTask,001,104,
min1.png,min2.png,min3.png,min4.png,allBlank.png,"['num_7', 'num_4', 'num_1', 'num_0']",['num_7'],num_7,[1],'num_7',images/min1.png,"[(0.45, 0.79)]",,,,,0,8,8,8,4,3,19,0,,,,,"(-0.25, -0.04)",images/min2.png,9,0.0568155663786,0.650943732937,[ 0.6578125   0.05833333],,,2018_Jun_30_1127,59.7357902181,sequenceLearningTask,001,104,
min1.png,min2.png,min3.png,min4.png,allBlank.png,"['num_7', 'num_4', 'num_1', 'num_0']",['num_7'],num_7,[1],'num_7',images/min1.png,"[(0.45, 0.79)]",,,,,0,8,8,8,4,3,19,0,,,,,"(0.25, -0.04)",images/min3.png,9,0.0534965933766,0.542892495287,[-0.1546875  -0.06944444],,,2018_Jun_30_1127,59.7357902181,sequenceLearningTask,001,104,
min1.png,min2.png,min3.png,min4.png,allBlank.png,"['num_7', 'num_4', 'num_1', 'num_0']",['num_7'],num_7,[1],'num_7',images/min1.png,"[(0.45, 0.79)]",,,,,0,8,8,8,4,3,19,0,,,,,"(0.75, -0.04)",images/min4.png,9,0.0560512590455,0.452952019288,[ 0.30625  0.05   ],,,2018_Jun_30_1127,59.7357902181,sequenceLearningTask,001,104,
min1.png,min2.png,min3.png,min4.png,allBlank.png,"['num_7', 'num_4', 'num_1', 'num_0']",['num_7'],num_7,[1],'num_7',images/min1.png,"[(0.45, 0.79)]",,,,,0,9,9,9,4,3,19,0,,,,,"(-0.75, -0.04)",images/min1.png,10,0.062184179551,0.995794463321,[ 0.7078125   0.13055556],,,2018_Jun_30_1127,59.7357902181,sequenceLearningTask,001,104,
min1.png,min2.png,min3.png,min4.png,allBlank.png,"['num_7', 'num_4', 'num_1', 'num_0']",['num_7'],num_7,[1],'num_7',images/min1.png,"[(0.45, 0.79)]",,,,,0,9,9,9,4,3,19,0,,,,,"(0.25, -0.04)",images/min3.png,10,0.059932693257,0.499308102881,[-0.59375 -0.175  ],,,2018_Jun_30_1127,59.7357902181,sequenceLearningTask,001,104,
min1.png,min2.png,min3.png,min4.png,allBlank.png,"['num_7', 'num_4', 'num_1', 'num_0']",['num_7'],num_7,[1],'num_7',images/min1.png,"[(0.45, 0.79)]",,,,,0,9,9,9,4,3,19,0,,,,,"(-0.25, -0.04)",images/min2.png,10,0.0599724882049,0.53675301047,[ 0.25625     0.03333333],,,2018_Jun_30_1127,59.7357902181,sequenceLearningTask,001,104,
min1.png,min2.png,min3.png,min4.png,allBlank.png,"['num_7', 'num_4', 'num_1', 'num_0']",['num_7'],num_7,[1],'num_7',images/min1.png,"[(0.45, 0.79)]",,,,,0,9,9,9,4,3,19,0,,,,,"(0.75, -0.04)",images/min4.png,10,0.0531105423579,0.607971853111,[-0.1359375  -0.01388889],,,2018_Jun_30_1127,59.7357902181,sequenceLearningTask,001,104,
min1.png,min2.png,min3.png,min4.png,allBlank.png,"['num_7', 'num_4', 'num_1', 'num_0']",['num_7'],num_7,[1],'num_7',images/min1.png,"[(0.45, 0.79)]",,,,,0,9,9,9,4,3,19,0,,,,,"(0.75, -0.04)",images/min4.png,10,0.0568225407042,0.684286898817,[ 0.675       0.08055556],,,2018_Jun_30_1127,59.7357902181,sequenceLearningTask,001,104,
min1.png,min2.png,min3.png,min4.png,allBlank.png,"['num_7', 'num_4', 'num_1', 'num_0']",['num_7'],num_7,[1],'num_7',images/min1.png,"[(0.45, 0.79)]",,,,,0,9,9,9,4,3,19,0,,,,,"(-0.25, -0.04)",images/min2.png,10,0.0593808987178,0.734706570394,[ 0.6546875   0.01111111],,,2018_Jun_30_1127,59.7357902181,sequenceLearningTask,001,104,
min1.png,min2.png,min3.png,min4.png,allBlank.png,"['num_7', 'num_4', 'num_1', 'num_0']",['num_7'],num_7,[1],'num_7',images/min1.png,"[(0.45, 0.79)]",,,,,0,9,9,9,4,3,19,0,,,,,"(0.25, -0.04)",images/min3.png,10,0.0530961833429,0.539245727472,[-0.2328125  -0.00555556],,,2018_Jun_30_1127,59.7357902181,sequenceLearningTask,001,104,
min1.png,min2.png,min3.png,min4.png,allBlank.png,"['num_7', 'num_4', 'num_1', 'num_0']",['num_7'],num_7,[1],'num_7',images/min1.png,"[(0.45, 0.79)]",,,,,0,9,9,9,4,3,19,0,,,,,"(0.75, -0.04)",images/min4.png,10,0.054124285467,0.556230335846,[ 0.25        0.05555556],,,2018_Jun_30_1127,59.7357902181,sequenceLearningTask,001,104,
min1.png,min2.png,min3.png,min4.png,allBlank.png,"['num_7', 'num_4', 'num_1', 'num_0']",['num_7'],num_7,[1],'num_7',images/min1.png,"[(0.45, 0.79)]",,,,,0,9,9,9,4,3,19,0,0,-1,-1,0,,,,,,,,,2018_Jun_30_1127,59.7357902181,sequenceLearningTask,001,104,
