pawPatrol1,pawPatrol2,pawPatrol3,pawPatrol4,blank,randomPaw,correctKeyPress,allowableKey,correctKey,correctKeyPressNum,trials.thisRepN,trials.thisTrialN,trials.thisN,trials.thisIndex,trials_3.thisRepN,trials_3.thisTrialN,trials_3.thisN,trials_3.thisIndex,trials_2.thisRepN,trials_2.thisTrialN,trials_2.thisN,trials_2.thisIndex,trials_questions.thisRepN,trials_questions.thisTrialN,trials_questions.thisN,trials_questions.thisIndex,correctKey,repetitionNumber,stimulusPresent.t,trialCorrect,key_resp_9.keys,key_resp_9.corr,key_resp_9.rt,keyRespCorrect,date,frameRate,expName,session,participant,
min1.png,min2.png,min3.png,min4.png,allBlank.png,,,,['num_7'],,,,,,0,0,0,0,,,,,,,,,['num_7'],1,0.110723282094,1,['num_7'],0,[0.49074010259937495],,2018_Jun_03_1253,60.0433050852,sequenceLearningTask,001,109,
min1.png,min2.png,min3.png,min4.png,allBlank.png,,,,['num_1'],,,,,,0,0,0,0,,,,,,,,,['num_1'],1,0.0791794871911,0,"['num_4', 'num_1']",0,"[0.3485530256293714, 1.4810810256749392]",,2018_Jun_03_1253,60.0433050852,sequenceLearningTask,001,109,
min1.png,min2.png,min3.png,min4.png,allBlank.png,,,,['num_4'],,,,,,0,0,0,0,,,,,,,,,['num_4'],1,0.0812800000422,1,['num_4'],0,[0.9795220512896776],,2018_Jun_03_1253,60.0433050852,sequenceLearningTask,001,109,
min1.png,min2.png,min3.png,min4.png,allBlank.png,,,,['num_0'],,,,,,0,0,0,0,,,,,,,,,['num_0'],1,0.0792726153741,1,['num_0'],0,[0.9315885128453374],,2018_Jun_03_1253,60.0433050852,sequenceLearningTask,001,109,
min1.png,min2.png,min3.png,min4.png,allBlank.png,,,,['num_0'],,,,,,0,0,0,0,,,,,,,,,['num_0'],1,0.0483807179844,1,['num_0'],0,[0.6964644101681188],,2018_Jun_03_1253,60.0433050852,sequenceLearningTask,001,109,
min1.png,min2.png,min3.png,min4.png,allBlank.png,,,,['num_4'],,,,,,0,0,0,0,,,,,,,,,['num_4'],1,0.0542855384992,0,"['num_1', 'num_4']",0,"[0.8236717948457226, 2.2568824614863843]",,2018_Jun_03_1253,60.0433050852,sequenceLearningTask,001,109,
min1.png,min2.png,min3.png,min4.png,allBlank.png,,,,['num_1'],,,,,,0,0,0,0,,,,,,,,,['num_1'],1,0.0545686153928,1,['num_1'],0,[0.772284307749942],,2018_Jun_03_1253,60.0433050852,sequenceLearningTask,001,109,
min1.png,min2.png,min3.png,min4.png,allBlank.png,,,,['num_0'],,,,,,0,0,0,0,,,,,,,,,['num_0'],1,0.0515052308328,1,['num_0'],0,[0.6600061537465081],,2018_Jun_03_1253,60.0433050852,sequenceLearningTask,001,109,
min1.png,min2.png,min3.png,min4.png,allBlank.png,,,,['num_7'],,,,,,0,1,1,1,,,,,,,,,['num_7'],2,0.0536036922131,1,['num_7'],0,[0.5059011281700805],,2018_Jun_03_1253,60.0433050852,sequenceLearningTask,001,109,
min1.png,min2.png,min3.png,min4.png,allBlank.png,,,,['num_1'],,,,,,0,1,1,1,,,,,,,,,['num_1'],2,0.061115897377,1,['num_1'],0,[1.217028512735851],,2018_Jun_03_1253,60.0433050852,sequenceLearningTask,001,109,
min1.png,min2.png,min3.png,min4.png,allBlank.png,,,,['num_4'],,,,,,0,1,1,1,,,,,,,,,['num_4'],2,0.0551524101757,0,"['num_0', 'num_4']",0,"[0.00030153850093483925, 0.5557718974305317]",,2018_Jun_03_1253,60.0433050852,sequenceLearningTask,001,109,
min1.png,min2.png,min3.png,min4.png,allBlank.png,,,,['num_0'],,,,,,0,1,1,1,,,,,,,,,['num_0'],2,0.054691282101,1,['num_0'],0,[0.5725353846792132],,2018_Jun_03_1253,60.0433050852,sequenceLearningTask,001,109,
min1.png,min2.png,min3.png,min4.png,allBlank.png,,,,['num_0'],,,,,,0,1,1,1,,,,,,,,,['num_0'],2,0.0564270769246,1,['num_0'],0,[0.6040557948872447],,2018_Jun_03_1253,60.0433050852,sequenceLearningTask,001,109,
min1.png,min2.png,min3.png,min4.png,allBlank.png,,,,['num_4'],,,,,,0,1,1,1,,,,,,,,,['num_4'],2,0.0551556923892,0,"['num_7', 'num_4']",0,"[1.5558838974684477, 2.223364512785338]",,2018_Jun_03_1253,60.0433050852,sequenceLearningTask,001,109,
min1.png,min2.png,min3.png,min4.png,allBlank.png,,,,['num_1'],,,,,,0,1,1,1,,,,,,,,,['num_1'],2,0.0606560000451,1,['num_1'],0,[1.067188512883149],,2018_Jun_03_1253,60.0433050852,sequenceLearningTask,001,109,
min1.png,min2.png,min3.png,min4.png,allBlank.png,,,,['num_0'],,,,,,0,1,1,1,,,,,,,,,['num_0'],2,0.0536845128518,1,['num_0'],0,[0.6245534358313307],,2018_Jun_03_1253,60.0433050852,sequenceLearningTask,001,109,
min1.png,min2.png,min3.png,min4.png,allBlank.png,,,,['num_7'],,,,,,0,2,2,2,,,,,,,,,['num_7'],3,0.0497128205607,1,['num_7'],0,[0.4762683076551184],,2018_Jun_03_1253,60.0433050852,sequenceLearningTask,001,109,
min1.png,min2.png,min3.png,min4.png,allBlank.png,,,,['num_1'],,,,,,0,2,2,2,,,,,,,,,['num_1'],3,0.0536233845633,1,['num_1'],0,[0.8579216409707442],,2018_Jun_03_1253,60.0433050852,sequenceLearningTask,001,109,
min1.png,min2.png,min3.png,min4.png,allBlank.png,,,,['num_4'],,,,,,0,2,2,2,,,,,,,,,['num_4'],3,0.0535876923241,1,['num_4'],0,[0.6739889230811968],,2018_Jun_03_1253,60.0433050852,sequenceLearningTask,001,109,
min1.png,min2.png,min3.png,min4.png,allBlank.png,,,,['num_0'],,,,,,0,2,2,2,,,,,,,,,['num_0'],3,0.0551146666985,1,['num_0'],0,[0.6219007179606706],,2018_Jun_03_1253,60.0433050852,sequenceLearningTask,001,109,
min1.png,min2.png,min3.png,min4.png,allBlank.png,,,,['num_0'],,,,,,0,2,2,2,,,,,,,,,['num_0'],3,0.0569944614545,1,['num_0'],0,[0.6704467692179605],,2018_Jun_03_1253,60.0433050852,sequenceLearningTask,001,109,
min1.png,min2.png,min3.png,min4.png,allBlank.png,,,,['num_4'],,,,,,0,2,2,2,,,,,,,,,['num_4'],3,0.058524717926,1,['num_4'],0,[1.3189825641456991],,2018_Jun_03_1253,60.0433050852,sequenceLearningTask,001,109,
min1.png,min2.png,min3.png,min4.png,allBlank.png,,,,['num_1'],,,,,,0,2,2,2,,,,,,,,,['num_1'],3,0.0592451281846,1,['num_1'],0,[1.2854752821149305],,2018_Jun_03_1253,60.0433050852,sequenceLearningTask,001,109,
min1.png,min2.png,min3.png,min4.png,allBlank.png,,,,['num_0'],,,,,,0,2,2,2,,,,,,,,,['num_0'],3,0.0518970256671,1,['num_0'],0,[0.7429411282064393],,2018_Jun_03_1253,60.0433050852,sequenceLearningTask,001,109,
min1.png,min2.png,min3.png,min4.png,allBlank.png,,,,['num_7'],,,,,,0,3,3,3,,,,,,,,,['num_7'],4,0.0571926153498,1,['num_7'],0,[0.7688443077495322],,2018_Jun_03_1253,60.0433050852,sequenceLearningTask,001,109,
min1.png,min2.png,min3.png,min4.png,allBlank.png,,,,['num_1'],,,,,,0,3,3,3,,,,,,,,,['num_1'],4,0.0541214359691,1,['num_1'],0,[1.0917316923150793],,2018_Jun_03_1253,60.0433050852,sequenceLearningTask,001,109,
min1.png,min2.png,min3.png,min4.png,allBlank.png,,,,['num_4'],,,,,,0,3,3,3,,,,,,,,,['num_4'],4,0.0549517947948,1,['num_4'],0,[0.7227782564004883],,2018_Jun_03_1253,60.0433050852,sequenceLearningTask,001,109,
min1.png,min2.png,min3.png,min4.png,allBlank.png,,,,['num_0'],,,,,,0,3,3,3,,,,,,,,,['num_0'],4,0.0469698461238,1,['num_0'],0,[0.6144648204790428],,2018_Jun_03_1253,60.0433050852,sequenceLearningTask,001,109,
min1.png,min2.png,min3.png,min4.png,allBlank.png,,,,['num_0'],,,,,,0,3,3,3,,,,,,,,,['num_0'],4,0.0556955897482,1,['num_0'],0,[0.5898420512676239],,2018_Jun_03_1253,60.0433050852,sequenceLearningTask,001,109,
min1.png,min2.png,min3.png,min4.png,allBlank.png,,,,['num_4'],,,,,,0,3,3,3,,,,,,,,,['num_4'],4,0.0543950769352,1,['num_4'],0,[1.4079585639992729],,2018_Jun_03_1253,60.0433050852,sequenceLearningTask,001,109,
min1.png,min2.png,min3.png,min4.png,allBlank.png,,,,['num_1'],,,,,,0,3,3,3,,,,,,,,,['num_1'],4,0.0583253332879,1,['num_1'],0,[0.936450871755369],,2018_Jun_03_1253,60.0433050852,sequenceLearningTask,001,109,
min1.png,min2.png,min3.png,min4.png,allBlank.png,,,,['num_0'],,,,,,0,3,3,3,,,,,,,,,['num_0'],4,0.0508578460431,1,['num_0'],0,[0.5268939486704767],,2018_Jun_03_1253,60.0433050852,sequenceLearningTask,001,109,
min1.png,min2.png,min3.png,min4.png,allBlank.png,,,,['num_7'],,,,,,0,4,4,4,,,,,,,,,['num_7'],5,0.0573567178799,1,['num_7'],0,[0.5178966153180227],,2018_Jun_03_1253,60.0433050852,sequenceLearningTask,001,109,
min1.png,min2.png,min3.png,min4.png,allBlank.png,,,,['num_1'],,,,,,0,4,4,4,,,,,,,,,['num_1'],5,0.0561907693045,1,['num_1'],0,[1.404649846139364],,2018_Jun_03_1253,60.0433050852,sequenceLearningTask,001,109,
min1.png,min2.png,min3.png,min4.png,allBlank.png,,,,['num_4'],,,,,,0,4,4,4,,,,,,,,,['num_4'],5,0.0548611282138,0,"['num_7', 'num_4']",0,"[0.6054022564785555, 0.7729329231660813]",,2018_Jun_03_1253,60.0433050852,sequenceLearningTask,001,109,
min1.png,min2.png,min3.png,min4.png,allBlank.png,,,,['num_0'],,,,,,0,4,4,4,,,,,,,,,['num_0'],5,0.0310125127435,0,"['num_1', 'num_0']",0,"[0.4644381537800655, 0.5145046153338626]",,2018_Jun_03_1253,60.0433050852,sequenceLearningTask,001,109,
min1.png,min2.png,min3.png,min4.png,allBlank.png,,,,['num_0'],,,,,,0,4,4,4,,,,,,,,,['num_0'],5,0.0537501538638,1,['num_0'],0,[0.6564159999834374],,2018_Jun_03_1253,60.0433050852,sequenceLearningTask,001,109,
min1.png,min2.png,min3.png,min4.png,allBlank.png,,,,['num_4'],,,,,,0,4,4,4,,,,,,,,,['num_4'],5,0.0544512821361,1,['num_4'],0,[0.7903942563571036],,2018_Jun_03_1253,60.0433050852,sequenceLearningTask,001,109,
min1.png,min2.png,min3.png,min4.png,allBlank.png,,,,['num_1'],,,,,,0,4,4,4,,,,,,,,,['num_1'],5,0.0586010257248,0,"['num_0', 'num_1']",0,"[0.6027355897240341, 1.4026428717188537]",,2018_Jun_03_1253,60.0433050852,sequenceLearningTask,001,109,
min1.png,min2.png,min3.png,min4.png,allBlank.png,,,,['num_0'],,,,,,0,4,4,4,,,,,,,,,['num_0'],5,0.0552959999768,1,['num_0'],0,[0.5381969230948016],,2018_Jun_03_1253,60.0433050852,sequenceLearningTask,001,109,
min1.png,min2.png,min3.png,min4.png,allBlank.png,,,,['num_7'],,,,,,0,5,5,5,,,,,,,,,['num_7'],6,0.0546769230859,1,['num_7'],0,[0.6708246154012159],,2018_Jun_03_1253,60.0433050852,sequenceLearningTask,001,109,
min1.png,min2.png,min3.png,min4.png,allBlank.png,,,,['num_1'],,,,,,0,5,5,5,,,,,,,,,['num_1'],6,0.0523577436106,1,['num_1'],0,[0.9591626666951925],,2018_Jun_03_1253,60.0433050852,sequenceLearningTask,001,109,
min1.png,min2.png,min3.png,min4.png,allBlank.png,,,,['num_4'],,,,,,0,5,5,5,,,,,,,,,['num_4'],6,0.0490982563933,1,['num_4'],0,[0.4289517948636785],,2018_Jun_03_1253,60.0433050852,sequenceLearningTask,001,109,
min1.png,min2.png,min3.png,min4.png,allBlank.png,,,,['num_0'],,,,,,0,5,5,5,,,,,,,,,['num_0'],6,0.0519044102402,1,['num_0'],0,[0.5087167179444805],,2018_Jun_03_1253,60.0433050852,sequenceLearningTask,001,109,
min1.png,min2.png,min3.png,min4.png,allBlank.png,,,,['num_0'],,,,,,0,5,5,5,,,,,,,,,['num_0'],6,0.0560648204992,1,['num_0'],0,[0.6546916923252866],,2018_Jun_03_1253,60.0433050852,sequenceLearningTask,001,109,
min1.png,min2.png,min3.png,min4.png,allBlank.png,,,,['num_4'],,,,,,0,5,5,5,,,,,,,,,['num_4'],6,0.0509530255804,1,['num_4'],0,[0.8264627691823989],,2018_Jun_03_1253,60.0433050852,sequenceLearningTask,001,109,
min1.png,min2.png,min3.png,min4.png,allBlank.png,,,,['num_1'],,,,,,0,5,5,5,,,,,,,,,['num_1'],6,0.0607277948875,1,['num_1'],0,[0.8498957948759198],,2018_Jun_03_1253,60.0433050852,sequenceLearningTask,001,109,
min1.png,min2.png,min3.png,min4.png,allBlank.png,,,,['num_0'],,,,,,0,5,5,5,,,,,,,,,['num_0'],6,0.0578974358505,1,['num_0'],0,[0.602429948747158],,2018_Jun_03_1253,60.0433050852,sequenceLearningTask,001,109,
min1.png,min2.png,min3.png,min4.png,allBlank.png,,,,['num_7'],,,,,,0,6,6,6,,,,,,,,,['num_7'],7,0.0570683076512,1,['num_7'],0,[0.7519089230336249],,2018_Jun_03_1253,60.0433050852,sequenceLearningTask,001,109,
min1.png,min2.png,min3.png,min4.png,allBlank.png,,,,['num_1'],,,,,,0,6,6,6,,,,,,,,,['num_1'],7,0.0612841024995,1,['num_1'],0,[0.8499901538016275],,2018_Jun_03_1253,60.0433050852,sequenceLearningTask,001,109,
min1.png,min2.png,min3.png,min4.png,allBlank.png,,,,['num_4'],,,,,,0,6,6,6,,,,,,,,,['num_4'],7,0.0559126153821,1,['num_4'],0,[1.0386691282037646],,2018_Jun_03_1253,60.0433050852,sequenceLearningTask,001,109,
min1.png,min2.png,min3.png,min4.png,allBlank.png,,,,['num_0'],,,,,,0,6,6,6,,,,,,,,,['num_0'],7,0.056057025562,1,['num_0'],0,[0.8396102563710883],,2018_Jun_03_1253,60.0433050852,sequenceLearningTask,001,109,
min1.png,min2.png,min3.png,min4.png,allBlank.png,,,,['num_0'],,,,,,0,6,6,6,,,,,,,,,['num_0'],7,0.0586358974688,1,['num_0'],0,[0.4359466666355729],,2018_Jun_03_1253,60.0433050852,sequenceLearningTask,001,109,
min1.png,min2.png,min3.png,min4.png,allBlank.png,,,,['num_4'],,,,,,0,6,6,6,,,,,,,,,['num_4'],7,0.0789493334014,1,['num_4'],0,[0.8483782564289868],,2018_Jun_03_1253,60.0433050852,sequenceLearningTask,001,109,
min1.png,min2.png,min3.png,min4.png,allBlank.png,,,,['num_1'],,,,,,0,6,6,6,,,,,,,,,['num_1'],7,0.0542625641683,1,['num_1'],0,[2.0740857436321676],,2018_Jun_03_1253,60.0433050852,sequenceLearningTask,001,109,
min1.png,min2.png,min3.png,min4.png,allBlank.png,,,,['num_0'],,,,,,0,6,6,6,,,,,,,,,['num_0'],7,0.0586002051132,1,['num_0'],0,[0.7368812308413908],,2018_Jun_03_1253,60.0433050852,sequenceLearningTask,001,109,
min1.png,min2.png,min3.png,min4.png,allBlank.png,,,,['num_7'],,,,,,0,7,7,7,,,,,,,,,['num_7'],8,0.0624110769713,1,['num_7'],0,[0.6804032820509747],,2018_Jun_03_1253,60.0433050852,sequenceLearningTask,001,109,
min1.png,min2.png,min3.png,min4.png,allBlank.png,,,,['num_1'],,,,,,0,7,7,7,,,,,,,,,['num_1'],8,0.0600196922896,1,['num_1'],0,[0.8338330256519839],,2018_Jun_03_1253,60.0433050852,sequenceLearningTask,001,109,
min1.png,min2.png,min3.png,min4.png,allBlank.png,,,,['num_4'],,,,,,0,7,7,7,,,,,,,,,['num_4'],8,0.0519597948296,1,['num_4'],0,[1.5092984616057947],,2018_Jun_03_1253,60.0433050852,sequenceLearningTask,001,109,
min1.png,min2.png,min3.png,min4.png,allBlank.png,,,,['num_0'],,,,,,0,7,7,7,,,,,,,,,['num_0'],8,0.0521288205637,1,['num_0'],0,[0.6595803076634184],,2018_Jun_03_1253,60.0433050852,sequenceLearningTask,001,109,
min1.png,min2.png,min3.png,min4.png,allBlank.png,,,,['num_0'],,,,,,0,7,7,7,,,,,,,,,['num_0'],8,0.0574855384184,1,['num_0'],0,[0.5541468717856333],,2018_Jun_03_1253,60.0433050852,sequenceLearningTask,001,109,
min1.png,min2.png,min3.png,min4.png,allBlank.png,,,,['num_4'],,,,,,0,7,7,7,,,,,,,,,['num_4'],8,0.0549427692313,1,['num_4'],0,[0.6228049230994657],,2018_Jun_03_1253,60.0433050852,sequenceLearningTask,001,109,
min1.png,min2.png,min3.png,min4.png,allBlank.png,,,,['num_1'],,,,,,0,7,7,7,,,,,,,,,['num_1'],8,0.0500233846251,1,['num_1'],0,[1.1781107692513615],,2018_Jun_03_1253,60.0433050852,sequenceLearningTask,001,109,
min1.png,min2.png,min3.png,min4.png,allBlank.png,,,,['num_0'],,,,,,0,7,7,7,,,,,,,,,['num_0'],8,0.0539437949192,1,['num_0'],0,[0.39059979491867125],,2018_Jun_03_1253,60.0433050852,sequenceLearningTask,001,109,
min1.png,min2.png,min3.png,min4.png,allBlank.png,,,,['num_7'],,,,,,0,8,8,8,,,,,,,,,['num_7'],9,0.0562896409538,1,['num_7'],0,[0.7848623589379713],,2018_Jun_03_1253,60.0433050852,sequenceLearningTask,001,109,
min1.png,min2.png,min3.png,min4.png,allBlank.png,,,,['num_1'],,,,,,0,8,8,8,,,,,,,,,['num_1'],9,0.0554547692882,1,['num_1'],0,[1.6552069743629545],,2018_Jun_03_1253,60.0433050852,sequenceLearningTask,001,109,
min1.png,min2.png,min3.png,min4.png,allBlank.png,,,,['num_4'],,,,,,0,8,8,8,,,,,,,,,['num_4'],9,0.0585411281791,1,['num_4'],0,[0.7185374359833077],,2018_Jun_03_1253,60.0433050852,sequenceLearningTask,001,109,
min1.png,min2.png,min3.png,min4.png,allBlank.png,,,,['num_0'],,,,,,0,8,8,8,,,,,,,,,['num_0'],9,0.0478871795349,1,['num_0'],0,[0.44706338469404727],,2018_Jun_03_1253,60.0433050852,sequenceLearningTask,001,109,
min1.png,min2.png,min3.png,min4.png,allBlank.png,,,,['num_0'],,,,,,0,8,8,8,,,,,,,,,['num_0'],9,0.0608471794985,1,['num_0'],0,[0.4664118974469602],,2018_Jun_03_1253,60.0433050852,sequenceLearningTask,001,109,
min1.png,min2.png,min3.png,min4.png,allBlank.png,,,,['num_4'],,,,,,0,8,8,8,,,,,,,,,['num_4'],9,0.0378006153041,0,"['num_7', 'num_4']",0,"[0.6771261538378894, 1.1620627692900598]",,2018_Jun_03_1253,60.0433050852,sequenceLearningTask,001,109,
min1.png,min2.png,min3.png,min4.png,allBlank.png,,,,['num_1'],,,,,,0,8,8,8,,,,,,,,,['num_1'],9,0.0588574358262,1,['num_1'],0,[1.8692726154113188],,2018_Jun_03_1253,60.0433050852,sequenceLearningTask,001,109,
min1.png,min2.png,min3.png,min4.png,allBlank.png,,,,['num_0'],,,,,,0,8,8,8,,,,,,,,,['num_0'],9,0.0580529230647,1,['num_0'],0,[0.6693583589512855],,2018_Jun_03_1253,60.0433050852,sequenceLearningTask,001,109,
min1.png,min2.png,min3.png,min4.png,allBlank.png,,,,['num_7'],,,,,,0,9,9,9,,,,,,,,,['num_7'],10,0.0449062563712,1,['num_7'],0,[0.6991708718705922],,2018_Jun_03_1253,60.0433050852,sequenceLearningTask,001,109,
min1.png,min2.png,min3.png,min4.png,allBlank.png,,,,['num_1'],,,,,,0,9,9,9,,,,,,,,,['num_1'],10,0.0523060512496,0,"['num_0', 'num_1']",0,"[0.5423122050706297, 1.6428319999249652]",,2018_Jun_03_1253,60.0433050852,sequenceLearningTask,001,109,
min1.png,min2.png,min3.png,min4.png,allBlank.png,,,,['num_4'],,,,,,0,9,9,9,,,,,,,,,['num_4'],10,0.0580209231703,1,['num_4'],0,[0.9696340512018651],,2018_Jun_03_1253,60.0433050852,sequenceLearningTask,001,109,
min1.png,min2.png,min3.png,min4.png,allBlank.png,,,,['num_0'],,,,,,0,9,9,9,,,,,,,,,['num_0'],10,0.0564315897645,1,['num_0'],0,[0.7389378461521119],,2018_Jun_03_1253,60.0433050852,sequenceLearningTask,001,109,
min1.png,min2.png,min3.png,min4.png,allBlank.png,,,,['num_0'],,,,,,0,9,9,9,,,,,,,,,['num_0'],10,0.0471700512571,1,['num_0'],0,[0.6311208205297589],,2018_Jun_03_1253,60.0433050852,sequenceLearningTask,001,109,
min1.png,min2.png,min3.png,min4.png,allBlank.png,,,,['num_4'],,,,,,0,9,9,9,,,,,,,,,['num_4'],10,0.0590198973659,1,['num_4'],0,[1.1186055385041982],,2018_Jun_03_1253,60.0433050852,sequenceLearningTask,001,109,
min1.png,min2.png,min3.png,min4.png,allBlank.png,,,,['num_1'],,,,,,0,9,9,9,,,,,,,,,['num_1'],10,0.0581936410163,1,['num_1'],0,[1.1031544615980238],,2018_Jun_03_1253,60.0433050852,sequenceLearningTask,001,109,
min1.png,min2.png,min3.png,min4.png,allBlank.png,,,,['num_0'],,,,,,0,9,9,9,,,,,,,,,['num_0'],10,0.0524188717827,1,['num_0'],0,[0.7917005127528682],,2018_Jun_03_1253,60.0433050852,sequenceLearningTask,001,109,
min1.png,min2.png,min3.png,min4.png,allBlank.png,,,,['num_7'],,,,,,0,0,0,0,,,,,,,,,['num_7'],1,0.0447544616181,1,['num_7'],0,[0.5534674871014431],,2018_Jun_03_1253,60.0433050852,sequenceLearningTask,001,109,
min1.png,min2.png,min3.png,min4.png,allBlank.png,,,,['num_1'],,,,,,0,0,0,0,,,,,,,,,['num_1'],1,0.0543101538206,1,['num_1'],0,[0.9062030769418925],,2018_Jun_03_1253,60.0433050852,sequenceLearningTask,001,109,
min1.png,min2.png,min3.png,min4.png,allBlank.png,,,,['num_4'],,,,,,0,0,0,0,,,,,,,,,['num_4'],1,0.0515175384935,1,['num_4'],0,[0.6432242051232606],,2018_Jun_03_1253,60.0433050852,sequenceLearningTask,001,109,
min1.png,min2.png,min3.png,min4.png,allBlank.png,,,,['num_0'],,,,,,0,0,0,0,,,,,,,,,['num_0'],1,0.0552939486224,1,['num_0'],0,[0.6042814358370379],,2018_Jun_03_1253,60.0433050852,sequenceLearningTask,001,109,
min1.png,min2.png,min3.png,min4.png,allBlank.png,,,,['num_0'],,,,,,0,0,0,0,,,,,,,,,['num_0'],1,0.0533140512416,1,['num_0'],0,[0.6082658461527899],,2018_Jun_03_1253,60.0433050852,sequenceLearningTask,001,109,
min1.png,min2.png,min3.png,min4.png,allBlank.png,,,,['num_4'],,,,,,0,0,0,0,,,,,,,,,['num_4'],1,0.0548640000634,1,['num_4'],0,[0.8059602051507682],,2018_Jun_03_1253,60.0433050852,sequenceLearningTask,001,109,
min1.png,min2.png,min3.png,min4.png,allBlank.png,,,,['num_1'],,,,,,0,0,0,0,,,,,,,,,['num_1'],1,0.0512369230855,1,['num_1'],0,[0.5432504615746439],,2018_Jun_03_1253,60.0433050852,sequenceLearningTask,001,109,
min1.png,min2.png,min3.png,min4.png,allBlank.png,,,,['num_0'],,,,,,0,0,0,0,,,,,,,,,['num_0'],1,0.0523195897695,0,"['num_0', 'num_0']",0,"[0.00029169232584536076, 0.4425846153171733]",,2018_Jun_03_1253,60.0433050852,sequenceLearningTask,001,109,
min1.png,min2.png,min3.png,min4.png,allBlank.png,,,,['num_7'],,,,,,0,1,1,1,,,,,,,,,['num_7'],2,0.0510326153599,1,['num_7'],0,[0.5754711795598269],,2018_Jun_03_1253,60.0433050852,sequenceLearningTask,001,109,
min1.png,min2.png,min3.png,min4.png,allBlank.png,,,,['num_1'],,,,,,0,1,1,1,,,,,,,,,['num_1'],2,0.0527827691985,1,['num_1'],0,[0.7915019487263635],,2018_Jun_03_1253,60.0433050852,sequenceLearningTask,001,109,
min1.png,min2.png,min3.png,min4.png,allBlank.png,,,,['num_4'],,,,,,0,1,1,1,,,,,,,,,['num_4'],2,0.0514162051259,1,['num_4'],0,[0.577657435904257],,2018_Jun_03_1253,60.0433050852,sequenceLearningTask,001,109,
min1.png,min2.png,min3.png,min4.png,allBlank.png,,,,['num_0'],,,,,,0,1,1,1,,,,,,,,,['num_0'],2,0.0536668717396,1,['num_0'],0,[0.5577599999960512],,2018_Jun_03_1253,60.0433050852,sequenceLearningTask,001,109,
min1.png,min2.png,min3.png,min4.png,allBlank.png,,,,['num_0'],,,,,,0,1,1,1,,,,,,,,,['num_0'],2,0.0530096411239,1,['num_0'],0,[1.1748131283093244],,2018_Jun_03_1253,60.0433050852,sequenceLearningTask,001,109,
min1.png,min2.png,min3.png,min4.png,allBlank.png,,,,['num_4'],,,,,,0,1,1,1,,,,,,,,,['num_4'],2,0.0546137435595,1,['num_4'],0,[1.2906260513700545],,2018_Jun_03_1253,60.0433050852,sequenceLearningTask,001,109,
min1.png,min2.png,min3.png,min4.png,allBlank.png,,,,['num_1'],,,,,,0,1,1,1,,,,,,,,,['num_1'],2,0.0588668717537,0,"['num_0', 'num_1']",0,"[0.5027520000003278, 1.8519511795602739]",,2018_Jun_03_1253,60.0433050852,sequenceLearningTask,001,109,
min1.png,min2.png,min3.png,min4.png,allBlank.png,,,,['num_0'],,,,,,0,1,1,1,,,,,,,,,['num_0'],2,0.0540758974385,1,['num_0'],0,[0.7736734359059483],,2018_Jun_03_1253,60.0433050852,sequenceLearningTask,001,109,
min1.png,min2.png,min3.png,min4.png,allBlank.png,,,,['num_7'],,,,,,0,2,2,2,,,,,,,,,['num_7'],3,0.0605054359185,0,"['num_1', 'num_7']",0,"[0.0003093333216384053, 0.6152373333461583]",,2018_Jun_03_1253,60.0433050852,sequenceLearningTask,001,109,
min1.png,min2.png,min3.png,min4.png,allBlank.png,,,,['num_1'],,,,,,0,2,2,2,,,,,,,,,['num_1'],3,0.0544172307709,0,"['num_1', 'num_0', 'num_1']",0,"[1.1754190769279376, 3.5905005128588527]",,2018_Jun_03_1253,60.0433050852,sequenceLearningTask,001,109,
min1.png,min2.png,min3.png,min4.png,allBlank.png,,,,['num_4'],,,,,,0,2,2,2,,,,,,,,,['num_4'],3,0.0506285128649,1,['num_4'],0,[0.6774469743249938],,2018_Jun_03_1253,60.0433050852,sequenceLearningTask,001,109,
min1.png,min2.png,min3.png,min4.png,allBlank.png,,,,['num_0'],,,,,,0,2,2,2,,,,,,,,,['num_0'],3,0.0622067691293,1,['num_0'],0,[0.8306354872183874],,2018_Jun_03_1253,60.0433050852,sequenceLearningTask,001,109,
min1.png,min2.png,min3.png,min4.png,allBlank.png,,,,['num_0'],,,,,,0,2,2,2,,,,,,,,,['num_0'],3,0.0539228718262,1,['num_0'],0,[0.6739286152878776],,2018_Jun_03_1253,60.0433050852,sequenceLearningTask,001,109,
min1.png,min2.png,min3.png,min4.png,allBlank.png,,,,['num_4'],,,,,,0,2,2,2,,,,,,,,,['num_4'],3,0.0512968205148,0,"['num_7', 'num_4']",0,"[1.0272274871822447, 1.6098646153695881]",,2018_Jun_03_1253,60.0433050852,sequenceLearningTask,001,109,
min1.png,min2.png,min3.png,min4.png,allBlank.png,,,,['num_1'],,,,,,0,2,2,2,,,,,,,,,['num_1'],3,0.0515536410967,0,"['num_0', 'num_1']",0,"[0.8765132308471948, 1.5760635897750035]",,2018_Jun_03_1253,60.0433050852,sequenceLearningTask,001,109,
min1.png,min2.png,min3.png,min4.png,allBlank.png,,,,['num_0'],,,,,,0,2,2,2,,,,,,,,,['num_0'],3,0.0764783590566,1,['num_0'],0,[0.6178998975083232],,2018_Jun_03_1253,60.0433050852,sequenceLearningTask,001,109,
min1.png,min2.png,min3.png,min4.png,allBlank.png,,,,['num_7'],,,,,,0,3,3,3,,,,,,,,,['num_7'],4,0.0494137435453,1,['num_7'],0,[0.8447454358683899],,2018_Jun_03_1253,60.0433050852,sequenceLearningTask,001,109,
min1.png,min2.png,min3.png,min4.png,allBlank.png,,,,['num_1'],,,,,,0,3,3,3,,,,,,,,,['num_1'],4,0.0797997948248,1,['num_1'],0,[1.2628426665905863],,2018_Jun_03_1253,60.0433050852,sequenceLearningTask,001,109,
min1.png,min2.png,min3.png,min4.png,allBlank.png,,,,['num_4'],,,,,,0,3,3,3,,,,,,,,,['num_4'],4,0.0550646153279,1,['num_4'],0,[0.6908557948190719],,2018_Jun_03_1253,60.0433050852,sequenceLearningTask,001,109,
min1.png,min2.png,min3.png,min4.png,allBlank.png,,,,['num_0'],,,,,,0,3,3,3,,,,,,,,,['num_0'],4,0.0557415385265,1,['num_0'],0,[0.6219154872233048],,2018_Jun_03_1253,60.0433050852,sequenceLearningTask,001,109,
min1.png,min2.png,min3.png,min4.png,allBlank.png,,,,['num_0'],,,,,,0,3,3,3,,,,,,,,,['num_0'],4,0.0535708718235,1,['num_0'],0,[0.557776820496656],,2018_Jun_03_1253,60.0433050852,sequenceLearningTask,001,109,
min1.png,min2.png,min3.png,min4.png,allBlank.png,,,,['num_4'],,,,,,0,3,3,3,,,,,,,,,['num_4'],4,0.0524791794596,1,['num_4'],0,[0.8592976409709081],,2018_Jun_03_1253,60.0433050852,sequenceLearningTask,001,109,
min1.png,min2.png,min3.png,min4.png,allBlank.png,,,,['num_1'],,,,,,0,3,3,3,,,,,,,,,['num_1'],4,0.0520713846199,1,['num_1'],0,[1.0419458461692557],,2018_Jun_03_1253,60.0433050852,sequenceLearningTask,001,109,
min1.png,min2.png,min3.png,min4.png,allBlank.png,,,,['num_0'],,,,,,0,3,3,3,,,,,,,,,['num_0'],4,0.0563721025828,1,['num_0'],0,[0.6222539487062022],,2018_Jun_03_1253,60.0433050852,sequenceLearningTask,001,109,
min1.png,min2.png,min3.png,min4.png,allBlank.png,,,,['num_7'],,,,,,0,4,4,4,,,,,,,,,['num_7'],5,0.0518974359147,1,['num_7'],0,[0.6909337436081842],,2018_Jun_03_1253,60.0433050852,sequenceLearningTask,001,109,
min1.png,min2.png,min3.png,min4.png,allBlank.png,,,,['num_1'],,,,,,0,4,4,4,,,,,,,,,['num_1'],5,0.0548233846202,1,['num_1'],0,[0.9239355897298083],,2018_Jun_03_1253,60.0433050852,sequenceLearningTask,001,109,
min1.png,min2.png,min3.png,min4.png,allBlank.png,,,,['num_4'],,,,,,0,4,4,4,,,,,,,,,['num_4'],5,0.0530535384314,1,['num_4'],0,[0.826577230822295],,2018_Jun_03_1253,60.0433050852,sequenceLearningTask,001,109,
min1.png,min2.png,min3.png,min4.png,allBlank.png,,,,['num_0'],,,,,,0,4,4,4,,,,,,,,,['num_0'],5,0.056546051288,1,['num_0'],0,[0.5887733333511278],,2018_Jun_03_1253,60.0433050852,sequenceLearningTask,001,109,
min1.png,min2.png,min3.png,min4.png,allBlank.png,,,,['num_0'],,,,,,0,4,4,4,,,,,,,,,['num_0'],5,0.062096000067,1,['num_0'],0,[0.6494822563836351],,2018_Jun_03_1253,60.0433050852,sequenceLearningTask,001,109,
min1.png,min2.png,min3.png,min4.png,allBlank.png,,,,['num_4'],,,,,,0,4,4,4,,,,,,,,,['num_4'],5,0.0543228718452,1,['num_4'],0,[1.2566674872068688],,2018_Jun_03_1253,60.0433050852,sequenceLearningTask,001,109,
min1.png,min2.png,min3.png,min4.png,allBlank.png,,,,['num_1'],,,,,,0,4,4,4,,,,,,,,,['num_1'],5,0.0575183589244,1,['num_1'],0,[1.5368722050916404],,2018_Jun_03_1253,60.0433050852,sequenceLearningTask,001,109,
min1.png,min2.png,min3.png,min4.png,allBlank.png,,,,['num_0'],,,,,,0,4,4,4,,,,,,,,,['num_0'],5,0.0578744615195,1,['num_0'],0,[0.8363815384218469],,2018_Jun_03_1253,60.0433050852,sequenceLearningTask,001,109,
min1.png,min2.png,min3.png,min4.png,allBlank.png,,,,['num_7'],,,,,,0,5,5,5,,,,,,,,,['num_7'],6,0.0520943589509,1,['num_7'],0,[0.7584406153764576],,2018_Jun_03_1253,60.0433050852,sequenceLearningTask,001,109,
min1.png,min2.png,min3.png,min4.png,allBlank.png,,,,['num_1'],,,,,,0,5,5,5,,,,,,,,,['num_1'],6,0.0502838974353,1,['num_1'],0,[1.2275487179867923],,2018_Jun_03_1253,60.0433050852,sequenceLearningTask,001,109,
min1.png,min2.png,min3.png,min4.png,allBlank.png,,,,['num_4'],,,,,,0,5,5,5,,,,,,,,,['num_4'],6,0.056457435945,1,['num_4'],0,[0.8710235897451639],,2018_Jun_03_1253,60.0433050852,sequenceLearningTask,001,109,
min1.png,min2.png,min3.png,min4.png,allBlank.png,,,,['num_0'],,,,,,0,5,5,5,,,,,,,,,['num_0'],6,0.0602182564326,1,['num_0'],0,[0.6003298461437225],,2018_Jun_03_1253,60.0433050852,sequenceLearningTask,001,109,
min1.png,min2.png,min3.png,min4.png,allBlank.png,,,,['num_0'],,,,,,0,5,5,5,,,,,,,,,['num_0'],6,0.0545948717045,1,['num_0'],0,[0.7394953846232966],,2018_Jun_03_1253,60.0433050852,sequenceLearningTask,001,109,
min1.png,min2.png,min3.png,min4.png,allBlank.png,,,,['num_4'],,,,,,0,5,5,5,,,,,,,,,['num_4'],6,0.0566830770113,1,['num_4'],0,[2.005600410280749],,2018_Jun_03_1253,60.0433050852,sequenceLearningTask,001,109,
min1.png,min2.png,min3.png,min4.png,allBlank.png,,,,['num_1'],,,,,,0,5,5,5,,,,,,,,,['num_1'],6,0.0626695384271,1,['num_1'],0,[1.2316537436563522],,2018_Jun_03_1253,60.0433050852,sequenceLearningTask,001,109,
min1.png,min2.png,min3.png,min4.png,allBlank.png,,,,['num_0'],,,,,,0,5,5,5,,,,,,,,,['num_0'],6,0.0503634872148,1,['num_0'],0,[0.5610363077139482],,2018_Jun_03_1253,60.0433050852,sequenceLearningTask,001,109,
min1.png,min2.png,min3.png,min4.png,allBlank.png,,,,['num_7'],,,,,,0,6,6,6,,,,,,,,,['num_7'],7,0.05627446156,1,['num_7'],0,[0.6704032821580768],,2018_Jun_03_1253,60.0433050852,sequenceLearningTask,001,109,
min1.png,min2.png,min3.png,min4.png,allBlank.png,,,,['num_1'],,,,,,0,6,6,6,,,,,,,,,['num_1'],7,0.058250666596,1,['num_1'],0,[1.2369099487550557],,2018_Jun_03_1253,60.0433050852,sequenceLearningTask,001,109,
min1.png,min2.png,min3.png,min4.png,allBlank.png,,,,['num_4'],,,,,,0,6,6,6,,,,,,,,,['num_4'],7,0.0586285127793,0,"['num_4', 'num_7', 'num_4']",0,"[0.0003044102340936661, 0.6691183589864522, 1.186109948786907]",,2018_Jun_03_1253,60.0433050852,sequenceLearningTask,001,109,
min1.png,min2.png,min3.png,min4.png,allBlank.png,,,,['num_0'],,,,,,0,6,6,6,,,,,,,,,['num_0'],7,0.0529920000117,1,['num_0'],0,[0.5079064614837989],,2018_Jun_03_1253,60.0433050852,sequenceLearningTask,001,109,
min1.png,min2.png,min3.png,min4.png,allBlank.png,,,,['num_0'],,,,,,0,6,6,6,,,,,,,,,['num_0'],7,0.0495277949376,1,['num_0'],0,[0.7121956922346726],,2018_Jun_03_1253,60.0433050852,sequenceLearningTask,001,109,
min1.png,min2.png,min3.png,min4.png,allBlank.png,,,,['num_4'],,,,,,0,6,6,6,,,,,,,,,['num_4'],7,0.0563688204857,1,['num_4'],0,[1.4546420513652265],,2018_Jun_03_1253,60.0433050852,sequenceLearningTask,001,109,
min1.png,min2.png,min3.png,min4.png,allBlank.png,,,,['num_1'],,,,,,0,6,6,6,,,,,,,,,['num_1'],7,0.0547138460679,1,['num_1'],0,[0.8556242052000016],,2018_Jun_03_1253,60.0433050852,sequenceLearningTask,001,109,
min1.png,min2.png,min3.png,min4.png,allBlank.png,,,,['num_0'],,,,,,0,6,6,6,,,,,,,,,['num_0'],7,0.0510674872203,1,['num_0'],0,[0.8438453333219513],,2018_Jun_03_1253,60.0433050852,sequenceLearningTask,001,109,
min1.png,min2.png,min3.png,min4.png,allBlank.png,,,,['num_7'],,,,,,0,7,7,7,,,,,,,,,['num_7'],8,0.053963897517,1,['num_7'],0,[1.7387007179204375],,2018_Jun_03_1253,60.0433050852,sequenceLearningTask,001,109,
min1.png,min2.png,min3.png,min4.png,allBlank.png,,,,['num_1'],,,,,,0,7,7,7,,,,,,,,,['num_1'],8,0.0583987692371,1,['num_1'],0,[1.669866256415844],,2018_Jun_03_1253,60.0433050852,sequenceLearningTask,001,109,
min1.png,min2.png,min3.png,min4.png,allBlank.png,,,,['num_4'],,,,,,0,7,7,7,,,,,,,,,['num_4'],8,0.0643286153208,0,"['num_1', 'num_4']",0,"[0.5619815384270623, 1.0118559999391437]",,2018_Jun_03_1253,60.0433050852,sequenceLearningTask,001,109,
min1.png,min2.png,min3.png,min4.png,allBlank.png,,,,['num_0'],,,,,,0,7,7,7,,,,,,,,,['num_0'],8,0.0481952821137,1,['num_0'],0,[0.6301940513076261],,2018_Jun_03_1253,60.0433050852,sequenceLearningTask,001,109,
min1.png,min2.png,min3.png,min4.png,allBlank.png,,,,['num_0'],,,,,,0,7,7,7,,,,,,,,,['num_0'],8,0.0546424615895,1,['num_0'],0,[0.5730904615484178],,2018_Jun_03_1253,60.0433050852,sequenceLearningTask,001,109,
min1.png,min2.png,min3.png,min4.png,allBlank.png,,,,['num_4'],,,,,,0,7,7,7,,,,,,,,,['num_4'],8,0.0542736410862,1,['num_4'],0,[1.8570174359483644],,2018_Jun_03_1253,60.0433050852,sequenceLearningTask,001,109,
min1.png,min2.png,min3.png,min4.png,allBlank.png,,,,['num_1'],,,,,,0,7,7,7,,,,,,,,,['num_1'],8,0.0504447179846,1,['num_1'],0,[1.0610141537617892],,2018_Jun_03_1253,60.0433050852,sequenceLearningTask,001,109,
min1.png,min2.png,min3.png,min4.png,allBlank.png,,,,['num_0'],,,,,,0,7,7,7,,,,,,,,,['num_0'],8,0.050275282003,1,['num_0'],0,[0.7942945641698316],,2018_Jun_03_1253,60.0433050852,sequenceLearningTask,001,109,
min1.png,min2.png,min3.png,min4.png,allBlank.png,,,,['num_7'],,,,,,0,8,8,8,,,,,,,,,['num_7'],9,0.0488603076665,1,['num_7'],0,[1.160786051186733],,2018_Jun_03_1253,60.0433050852,sequenceLearningTask,001,109,
min1.png,min2.png,min3.png,min4.png,allBlank.png,,,,['num_1'],,,,,,0,8,8,8,,,,,,,,,['num_1'],9,0.0575487179449,1,['num_1'],0,[0.987844102550298],,2018_Jun_03_1253,60.0433050852,sequenceLearningTask,001,109,
min1.png,min2.png,min3.png,min4.png,allBlank.png,,,,['num_4'],,,,,,0,8,8,8,,,,,,,,,['num_4'],9,0.0533398974221,1,['num_4'],0,[0.8081460512476042],,2018_Jun_03_1253,60.0433050852,sequenceLearningTask,001,109,
min1.png,min2.png,min3.png,min4.png,allBlank.png,,,,['num_0'],,,,,,0,8,8,8,,,,,,,,,['num_0'],9,0.054843076854,1,['num_0'],0,[0.6900914872530848],,2018_Jun_03_1253,60.0433050852,sequenceLearningTask,001,109,
min1.png,min2.png,min3.png,min4.png,allBlank.png,,,,['num_0'],,,,,,0,8,8,8,,,,,,,,,['num_0'],9,0.0588397949468,1,['num_0'],0,[0.6358137435745448],,2018_Jun_03_1253,60.0433050852,sequenceLearningTask,001,109,
min1.png,min2.png,min3.png,min4.png,allBlank.png,,,,['num_4'],,,,,,0,8,8,8,,,,,,,,,['num_4'],9,0.0539844103623,1,['num_4'],0,[1.272146871779114],,2018_Jun_03_1253,60.0433050852,sequenceLearningTask,001,109,
min1.png,min2.png,min3.png,min4.png,allBlank.png,,,,['num_1'],,,,,,0,8,8,8,,,,,,,,,['num_1'],9,0.0534334358526,1,['num_1'],0,[0.7744414359331131],,2018_Jun_03_1253,60.0433050852,sequenceLearningTask,001,109,
min1.png,min2.png,min3.png,min4.png,allBlank.png,,,,['num_0'],,,,,,0,8,8,8,,,,,,,,,['num_0'],9,0.0532882051775,1,['num_0'],0,[0.7410227692453191],,2018_Jun_03_1253,60.0433050852,sequenceLearningTask,001,109,
min1.png,min2.png,min3.png,min4.png,allBlank.png,,,,['num_7'],,,,,,0,9,9,9,,,,,,,,,['num_7'],10,0.0498305640649,1,['num_7'],0,[0.691932717920281],,2018_Jun_03_1253,60.0433050852,sequenceLearningTask,001,109,
min1.png,min2.png,min3.png,min4.png,allBlank.png,,,,['num_1'],,,,,,0,9,9,9,,,,,,,,,['num_1'],10,0.0565370256081,1,['num_1'],0,[0.805265641072765],,2018_Jun_03_1253,60.0433050852,sequenceLearningTask,001,109,
min1.png,min2.png,min3.png,min4.png,allBlank.png,,,,['num_4'],,,,,,0,9,9,9,,,,,,,,,['num_4'],10,0.058272000053,1,['num_4'],0,[0.668354871799238],,2018_Jun_03_1253,60.0433050852,sequenceLearningTask,001,109,
min1.png,min2.png,min3.png,min4.png,allBlank.png,,,,['num_0'],,,,,,0,9,9,9,,,,,,,,,['num_0'],10,0.0469579487108,1,['num_0'],0,[0.6472672820091248],,2018_Jun_03_1253,60.0433050852,sequenceLearningTask,001,109,
min1.png,min2.png,min3.png,min4.png,allBlank.png,,,,['num_0'],,,,,,0,9,9,9,,,,,,,,,['num_0'],10,0.0478916923748,1,['num_0'],0,[0.430061538470909],,2018_Jun_03_1253,60.0433050852,sequenceLearningTask,001,109,
min1.png,min2.png,min3.png,min4.png,allBlank.png,,,,['num_4'],,,,,,0,9,9,9,,,,,,,,,['num_4'],10,0.0604225641582,0,"['num_7', 'num_4']",0,"[0.8171360000269488, 1.7505723076174036]",,2018_Jun_03_1253,60.0433050852,sequenceLearningTask,001,109,
min1.png,min2.png,min3.png,min4.png,allBlank.png,,,,['num_1'],,,,,,0,9,9,9,,,,,,,,,['num_1'],10,0.0561989743728,1,['num_1'],0,[1.2547774359118193],,2018_Jun_03_1253,60.0433050852,sequenceLearningTask,001,109,
min1.png,min2.png,min3.png,min4.png,allBlank.png,,,,['num_0'],,,,,,0,9,9,9,,,,,,,,,['num_0'],10,0.0498162051663,1,['num_0'],0,[0.6457801025826484],,2018_Jun_03_1253,60.0433050852,sequenceLearningTask,001,109,
min1.png,min2.png,min3.png,min4.png,images/allBlank.png,images/min2.png,'num_4',"['num_7', 'num_4', 'num_1', 'num_0']",['num_4'],num_4,,,,,0,9,9,9,0,0,0,1,,,,,['num_4'],,0.083035487216,1,['num_4'],0,[1.4130121025955305],1,2018_Jun_03_1253,60.0433050852,sequenceLearningTask,001,109,
min1.png,min2.png,min3.png,min4.png,images/allBlank.png,images/min1.png,'num_7',"['num_7', 'num_4', 'num_1', 'num_0']",['num_7'],num_7,,,,,0,9,9,9,0,1,1,0,,,,,['num_7'],,0.0521464615595,1,['num_7'],0,[0.8400578461587429],1,2018_Jun_03_1253,60.0433050852,sequenceLearningTask,001,109,
min1.png,min2.png,min3.png,min4.png,images/allBlank.png,images/min4.png,'num_0',"['num_7', 'num_4', 'num_1', 'num_0']",['num_0'],num_0,,,,,0,9,9,9,0,2,2,3,,,,,['num_0'],,0.0514822565019,1,['num_0'],0,[0.6758551795501262],1,2018_Jun_03_1253,60.0433050852,sequenceLearningTask,001,109,
min1.png,min2.png,min3.png,min4.png,images/allBlank.png,images/min3.png,'num_1',"['num_7', 'num_4', 'num_1', 'num_0']",['num_1'],num_1,,,,,0,9,9,9,0,3,3,2,,,,,['num_1'],,0.0495876923669,1,['num_1'],0,[1.0257218461483717],1,2018_Jun_03_1253,60.0433050852,sequenceLearningTask,001,109,
min1.png,min2.png,min3.png,min4.png,images/allBlank.png,images/min2.png,'num_4',"['num_7', 'num_4', 'num_1', 'num_0']",['num_4'],num_4,,,,,0,9,9,9,1,0,4,1,,,,,['num_4'],,0.0517829743912,1,['num_4'],0,[0.9416951795574278],1,2018_Jun_03_1253,60.0433050852,sequenceLearningTask,001,109,
min1.png,min2.png,min3.png,min4.png,images/allBlank.png,images/min3.png,'num_1',"['num_7', 'num_4', 'num_1', 'num_0']",['num_1'],num_1,,,,,0,9,9,9,1,1,5,2,,,,,['num_1'],,0.0520775384502,1,['num_1'],0,[1.3235335384961218],1,2018_Jun_03_1253,60.0433050852,sequenceLearningTask,001,109,
min1.png,min2.png,min3.png,min4.png,images/allBlank.png,images/min1.png,'num_7',"['num_7', 'num_4', 'num_1', 'num_0']",['num_7'],num_7,,,,,0,9,9,9,1,2,6,0,,,,,['num_7'],,0.0547044102568,1,['num_7'],0,[0.7379351794952527],1,2018_Jun_03_1253,60.0433050852,sequenceLearningTask,001,109,
min1.png,min2.png,min3.png,min4.png,images/allBlank.png,images/min4.png,'num_0',"['num_7', 'num_4', 'num_1', 'num_0']",['num_0'],num_0,,,,,0,9,9,9,1,3,7,3,,,,,['num_0'],,0.0519442050718,0,"['num_1', 'num_0']",0,"[0.5077156922779977, 1.092183384578675]",0,2018_Jun_03_1253,60.0433050852,sequenceLearningTask,001,109,
min1.png,min2.png,min3.png,min4.png,images/allBlank.png,images/min1.png,'num_7',"['num_7', 'num_4', 'num_1', 'num_0']",['num_7'],num_7,,,,,0,9,9,9,2,0,8,0,,,,,['num_7'],,0.0523031795165,1,['num_7'],0,[0.6891044102376327],1,2018_Jun_03_1253,60.0433050852,sequenceLearningTask,001,109,
min1.png,min2.png,min3.png,min4.png,images/allBlank.png,images/min4.png,'num_0',"['num_7', 'num_4', 'num_1', 'num_0']",['num_0'],num_0,,,,,0,9,9,9,2,1,9,3,,,,,['num_0'],,0.0562133333879,1,['num_0'],0,[0.436027487157844],1,2018_Jun_03_1253,60.0433050852,sequenceLearningTask,001,109,
min1.png,min2.png,min3.png,min4.png,images/allBlank.png,images/min3.png,'num_1',"['num_7', 'num_4', 'num_1', 'num_0']",['num_1'],num_1,,,,,0,9,9,9,2,2,10,2,,,,,['num_1'],,0.0523622564506,1,['num_1'],0,[1.074717948678881],1,2018_Jun_03_1253,60.0433050852,sequenceLearningTask,001,109,
min1.png,min2.png,min3.png,min4.png,images/allBlank.png,images/min2.png,'num_4',"['num_7', 'num_4', 'num_1', 'num_0']",['num_4'],num_4,,,,,0,9,9,9,2,3,11,1,,,,,['num_4'],,0.0506789743667,1,['num_4'],0,[0.608675692230463],1,2018_Jun_03_1253,60.0433050852,sequenceLearningTask,001,109,
min1.png,min2.png,min3.png,min4.png,images/allBlank.png,images/min1.png,'num_7',"['num_7', 'num_4', 'num_1', 'num_0']",['num_7'],num_7,,,,,0,9,9,9,3,0,12,0,,,,,['num_7'],,0.0595848205267,1,['num_7'],0,[0.748476717970334],1,2018_Jun_03_1253,60.0433050852,sequenceLearningTask,001,109,
min1.png,min2.png,min3.png,min4.png,images/allBlank.png,images/min2.png,'num_4',"['num_7', 'num_4', 'num_1', 'num_0']",['num_4'],num_4,,,,,0,9,9,9,3,1,13,1,,,,,['num_4'],,0.0497156922938,1,['num_4'],0,[0.9766822564415634],1,2018_Jun_03_1253,60.0433050852,sequenceLearningTask,001,109,
min1.png,min2.png,min3.png,min4.png,images/allBlank.png,images/min4.png,'num_0',"['num_7', 'num_4', 'num_1', 'num_0']",['num_0'],num_0,,,,,0,9,9,9,3,2,14,3,,,,,['num_0'],,0.0584451281466,1,['num_0'],0,[0.7003003077115864],1,2018_Jun_03_1253,60.0433050852,sequenceLearningTask,001,109,
min1.png,min2.png,min3.png,min4.png,images/allBlank.png,images/min3.png,'num_1',"['num_7', 'num_4', 'num_1', 'num_0']",['num_1'],num_1,,,,,0,9,9,9,3,3,15,2,,,,,['num_1'],,0.047480205074,1,['num_1'],0,[0.8792307692347094],1,2018_Jun_03_1253,60.0433050852,sequenceLearningTask,001,109,
min1.png,min2.png,min3.png,min4.png,images/allBlank.png,images/min3.png,'num_1',"['num_7', 'num_4', 'num_1', 'num_0']",['num_1'],num_1,,,,,0,9,9,9,4,0,16,2,,,,,['num_1'],,0.0691725128563,1,['num_1'],0,[0.8231138461269438],1,2018_Jun_03_1253,60.0433050852,sequenceLearningTask,001,109,
min1.png,min2.png,min3.png,min4.png,images/allBlank.png,images/min2.png,'num_4',"['num_7', 'num_4', 'num_1', 'num_0']",['num_4'],num_4,,,,,0,9,9,9,4,1,17,1,,,,,['num_4'],,0.0523019486573,1,['num_4'],0,[1.4567938460968435],1,2018_Jun_03_1253,60.0433050852,sequenceLearningTask,001,109,
min1.png,min2.png,min3.png,min4.png,images/allBlank.png,images/min1.png,'num_7',"['num_7', 'num_4', 'num_1', 'num_0']",['num_7'],num_7,,,,,0,9,9,9,4,2,18,0,,,,,['num_7'],,0.054146461538,1,['num_7'],0,[0.8875597948208451],1,2018_Jun_03_1253,60.0433050852,sequenceLearningTask,001,109,
min1.png,min2.png,min3.png,min4.png,images/allBlank.png,images/min4.png,'num_0',"['num_7', 'num_4', 'num_1', 'num_0']",['num_0'],num_0,,,,,0,9,9,9,4,3,19,3,,,,,['num_0'],,0.0543757948326,1,['num_0'],0,[0.6711241025477648],1,2018_Jun_03_1253,60.0433050852,sequenceLearningTask,001,109,
min1.png,min2.png,min3.png,min4.png,images/allBlank.png,images/min1.png,'num_7',"['num_7', 'num_4', 'num_1', 'num_0']",['num_7'],num_7,,,,,0,9,9,9,5,0,20,0,,,,,['num_7'],,0.0558806153713,1,['num_7'],0,[0.7204734358238056],1,2018_Jun_03_1253,60.0433050852,sequenceLearningTask,001,109,
min1.png,min2.png,min3.png,min4.png,images/allBlank.png,images/min2.png,'num_4',"['num_7', 'num_4', 'num_1', 'num_0']",['num_4'],num_4,,,,,0,9,9,9,5,1,21,1,,,,,['num_4'],,0.0485628717579,1,['num_4'],0,[0.8438695385120809],1,2018_Jun_03_1253,60.0433050852,sequenceLearningTask,001,109,
min1.png,min2.png,min3.png,min4.png,images/allBlank.png,images/min4.png,'num_0',"['num_7', 'num_4', 'num_1', 'num_0']",['num_0'],num_0,,,,,0,9,9,9,5,2,22,3,,,,,['num_0'],,0.0511474871309,1,['num_0'],0,[0.6914211282273754],1,2018_Jun_03_1253,60.0433050852,sequenceLearningTask,001,109,
min1.png,min2.png,min3.png,min4.png,images/allBlank.png,images/min3.png,'num_1',"['num_7', 'num_4', 'num_1', 'num_0']",['num_1'],num_1,,,,,0,9,9,9,5,3,23,2,,,,,['num_1'],,0.0538034872152,1,['num_1'],0,[1.6223721025744453],1,2018_Jun_03_1253,60.0433050852,sequenceLearningTask,001,109,
min1.png,min2.png,min3.png,min4.png,images/allBlank.png,images/min1.png,'num_7',"['num_7', 'num_4', 'num_1', 'num_0']",['num_7'],num_7,,,,,0,9,9,9,6,0,24,0,,,,,['num_7'],,0.0734289230313,1,['num_7'],0,[0.7158145641442388],1,2018_Jun_03_1253,60.0433050852,sequenceLearningTask,001,109,
min1.png,min2.png,min3.png,min4.png,images/allBlank.png,images/min2.png,'num_4',"['num_7', 'num_4', 'num_1', 'num_0']",['num_4'],num_4,,,,,0,9,9,9,6,1,25,1,,,,,['num_4'],,0.0538880000822,1,['num_4'],0,[1.3897120000328869],1,2018_Jun_03_1253,60.0433050852,sequenceLearningTask,001,109,
min1.png,min2.png,min3.png,min4.png,images/allBlank.png,images/min3.png,'num_1',"['num_7', 'num_4', 'num_1', 'num_0']",['num_1'],num_1,,,,,0,9,9,9,6,2,26,2,,,,,['num_1'],,0.0682010255987,1,['num_1'],0,[1.9405636923620477],1,2018_Jun_03_1253,60.0433050852,sequenceLearningTask,001,109,
min1.png,min2.png,min3.png,min4.png,images/allBlank.png,images/min4.png,'num_0',"['num_7', 'num_4', 'num_1', 'num_0']",['num_0'],num_0,,,,,0,9,9,9,6,3,27,3,,,,,['num_0'],,0.0561185640981,1,['num_0'],0,[0.7512722051469609],1,2018_Jun_03_1253,60.0433050852,sequenceLearningTask,001,109,
min1.png,min2.png,min3.png,min4.png,images/allBlank.png,images/min3.png,'num_1',"['num_7', 'num_4', 'num_1', 'num_0']",['num_1'],num_1,,,,,0,9,9,9,7,0,28,2,,,,,['num_1'],,0.0571909743594,1,['num_1'],0,[1.152194051304832],1,2018_Jun_03_1253,60.0433050852,sequenceLearningTask,001,109,
min1.png,min2.png,min3.png,min4.png,images/allBlank.png,images/min1.png,'num_7',"['num_7', 'num_4', 'num_1', 'num_0']",['num_7'],num_7,,,,,0,9,9,9,7,1,29,0,,,,,['num_7'],,0.0548746666173,1,['num_7'],0,[0.8379807180026546],1,2018_Jun_03_1253,60.0433050852,sequenceLearningTask,001,109,
min1.png,min2.png,min3.png,min4.png,images/allBlank.png,images/min4.png,'num_0',"['num_7', 'num_4', 'num_1', 'num_0']",['num_0'],num_0,,,,,0,9,9,9,7,2,30,3,,,,,['num_0'],,0.0521267692093,1,['num_0'],0,[0.9567085128510371],1,2018_Jun_03_1253,60.0433050852,sequenceLearningTask,001,109,
min1.png,min2.png,min3.png,min4.png,images/allBlank.png,images/min2.png,'num_4',"['num_7', 'num_4', 'num_1', 'num_0']",['num_4'],num_4,,,,,0,9,9,9,7,3,31,1,,,,,['num_4'],,0.0576192820445,1,['num_4'],0,[1.0169226666912436],1,2018_Jun_03_1253,60.0433050852,sequenceLearningTask,001,109,
min1.png,min2.png,min3.png,min4.png,images/allBlank.png,images/min2.png,'num_4',"['num_7', 'num_4', 'num_1', 'num_0']",['num_4'],num_4,,,,,0,9,9,9,8,0,32,1,,,,,['num_4'],,0.052708102623,1,['num_4'],0,[0.9904250256950036],1,2018_Jun_03_1253,60.0433050852,sequenceLearningTask,001,109,
min1.png,min2.png,min3.png,min4.png,images/allBlank.png,images/min4.png,'num_0',"['num_7', 'num_4', 'num_1', 'num_0']",['num_0'],num_0,,,,,0,9,9,9,8,1,33,3,,,,,['num_0'],,0.0880713845836,1,['num_0'],0,[0.7198806153610349],1,2018_Jun_03_1253,60.0433050852,sequenceLearningTask,001,109,
min1.png,min2.png,min3.png,min4.png,images/allBlank.png,images/min3.png,'num_1',"['num_7', 'num_4', 'num_1', 'num_0']",['num_1'],num_1,,,,,0,9,9,9,8,2,34,2,,,,,['num_1'],,0.0571167179151,0,"['num_0', 'num_1']",0,"[0.667811281979084, 1.235299282008782]",0,2018_Jun_03_1253,60.0433050852,sequenceLearningTask,001,109,
min1.png,min2.png,min3.png,min4.png,images/allBlank.png,images/min1.png,'num_7',"['num_7', 'num_4', 'num_1', 'num_0']",['num_7'],num_7,,,,,0,9,9,9,8,3,35,0,,,,,['num_7'],,0.0619757949607,1,['num_7'],0,[0.6963630770333111],1,2018_Jun_03_1253,60.0433050852,sequenceLearningTask,001,109,
min1.png,min2.png,min3.png,min4.png,images/allBlank.png,images/min4.png,'num_0',"['num_7', 'num_4', 'num_1', 'num_0']",['num_0'],num_0,,,,,0,9,9,9,9,0,36,3,,,,,['num_0'],,0.047127384576,1,['num_0'],0,[0.8616217436501756],1,2018_Jun_03_1253,60.0433050852,sequenceLearningTask,001,109,
min1.png,min2.png,min3.png,min4.png,images/allBlank.png,images/min3.png,'num_1',"['num_7', 'num_4', 'num_1', 'num_0']",['num_1'],num_1,,,,,0,9,9,9,9,1,37,2,,,,,['num_1'],,0.0552094358718,1,['num_1'],0,[0.7372800000011921],1,2018_Jun_03_1253,60.0433050852,sequenceLearningTask,001,109,
min1.png,min2.png,min3.png,min4.png,images/allBlank.png,images/min2.png,'num_4',"['num_7', 'num_4', 'num_1', 'num_0']",['num_4'],num_4,,,,,0,9,9,9,9,2,38,1,,,,,['num_4'],,0.0558859487064,0,"['num_7', 'num_4']",0,"[0.6697928205830976, 2.3527388718212023]",0,2018_Jun_03_1253,60.0433050852,sequenceLearningTask,001,109,
min1.png,min2.png,min3.png,min4.png,images/allBlank.png,images/min1.png,'num_7',"['num_7', 'num_4', 'num_1', 'num_0']",['num_7'],num_7,,,,,0,9,9,9,9,3,39,0,,,,,['num_7'],,0.0524631795706,1,['num_7'],0,[0.8075474872021005],1,2018_Jun_03_1253,60.0433050852,sequenceLearningTask,001,109,
min1.png,min2.png,min3.png,min4.png,images/allBlank.png,images/min2.png,'num_4',"['num_7', 'num_4', 'num_1', 'num_0']",['num_4'],num_4,,,,,0,9,9,9,10,0,40,1,,,,,['num_4'],,0.0540566153359,1,['num_4'],0,[0.5881140512647107],1,2018_Jun_03_1253,60.0433050852,sequenceLearningTask,001,109,
min1.png,min2.png,min3.png,min4.png,images/allBlank.png,images/min1.png,'num_7',"['num_7', 'num_4', 'num_1', 'num_0']",['num_7'],num_7,,,,,0,9,9,9,10,1,41,0,,,,,['num_7'],,0.0510551794432,1,['num_7'],0,[0.7753087179735303],1,2018_Jun_03_1253,60.0433050852,sequenceLearningTask,001,109,
min1.png,min2.png,min3.png,min4.png,images/allBlank.png,images/min3.png,'num_1',"['num_7', 'num_4', 'num_1', 'num_0']",['num_1'],num_1,,,,,0,9,9,9,10,2,42,2,,,,,['num_1'],,0.050530461478,1,['num_1'],0,[0.926439794828184],1,2018_Jun_03_1253,60.0433050852,sequenceLearningTask,001,109,
min1.png,min2.png,min3.png,min4.png,images/allBlank.png,images/min4.png,'num_0',"['num_7', 'num_4', 'num_1', 'num_0']",['num_0'],num_0,,,,,0,9,9,9,10,3,43,3,,,,,['num_0'],,0.0496742564719,1,['num_0'],0,[0.4929411282064393],1,2018_Jun_03_1253,60.0433050852,sequenceLearningTask,001,109,
min1.png,min2.png,min3.png,min4.png,images/allBlank.png,images/min4.png,'num_0',"['num_7', 'num_4', 'num_1', 'num_0']",['num_0'],num_0,,,,,0,9,9,9,11,0,44,3,,,,,['num_0'],,0.0510063589318,1,['num_0'],0,[1.242614974384196],1,2018_Jun_03_1253,60.0433050852,sequenceLearningTask,001,109,
min1.png,min2.png,min3.png,min4.png,images/allBlank.png,images/min2.png,'num_4',"['num_7', 'num_4', 'num_1', 'num_0']",['num_4'],num_4,,,,,0,9,9,9,11,1,45,1,,,,,['num_4'],,0.0515023589833,1,['num_4'],0,[1.5418449230492115],1,2018_Jun_03_1253,60.0433050852,sequenceLearningTask,001,109,
min1.png,min2.png,min3.png,min4.png,images/allBlank.png,images/min1.png,'num_7',"['num_7', 'num_4', 'num_1', 'num_0']",['num_7'],num_7,,,,,0,9,9,9,11,2,46,0,,,,,['num_7'],,0.0512324102456,1,['num_7'],0,[0.7414662564406171],1,2018_Jun_03_1253,60.0433050852,sequenceLearningTask,001,109,
min1.png,min2.png,min3.png,min4.png,images/allBlank.png,images/min3.png,'num_1',"['num_7', 'num_4', 'num_1', 'num_0']",['num_1'],num_1,,,,,0,9,9,9,11,3,47,2,,,,,['num_1'],,0.0546285128221,1,['num_1'],0,[0.7876877948874608],1,2018_Jun_03_1253,60.0433050852,sequenceLearningTask,001,109,
min1.png,min2.png,min3.png,min4.png,images/allBlank.png,images/min3.png,'num_1',"['num_7', 'num_4', 'num_1', 'num_0']",['num_1'],num_1,,,,,0,9,9,9,12,0,48,2,,,,,['num_1'],,0.049387076986,1,['num_1'],0,[0.8082978461170569],1,2018_Jun_03_1253,60.0433050852,sequenceLearningTask,001,109,
min1.png,min2.png,min3.png,min4.png,images/allBlank.png,images/min1.png,'num_7',"['num_7', 'num_4', 'num_1', 'num_0']",['num_7'],num_7,,,,,0,9,9,9,12,1,49,0,,,,,['num_7'],,0.0523331282893,1,['num_7'],0,[0.8573152819881216],1,2018_Jun_03_1253,60.0433050852,sequenceLearningTask,001,109,
min1.png,min2.png,min3.png,min4.png,images/allBlank.png,images/min2.png,'num_4',"['num_7', 'num_4', 'num_1', 'num_0']",['num_4'],num_4,,,,,0,9,9,9,12,2,50,1,,,,,['num_4'],,0.0504402051447,1,['num_4'],0,[0.9582075898069888],1,2018_Jun_03_1253,60.0433050852,sequenceLearningTask,001,109,
min1.png,min2.png,min3.png,min4.png,images/allBlank.png,images/min4.png,'num_0',"['num_7', 'num_4', 'num_1', 'num_0']",['num_0'],num_0,,,,,0,9,9,9,12,3,51,3,,,,,['num_0'],,0.0533489229856,1,['num_0'],0,[0.7396082051564008],1,2018_Jun_03_1253,60.0433050852,sequenceLearningTask,001,109,
min1.png,min2.png,min3.png,min4.png,images/allBlank.png,images/min4.png,'num_0',"['num_7', 'num_4', 'num_1', 'num_0']",['num_0'],num_0,,,,,0,9,9,9,13,0,52,3,,,,,['num_0'],,0.0600521025481,1,['num_0'],0,[0.9154293333413079],1,2018_Jun_03_1253,60.0433050852,sequenceLearningTask,001,109,
min1.png,min2.png,min3.png,min4.png,images/allBlank.png,images/min2.png,'num_4',"['num_7', 'num_4', 'num_1', 'num_0']",['num_4'],num_4,,,,,0,9,9,9,13,1,53,1,,,,,['num_4'],,0.0532972308574,0,"['num_1', 'num_4']",0,"[1.8387035897467285, 2.5557312819873914]",0,2018_Jun_03_1253,60.0433050852,sequenceLearningTask,001,109,
min1.png,min2.png,min3.png,min4.png,images/allBlank.png,images/min1.png,'num_7',"['num_7', 'num_4', 'num_1', 'num_0']",['num_7'],num_7,,,,,0,9,9,9,13,2,54,0,,,,,['num_7'],,0.0579138462199,1,['num_7'],0,[1.0852631794987246],1,2018_Jun_03_1253,60.0433050852,sequenceLearningTask,001,109,
min1.png,min2.png,min3.png,min4.png,images/allBlank.png,images/min3.png,'num_1',"['num_7', 'num_4', 'num_1', 'num_0']",['num_1'],num_1,,,,,0,9,9,9,13,3,55,2,,,,,['num_1'],,0.0524369230261,1,['num_1'],0,[0.7737698461860418],1,2018_Jun_03_1253,60.0433050852,sequenceLearningTask,001,109,
min1.png,min2.png,min3.png,min4.png,images/allBlank.png,images/min2.png,'num_4',"['num_7', 'num_4', 'num_1', 'num_0']",['num_4'],num_4,,,,,0,9,9,9,14,0,56,1,,,,,['num_4'],,0.0550797949545,1,['num_4'],0,[0.720692923059687],1,2018_Jun_03_1253,60.0433050852,sequenceLearningTask,001,109,
min1.png,min2.png,min3.png,min4.png,images/allBlank.png,images/min1.png,'num_7',"['num_7', 'num_4', 'num_1', 'num_0']",['num_7'],num_7,,,,,0,9,9,9,14,1,57,0,,,,,['num_7'],,0.0544845128898,1,['num_7'],0,[0.6369259487837553],1,2018_Jun_03_1253,60.0433050852,sequenceLearningTask,001,109,
min1.png,min2.png,min3.png,min4.png,images/allBlank.png,images/min3.png,'num_1',"['num_7', 'num_4', 'num_1', 'num_0']",['num_1'],num_1,,,,,0,9,9,9,14,2,58,2,,,,,['num_1'],,0.053872410208,1,['num_1'],0,[1.0055360000114888],1,2018_Jun_03_1253,60.0433050852,sequenceLearningTask,001,109,
min1.png,min2.png,min3.png,min4.png,images/allBlank.png,images/min4.png,'num_0',"['num_7', 'num_4', 'num_1', 'num_0']",['num_0'],num_0,,,,,0,9,9,9,14,3,59,3,,,,,['num_0'],,0.0545567178633,1,['num_0'],0,[0.77057476923801],1,2018_Jun_03_1253,60.0433050852,sequenceLearningTask,001,109,
min1.png,min2.png,min3.png,min4.png,images/allBlank.png,images/min2.png,'num_4',"['num_7', 'num_4', 'num_1', 'num_0']",['num_4'],num_4,,,,,0,9,9,9,15,0,60,1,,,,,['num_4'],,0.0544147691689,0,"['num_1', 'num_4']",0,"[0.00023958971723914146, 1.572028307709843]",0,2018_Jun_03_1253,60.0433050852,sequenceLearningTask,001,109,
min1.png,min2.png,min3.png,min4.png,images/allBlank.png,images/min3.png,'num_1',"['num_7', 'num_4', 'num_1', 'num_0']",['num_1'],num_1,,,,,0,9,9,9,15,1,61,2,,,,,['num_1'],,0.0660877949558,1,['num_1'],0,[1.4419126154389232],1,2018_Jun_03_1253,60.0433050852,sequenceLearningTask,001,109,
min1.png,min2.png,min3.png,min4.png,images/allBlank.png,images/min1.png,'num_7',"['num_7', 'num_4', 'num_1', 'num_0']",['num_7'],num_7,,,,,0,9,9,9,15,2,62,0,,,,,['num_7'],,0.0292681024875,1,['num_7'],0,[0.9663076922297478],1,2018_Jun_03_1253,60.0433050852,sequenceLearningTask,001,109,
min1.png,min2.png,min3.png,min4.png,images/allBlank.png,images/min4.png,'num_0',"['num_7', 'num_4', 'num_1', 'num_0']",['num_0'],num_0,,,,,0,9,9,9,15,3,63,3,,,,,['num_0'],,0.0555716922972,1,['num_0'],0,[0.47094235895201564],1,2018_Jun_03_1253,60.0433050852,sequenceLearningTask,001,109,
min1.png,min2.png,min3.png,min4.png,images/allBlank.png,images/min3.png,'num_1',"['num_7', 'num_4', 'num_1', 'num_0']",['num_1'],num_1,,,,,0,9,9,9,16,0,64,2,,,,,['num_1'],,0.0593567179749,0,"['num_0', 'num_1']",0,"[1.0314404101809487, 1.064585846150294]",0,2018_Jun_03_1253,60.0433050852,sequenceLearningTask,001,109,
min1.png,min2.png,min3.png,min4.png,images/allBlank.png,images/min1.png,'num_7',"['num_7', 'num_4', 'num_1', 'num_0']",['num_7'],num_7,,,,,0,9,9,9,16,1,65,0,,,,,['num_7'],,0.0576660513179,1,['num_7'],0,[0.7680545641342178],1,2018_Jun_03_1253,60.0433050852,sequenceLearningTask,001,109,
min1.png,min2.png,min3.png,min4.png,images/allBlank.png,images/min4.png,'num_0',"['num_7', 'num_4', 'num_1', 'num_0']",['num_0'],num_0,,,,,0,9,9,9,16,2,66,3,,,,,['num_0'],,0.0527450257214,1,['num_0'],0,[0.7075150769669563],1,2018_Jun_03_1253,60.0433050852,sequenceLearningTask,001,109,
min1.png,min2.png,min3.png,min4.png,images/allBlank.png,images/min2.png,'num_4',"['num_7', 'num_4', 'num_1', 'num_0']",['num_4'],num_4,,,,,0,9,9,9,16,3,67,1,,,,,['num_4'],,0.0508791795,1,['num_4'],0,[1.9417464615544304],1,2018_Jun_03_1253,60.0433050852,sequenceLearningTask,001,109,
min1.png,min2.png,min3.png,min4.png,images/allBlank.png,images/min4.png,'num_0',"['num_7', 'num_4', 'num_1', 'num_0']",['num_0'],num_0,,,,,0,9,9,9,17,0,68,3,,,,,['num_0'],,0.0516192819923,1,['num_0'],0,[0.5236590768909082],1,2018_Jun_03_1253,60.0433050852,sequenceLearningTask,001,109,
min1.png,min2.png,min3.png,min4.png,images/allBlank.png,images/min1.png,'num_7',"['num_7', 'num_4', 'num_1', 'num_0']",['num_7'],num_7,,,,,0,9,9,9,17,1,69,0,,,,,['num_7'],,0.0563081025612,1,['num_7'],0,[0.836384000023827],1,2018_Jun_03_1253,60.0433050852,sequenceLearningTask,001,109,
min1.png,min2.png,min3.png,min4.png,images/allBlank.png,images/min2.png,'num_4',"['num_7', 'num_4', 'num_1', 'num_0']",['num_4'],num_4,,,,,0,9,9,9,17,2,70,1,,,,,['num_4'],,0.0581538461847,1,['num_4'],0,[0.800777435884811],1,2018_Jun_03_1253,60.0433050852,sequenceLearningTask,001,109,
min1.png,min2.png,min3.png,min4.png,images/allBlank.png,images/min3.png,'num_1',"['num_7', 'num_4', 'num_1', 'num_0']",['num_1'],num_1,,,,,0,9,9,9,17,3,71,2,,,,,['num_1'],,0.056932102656,1,['num_1'],0,[0.7847204102436081],1,2018_Jun_03_1253,60.0433050852,sequenceLearningTask,001,109,
min1.png,min2.png,min3.png,min4.png,images/allBlank.png,images/min3.png,'num_1',"['num_7', 'num_4', 'num_1', 'num_0']",['num_1'],num_1,,,,,0,9,9,9,18,0,72,2,,,,,['num_1'],,0.0545952820685,1,['num_1'],0,[0.8053509743185714],1,2018_Jun_03_1253,60.0433050852,sequenceLearningTask,001,109,
min1.png,min2.png,min3.png,min4.png,images/allBlank.png,images/min2.png,'num_4',"['num_7', 'num_4', 'num_1', 'num_0']",['num_4'],num_4,,,,,0,9,9,9,18,1,73,1,,,,,['num_4'],,0.0527495384449,1,['num_4'],0,[0.9576947692548856],1,2018_Jun_03_1253,60.0433050852,sequenceLearningTask,001,109,
min1.png,min2.png,min3.png,min4.png,images/allBlank.png,images/min1.png,'num_7',"['num_7', 'num_4', 'num_1', 'num_0']",['num_7'],num_7,,,,,0,9,9,9,18,2,74,0,,,,,['num_7'],,0.0542756923242,1,['num_7'],0,[0.6542305641341954],1,2018_Jun_03_1253,60.0433050852,sequenceLearningTask,001,109,
min1.png,min2.png,min3.png,min4.png,images/allBlank.png,images/min4.png,'num_0',"['num_7', 'num_4', 'num_1', 'num_0']",['num_0'],num_0,,,,,0,9,9,9,18,3,75,3,,,,,['num_0'],,0.0487368204631,1,['num_0'],0,[1.9941292307339609],1,2018_Jun_03_1253,60.0433050852,sequenceLearningTask,001,109,
min1.png,min2.png,min3.png,min4.png,images/allBlank.png,images/min1.png,'num_7',"['num_7', 'num_4', 'num_1', 'num_0']",['num_7'],num_7,,,,,0,9,9,9,19,0,76,0,,,,,['num_7'],,0.0592332307715,1,['num_7'],0,[1.3172992820618674],1,2018_Jun_03_1253,60.0433050852,sequenceLearningTask,001,109,
min1.png,min2.png,min3.png,min4.png,images/allBlank.png,images/min3.png,'num_1',"['num_7', 'num_4', 'num_1', 'num_0']",['num_1'],num_1,,,,,0,9,9,9,19,1,77,2,,,,,['num_1'],,0.05025887175,1,['num_1'],0,[2.6914412308251485],1,2018_Jun_03_1253,60.0433050852,sequenceLearningTask,001,109,
min1.png,min2.png,min3.png,min4.png,images/allBlank.png,images/min2.png,'num_4',"['num_7', 'num_4', 'num_1', 'num_0']",['num_4'],num_4,,,,,0,9,9,9,19,2,78,1,,,,,['num_4'],,0.0564812307712,0,"['num_7', 'num_4']",0,"[0.7353025641059503, 1.1864578461972997]",0,2018_Jun_03_1253,60.0433050852,sequenceLearningTask,001,109,
min1.png,min2.png,min3.png,min4.png,images/allBlank.png,images/min4.png,'num_0',"['num_7', 'num_4', 'num_1', 'num_0']",['num_0'],num_0,,,,,0,9,9,9,19,3,79,3,,,,,['num_0'],,0.0524369230261,1,['num_0'],0,[0.5408841025782749],1,2018_Jun_03_1253,60.0433050852,sequenceLearningTask,001,109,
min1.png,min2.png,min3.png,min4.png,allBlank.png,,,,['num_7'],,,,,,0,0,0,0,,,,,,,,,['num_7'],1,0.0511122051394,1,['num_7'],0,[0.6704603077378124],,2018_Jun_03_1253,60.0433050852,sequenceLearningTask,001,109,
min1.png,min2.png,min3.png,min4.png,allBlank.png,,,,['num_1'],,,,,,0,0,0,0,,,,,,,,,['num_1'],1,0.0598170256708,1,['num_1'],0,[1.0175729230977595],,2018_Jun_03_1253,60.0433050852,sequenceLearningTask,001,109,
min1.png,min2.png,min3.png,min4.png,allBlank.png,,,,['num_4'],,,,,,0,0,0,0,,,,,,,,,['num_4'],1,0.0509456410073,1,['num_4'],0,[0.759993435931392],,2018_Jun_03_1253,60.0433050852,sequenceLearningTask,001,109,
min1.png,min2.png,min3.png,min4.png,allBlank.png,,,,['num_0'],,,,,,0,0,0,0,,,,,,,,,['num_0'],1,0.0532213333063,1,['num_0'],0,[0.5913997949101031],,2018_Jun_03_1253,60.0433050852,sequenceLearningTask,001,109,
min1.png,min2.png,min3.png,min4.png,allBlank.png,,,,['num_0'],,,,,,0,0,0,0,,,,,,,,,['num_0'],1,0.054915692308,1,['num_0'],0,[0.723669333383441],,2018_Jun_03_1253,60.0433050852,sequenceLearningTask,001,109,
min1.png,min2.png,min3.png,min4.png,allBlank.png,,,,['num_4'],,,,,,0,0,0,0,,,,,,,,,['num_4'],1,0.0517628717935,1,['num_4'],0,[0.7760184615617618],,2018_Jun_03_1253,60.0433050852,sequenceLearningTask,001,109,
min1.png,min2.png,min3.png,min4.png,allBlank.png,,,,['num_1'],,,,,,0,0,0,0,,,,,,,,,['num_1'],1,0.0629862564383,1,['num_1'],0,[1.1484307693317533],,2018_Jun_03_1253,60.0433050852,sequenceLearningTask,001,109,
min1.png,min2.png,min3.png,min4.png,allBlank.png,,,,['num_0'],,,,,,0,0,0,0,,,,,,,,,['num_0'],1,0.0528418462491,1,['num_0'],0,[0.6909940512850881],,2018_Jun_03_1253,60.0433050852,sequenceLearningTask,001,109,
min1.png,min2.png,min3.png,min4.png,allBlank.png,,,,['num_7'],,,,,,0,1,1,1,,,,,,,,,['num_7'],2,0.0486408204306,1,['num_7'],0,[0.7432545641204342],,2018_Jun_03_1253,60.0433050852,sequenceLearningTask,001,109,
min1.png,min2.png,min3.png,min4.png,allBlank.png,,,,['num_1'],,,,,,0,1,1,1,,,,,,,,,['num_1'],2,0.0544537435053,1,['num_1'],0,[1.5722863590344787],,2018_Jun_03_1253,60.0433050852,sequenceLearningTask,001,109,
min1.png,min2.png,min3.png,min4.png,allBlank.png,,,,['num_4'],,,,,,0,1,1,1,,,,,,,,,['num_4'],2,0.0525173333008,1,['num_4'],0,[0.9928299487801269],,2018_Jun_03_1253,60.0433050852,sequenceLearningTask,001,109,
min1.png,min2.png,min3.png,min4.png,allBlank.png,,,,['num_0'],,,,,,0,1,1,1,,,,,,,,,['num_0'],2,0.0588533333503,1,['num_0'],0,[0.8687655384419486],,2018_Jun_03_1253,60.0433050852,sequenceLearningTask,001,109,
min1.png,min2.png,min3.png,min4.png,allBlank.png,,,,['num_0'],,,,,,0,1,1,1,,,,,,,,,['num_0'],2,0.0579257436329,1,['num_0'],0,[0.7711483077146113],,2018_Jun_03_1253,60.0433050852,sequenceLearningTask,001,109,
min1.png,min2.png,min3.png,min4.png,allBlank.png,,,,['num_4'],,,,,,0,1,1,1,,,,,,,,,['num_4'],2,0.0542075897101,1,['num_4'],0,[2.5724127179710194],,2018_Jun_03_1253,60.0433050852,sequenceLearningTask,001,109,
min1.png,min2.png,min3.png,min4.png,allBlank.png,,,,['num_1'],,,,,,0,1,1,1,,,,,,,,,['num_1'],2,0.0489074871875,0,"['num_4', 'num_1', 'num_0', 'num_0', 'num_1']",0,"[1.1128393845865503, 1.8815298461122438, 2.6963536409894004, 2.7297456410015]",,2018_Jun_03_1253,60.0433050852,sequenceLearningTask,001,109,
min1.png,min2.png,min3.png,min4.png,allBlank.png,,,,['num_0'],,,,,,0,1,1,1,,,,,,,,,['num_0'],2,0.0552902565105,1,['num_0'],0,[0.9055105641018599],,2018_Jun_03_1253,60.0433050852,sequenceLearningTask,001,109,
min1.png,min2.png,min3.png,min4.png,allBlank.png,,,,['num_7'],,,,,,0,2,2,2,,,,,,,,,['num_7'],3,0.0552196922945,1,['num_7'],0,[0.9705308717675507],,2018_Jun_03_1253,60.0433050852,sequenceLearningTask,001,109,
min1.png,min2.png,min3.png,min4.png,allBlank.png,,,,['num_1'],,,,,,0,2,2,2,,,,,,,,,['num_1'],3,0.0532882050611,1,['num_1'],0,[1.2246617436176166],,2018_Jun_03_1253,60.0433050852,sequenceLearningTask,001,109,
min1.png,min2.png,min3.png,min4.png,allBlank.png,,,,['num_4'],,,,,,0,2,2,2,,,,,,,,,['num_4'],3,0.053336615325,1,['num_4'],0,[1.5242843077285215],,2018_Jun_03_1253,60.0433050852,sequenceLearningTask,001,109,
min1.png,min2.png,min3.png,min4.png,allBlank.png,,,,['num_0'],,,,,,0,2,2,2,,,,,,,,,['num_0'],3,0.0556402051589,1,['num_0'],0,[0.7727154871681705],,2018_Jun_03_1253,60.0433050852,sequenceLearningTask,001,109,
min1.png,min2.png,min3.png,min4.png,allBlank.png,,,,['num_0'],,,,,,0,2,2,2,,,,,,,,,['num_0'],3,0.0493936409475,1,['num_0'],0,[0.9462170256301761],,2018_Jun_03_1253,60.0433050852,sequenceLearningTask,001,109,
min1.png,min2.png,min3.png,min4.png,allBlank.png,,,,['num_4'],,,,,,0,2,2,2,,,,,,,,,['num_4'],3,0.0515282050474,0,"['num_7', 'num_4']",0,"[0.6623228718526661, 1.7102748717879876]",,2018_Jun_03_1253,60.0433050852,sequenceLearningTask,001,109,
min1.png,min2.png,min3.png,min4.png,allBlank.png,,,,['num_1'],,,,,,0,2,2,2,,,,,,,,,['num_1'],3,0.0543167178985,1,['num_1'],0,[1.1571105640614405],,2018_Jun_03_1253,60.0433050852,sequenceLearningTask,001,109,
min1.png,min2.png,min3.png,min4.png,allBlank.png,,,,['num_0'],,,,,,0,2,2,2,,,,,,,,,['num_0'],3,0.0533120000036,1,['num_0'],0,[0.8751163077540696],,2018_Jun_03_1253,60.0433050852,sequenceLearningTask,001,109,
min1.png,min2.png,min3.png,min4.png,allBlank.png,,,,['num_7'],,,,,,0,3,3,3,,,,,,,,,['num_7'],4,0.0563958974089,1,['num_7'],0,[0.6870953845791519],,2018_Jun_03_1253,60.0433050852,sequenceLearningTask,001,109,
min1.png,min2.png,min3.png,min4.png,allBlank.png,,,,['num_1'],,,,,,0,3,3,3,,,,,,,,,['num_1'],4,0.050619487185,1,['num_1'],0,[0.7597509743645787],,2018_Jun_03_1253,60.0433050852,sequenceLearningTask,001,109,
min1.png,min2.png,min3.png,min4.png,allBlank.png,,,,['num_4'],,,,,,0,3,3,3,,,,,,,,,['num_4'],4,0.0503741537686,1,['num_4'],0,[0.7101710769347847],,2018_Jun_03_1253,60.0433050852,sequenceLearningTask,001,109,
min1.png,min2.png,min3.png,min4.png,allBlank.png,,,,['num_0'],,,,,,0,3,3,3,,,,,,,,,['num_0'],4,0.0599815384485,1,['num_0'],0,[0.6170703589450568],,2018_Jun_03_1253,60.0433050852,sequenceLearningTask,001,109,
min1.png,min2.png,min3.png,min4.png,allBlank.png,,,,['num_0'],,,,,,0,3,3,3,,,,,,,,,['num_0'],4,0.0527035897831,1,['num_0'],0,[0.7425542564596981],,2018_Jun_03_1253,60.0433050852,sequenceLearningTask,001,109,
min1.png,min2.png,min3.png,min4.png,allBlank.png,,,,['num_4'],,,,,,0,3,3,3,,,,,,,,,['num_4'],4,0.0511581538012,1,['num_4'],0,[1.4777271795319393],,2018_Jun_03_1253,60.0433050852,sequenceLearningTask,001,109,
min1.png,min2.png,min3.png,min4.png,allBlank.png,,,,['num_1'],,,,,,0,3,3,3,,,,,,,,,['num_1'],4,0.054232615279,1,['num_1'],0,[1.675129025708884],,2018_Jun_03_1253,60.0433050852,sequenceLearningTask,001,109,
min1.png,min2.png,min3.png,min4.png,allBlank.png,,,,['num_0'],,,,,,0,3,3,3,,,,,,,,,['num_0'],4,0.0607007179642,1,['num_0'],0,[0.7671064614551142],,2018_Jun_03_1253,60.0433050852,sequenceLearningTask,001,109,
min1.png,min2.png,min3.png,min4.png,allBlank.png,,,,['num_7'],,,,,,0,4,4,4,,,,,,,,,['num_7'],5,0.0541981537826,1,['num_7'],0,[0.7042970256879926],,2018_Jun_03_1253,60.0433050852,sequenceLearningTask,001,109,
min1.png,min2.png,min3.png,min4.png,allBlank.png,,,,['num_1'],,,,,,0,4,4,4,,,,,,,,,['num_1'],5,0.0510391794378,1,['num_1'],0,[1.0107146666850895],,2018_Jun_03_1253,60.0433050852,sequenceLearningTask,001,109,
min1.png,min2.png,min3.png,min4.png,allBlank.png,,,,['num_4'],,,,,,0,4,4,4,,,,,,,,,['num_4'],5,0.0521932308329,1,['num_4'],0,[1.125860512838699],,2018_Jun_03_1253,60.0433050852,sequenceLearningTask,001,109,
min1.png,min2.png,min3.png,min4.png,allBlank.png,,,,['num_0'],,,,,,0,4,4,4,,,,,,,,,['num_0'],5,0.0517780513037,1,['num_0'],0,[0.7425234871916473],,2018_Jun_03_1253,60.0433050852,sequenceLearningTask,001,109,
min1.png,min2.png,min3.png,min4.png,allBlank.png,,,,['num_0'],,,,,,0,4,4,4,,,,,,,,,['num_0'],5,0.0539466666523,1,['num_0'],0,[0.8078416410135105],,2018_Jun_03_1253,60.0433050852,sequenceLearningTask,001,109,
min1.png,min2.png,min3.png,min4.png,allBlank.png,,,,['num_4'],,,,,,0,4,4,4,,,,,,,,,['num_4'],5,0.0503708717879,1,['num_4'],0,[0.7775979486759752],,2018_Jun_03_1253,60.0433050852,sequenceLearningTask,001,109,
min1.png,min2.png,min3.png,min4.png,allBlank.png,,,,['num_1'],,,,,,0,4,4,4,,,,,,,,,['num_1'],5,0.0587979487609,1,['num_1'],0,[1.0186186666833237],,2018_Jun_03_1253,60.0433050852,sequenceLearningTask,001,109,
min1.png,min2.png,min3.png,min4.png,allBlank.png,,,,['num_0'],,,,,,0,4,4,4,,,,,,,,,['num_0'],5,0.0588328205049,1,['num_0'],0,[0.885669743642211],,2018_Jun_03_1253,60.0433050852,sequenceLearningTask,001,109,
min1.png,min2.png,min3.png,min4.png,allBlank.png,,,,['num_7'],,,,,,0,5,5,5,,,,,,,,,['num_7'],6,0.0530974358553,1,['num_7'],0,[0.9743663589470088],,2018_Jun_03_1253,60.0433050852,sequenceLearningTask,001,109,
min1.png,min2.png,min3.png,min4.png,allBlank.png,,,,['num_1'],,,,,,0,5,5,5,,,,,,,,,['num_1'],6,0.0533965127543,0,"['num_4', 'num_1']",0,"[1.075005128281191, 2.1920537436380982]",,2018_Jun_03_1253,60.0433050852,sequenceLearningTask,001,109,
min1.png,min2.png,min3.png,min4.png,allBlank.png,,,,['num_4'],,,,,,0,5,5,5,,,,,,,,,['num_4'],6,0.0585263590328,1,['num_4'],0,[0.8026404102565721],,2018_Jun_03_1253,60.0433050852,sequenceLearningTask,001,109,
min1.png,min2.png,min3.png,min4.png,allBlank.png,,,,['num_0'],,,,,,0,5,5,5,,,,,,,,,['num_0'],6,0.0494674872607,0,"['num_1', 'num_0']",0,"[0.8287056410918012, 1.3459351795027032]",,2018_Jun_03_1253,60.0433050852,sequenceLearningTask,001,109,
min1.png,min2.png,min3.png,min4.png,allBlank.png,,,,['num_0'],,,,,,0,5,5,5,,,,,,,,,['num_0'],6,0.0588947691722,1,['num_0'],0,[0.8695413334062323],,2018_Jun_03_1253,60.0433050852,sequenceLearningTask,001,109,
min1.png,min2.png,min3.png,min4.png,allBlank.png,,,,['num_4'],,,,,,0,5,5,5,,,,,,,,,['num_4'],6,0.0527597948676,0,"['num_1', 'num_4']",0,"[0.8257419487927109, 1.5916672820458189]",,2018_Jun_03_1253,60.0433050852,sequenceLearningTask,001,109,
min1.png,min2.png,min3.png,min4.png,allBlank.png,,,,['num_1'],,,,,,0,5,5,5,,,,,,,,,['num_1'],6,0.0524094358552,1,['num_1'],0,[1.3417091282317415],,2018_Jun_03_1253,60.0433050852,sequenceLearningTask,001,109,
min1.png,min2.png,min3.png,min4.png,allBlank.png,,,,['num_0'],,,,,,0,5,5,5,,,,,,,,,['num_0'],6,0.0508578461595,1,['num_0'],0,[0.9101189743960276],,2018_Jun_03_1253,60.0433050852,sequenceLearningTask,001,109,
min1.png,min2.png,min3.png,min4.png,allBlank.png,,,,['num_7'],,,,,,0,6,6,6,,,,,,,,,['num_7'],7,0.0521456410643,1,['num_7'],0,[0.7577001026365906],,2018_Jun_03_1253,60.0433050852,sequenceLearningTask,001,109,
min1.png,min2.png,min3.png,min4.png,allBlank.png,,,,['num_1'],,,,,,0,6,6,6,,,,,,,,,['num_1'],7,0.0521271794569,1,['num_1'],0,[0.8422724102856591],,2018_Jun_03_1253,60.0433050852,sequenceLearningTask,001,109,
min1.png,min2.png,min3.png,min4.png,allBlank.png,,,,['num_4'],,,,,,0,6,6,6,,,,,,,,,['num_4'],7,0.0548693333985,1,['num_4'],0,[2.240406153840013],,2018_Jun_03_1253,60.0433050852,sequenceLearningTask,001,109,
min1.png,min2.png,min3.png,min4.png,allBlank.png,,,,['num_0'],,,,,,0,6,6,6,,,,,,,,,['num_0'],7,0.0534715898102,1,['num_0'],0,[0.5736229743342847],,2018_Jun_03_1253,60.0433050852,sequenceLearningTask,001,109,
min1.png,min2.png,min3.png,min4.png,allBlank.png,,,,['num_0'],,,,,,0,6,6,6,,,,,,,,,['num_0'],7,0.0565013333689,1,['num_0'],0,[0.6547721025999635],,2018_Jun_03_1253,60.0433050852,sequenceLearningTask,001,109,
min1.png,min2.png,min3.png,min4.png,allBlank.png,,,,['num_4'],,,,,,0,6,6,6,,,,,,,,,['num_4'],7,0.0495388718555,1,['num_4'],0,[2.261450666701421],,2018_Jun_03_1253,60.0433050852,sequenceLearningTask,001,109,
min1.png,min2.png,min3.png,min4.png,allBlank.png,,,,['num_1'],,,,,,0,6,6,6,,,,,,,,,['num_1'],7,0.0509115897585,1,['num_1'],0,[2.060012307600118],,2018_Jun_03_1253,60.0433050852,sequenceLearningTask,001,109,
min1.png,min2.png,min3.png,min4.png,allBlank.png,,,,['num_0'],,,,,,0,6,6,6,,,,,,,,,['num_0'],7,0.0589985640254,1,['num_0'],0,[0.5526683076750487],,2018_Jun_03_1253,60.0433050852,sequenceLearningTask,001,109,
min1.png,min2.png,min3.png,min4.png,allBlank.png,,,,['num_7'],,,,,,0,7,7,7,,,,,,,,,['num_7'],8,0.0568726154743,1,['num_7'],0,[0.5683995897416025],,2018_Jun_03_1253,60.0433050852,sequenceLearningTask,001,109,
min1.png,min2.png,min3.png,min4.png,allBlank.png,,,,['num_1'],,,,,,0,7,7,7,,,,,,,,,['num_1'],8,0.0611396923196,0,"['num_0', 'num_1']",0,"[0.4159220512956381, 0.9831261539366096]",,2018_Jun_03_1253,60.0433050852,sequenceLearningTask,001,109,
min1.png,min2.png,min3.png,min4.png,allBlank.png,,,,['num_4'],,,,,,0,7,7,7,,,,,,,,,['num_4'],8,0.0529074871447,1,['num_4'],0,[0.6751704616472125],,2018_Jun_03_1253,60.0433050852,sequenceLearningTask,001,109,
min1.png,min2.png,min3.png,min4.png,allBlank.png,,,,['num_0'],,,,,,0,7,7,7,,,,,,,,,['num_0'],8,0.0507630768698,1,['num_0'],0,[0.7270974359707907],,2018_Jun_03_1253,60.0433050852,sequenceLearningTask,001,109,
min1.png,min2.png,min3.png,min4.png,allBlank.png,,,,['num_0'],,,,,,0,7,7,7,,,,,,,,,['num_0'],8,0.0538453332847,1,['num_0'],0,[0.69102892302908],,2018_Jun_03_1253,60.0433050852,sequenceLearningTask,001,109,
min1.png,min2.png,min3.png,min4.png,allBlank.png,,,,['num_4'],,,,,,0,7,7,7,,,,,,,,,['num_4'],8,0.0635171282338,0,"['num_1', 'num_4']",0,"[0.8618441026192158, 4.580786871840246]",,2018_Jun_03_1253,60.0433050852,sequenceLearningTask,001,109,
min1.png,min2.png,min3.png,min4.png,allBlank.png,,,,['num_1'],,,,,,0,7,7,7,,,,,,,,,['num_1'],8,0.0521522051422,1,['num_1'],0,[0.9908976410515606],,2018_Jun_03_1253,60.0433050852,sequenceLearningTask,001,109,
min1.png,min2.png,min3.png,min4.png,allBlank.png,,,,['num_0'],,,,,,0,7,7,7,,,,,,,,,['num_0'],8,0.0541074872017,1,['num_0'],0,[0.490882461424917],,2018_Jun_03_1253,60.0433050852,sequenceLearningTask,001,109,
min1.png,min2.png,min3.png,min4.png,allBlank.png,,,,['num_7'],,,,,,0,8,8,8,,,,,,,,,['num_7'],9,0.0531433846336,1,['num_7'],0,[0.6222354872152209],,2018_Jun_03_1253,60.0433050852,sequenceLearningTask,001,109,
min1.png,min2.png,min3.png,min4.png,allBlank.png,,,,['num_1'],,,,,,0,8,8,8,,,,,,,,,['num_1'],9,0.0602990768384,0,"['num_4', 'num_1']",0,"[0.6344086154131219, 1.0503487179521471]",,2018_Jun_03_1253,60.0433050852,sequenceLearningTask,001,109,
min1.png,min2.png,min3.png,min4.png,allBlank.png,,,,['num_4'],,,,,,0,8,8,8,,,,,,,,,['num_4'],9,0.0565230768407,1,['num_4'],0,[0.5874773333780468],,2018_Jun_03_1253,60.0433050852,sequenceLearningTask,001,109,
min1.png,min2.png,min3.png,min4.png,allBlank.png,,,,['num_0'],,,,,,0,8,8,8,,,,,,,,,['num_0'],9,0.057782974327,1,['num_0'],0,[0.7007839999860153],,2018_Jun_03_1253,60.0433050852,sequenceLearningTask,001,109,
min1.png,min2.png,min3.png,min4.png,allBlank.png,,,,['num_0'],,,,,,0,8,8,8,,,,,,,,,['num_0'],9,0.0548094358528,1,['num_0'],0,[0.4407339487224817],,2018_Jun_03_1253,60.0433050852,sequenceLearningTask,001,109,
min1.png,min2.png,min3.png,min4.png,allBlank.png,,,,['num_4'],,,,,,0,8,8,8,,,,,,,,,['num_4'],9,0.051938461489,1,['num_4'],0,[2.1924315898213536],,2018_Jun_03_1253,60.0433050852,sequenceLearningTask,001,109,
min1.png,min2.png,min3.png,min4.png,allBlank.png,,,,['num_1'],,,,,,0,8,8,8,,,,,,,,,['num_1'],9,0.0558855384588,1,['num_1'],0,[1.3068475897889584],,2018_Jun_03_1253,60.0433050852,sequenceLearningTask,001,109,
min1.png,min2.png,min3.png,min4.png,allBlank.png,,,,['num_0'],,,,,,0,8,8,8,,,,,,,,,['num_0'],9,0.054286769242,1,['num_0'],0,[0.9740291282068938],,2018_Jun_03_1253,60.0433050852,sequenceLearningTask,001,109,
min1.png,min2.png,min3.png,min4.png,allBlank.png,,,,['num_7'],,,,,,0,9,9,9,,,,,,,,,['num_7'],10,0.0544873846229,1,['num_7'],0,[0.753976205131039],,2018_Jun_03_1253,60.0433050852,sequenceLearningTask,001,109,
min1.png,min2.png,min3.png,min4.png,allBlank.png,,,,['num_1'],,,,,,0,9,9,9,,,,,,,,,['num_1'],10,0.0518416409614,1,['num_1'],0,[1.2934998974669725],,2018_Jun_03_1253,60.0433050852,sequenceLearningTask,001,109,
min1.png,min2.png,min3.png,min4.png,allBlank.png,,,,['num_4'],,,,,,0,9,9,9,,,,,,,,,['num_4'],10,0.0560627692612,0,"['num_7', 'num_4']",0,"[0.5556603076402098, 0.9730059487046674]",,2018_Jun_03_1253,60.0433050852,sequenceLearningTask,001,109,
min1.png,min2.png,min3.png,min4.png,allBlank.png,,,,['num_0'],,,,,,0,9,9,9,,,,,,,,,['num_0'],10,0.0560471795034,1,['num_0'],0,[0.5882317948853597],,2018_Jun_03_1253,60.0433050852,sequenceLearningTask,001,109,
min1.png,min2.png,min3.png,min4.png,allBlank.png,,,,['num_0'],,,,,,0,9,9,9,,,,,,,,,['num_0'],10,0.0510297436267,0,"['num_1', 'num_0']",0,"[0.4774235897930339, 1.0784910769434646]",,2018_Jun_03_1253,60.0433050852,sequenceLearningTask,001,109,
min1.png,min2.png,min3.png,min4.png,allBlank.png,,,,['num_4'],,,,,,0,9,9,9,,,,,,,,,['num_4'],10,0.059761640965,1,['num_4'],0,[2.167934769182466],,2018_Jun_03_1253,60.0433050852,sequenceLearningTask,001,109,
min1.png,min2.png,min3.png,min4.png,allBlank.png,,,,['num_1'],,,,,,0,9,9,9,,,,,,,,,['num_1'],10,0.0577813333366,0,"['num_4', 'num_1']",0,"[2.1709731281735003, 2.837683692225255]",,2018_Jun_03_1253,60.0433050852,sequenceLearningTask,001,109,
min1.png,min2.png,min3.png,min4.png,allBlank.png,,,,['num_0'],,,,,,0,9,9,9,,,,,,,,,['num_0'],10,0.0535913846688,1,['num_0'],0,[0.5070330256130546],,2018_Jun_03_1253,60.0433050852,sequenceLearningTask,001,109,
min1.png,min2.png,min3.png,min4.png,allBlank.png,,,,,,,,,,0,9,9,9,,,,,0,-1,-1,0,,,,,,,,,2018_Jun_03_1253,60.0433050852,sequenceLearningTask,001,109,
