pawPatrol1,pawPatrol2,pawPatrol3,pawPatrol4,blank,randomPaw,correctKeyPress,allowableKey,correctKey,correctKeyPressNum,trials.thisRepN,trials.thisTrialN,trials.thisN,trials.thisIndex,trials_3.thisRepN,trials_3.thisTrialN,trials_3.thisN,trials_3.thisIndex,trials_2.thisRepN,trials_2.thisTrialN,trials_2.thisN,trials_2.thisIndex,trials_questions.thisRepN,trials_questions.thisTrialN,trials_questions.thisN,trials_questions.thisIndex,correctKey,repetitionNumber,stimulusPresent.t,trialCorrect,key_resp_9.keys,key_resp_9.corr,key_resp_9.rt,keyRespCorrect,date,frameRate,expName,session,participant,
min1.png,min2.png,min3.png,min4.png,allBlank.png,,,,['num_7'],,,,,,0,0,0,0,,,,,,,,,['num_7'],1,0.0773250332568,1,['num_7'],0,[0.573454063385725],,2018_May_19_1615,59.9018716747,sequenceLearningTask,001,102,
min1.png,min2.png,min3.png,min4.png,allBlank.png,,,,['num_1'],,,,,,0,0,0,0,,,,,,,,,['num_1'],1,0.0585299793165,1,['num_1'],0,[1.3998390976339579],,2018_May_19_1615,59.9018716747,sequenceLearningTask,001,102,
min1.png,min2.png,min3.png,min4.png,allBlank.png,,,,['num_4'],,,,,,0,0,0,0,,,,,,,,,['num_4'],1,0.0508889630437,1,['num_4'],0,[0.8770602538716048],,2018_May_19_1615,59.9018716747,sequenceLearningTask,001,102,
min1.png,min2.png,min3.png,min4.png,allBlank.png,,,,['num_0'],,,,,,0,0,0,0,,,,,,,,,['num_0'],1,0.0521037308499,1,['num_0'],0,[0.5095070654060692],,2018_May_19_1615,59.9018716747,sequenceLearningTask,001,102,
min1.png,min2.png,min3.png,min4.png,allBlank.png,,,,['num_0'],,,,,,0,0,0,0,,,,,,,,,['num_0'],1,0.0579654669855,1,['num_0'],0,[0.7522386638447642],,2018_May_19_1615,59.9018716747,sequenceLearningTask,001,102,
min1.png,min2.png,min3.png,min4.png,allBlank.png,,,,['num_4'],,,,,,0,0,0,0,,,,,,,,,['num_4'],1,0.0584893638734,1,['num_4'],0,[0.7364905807189643],,2018_May_19_1615,59.9018716747,sequenceLearningTask,001,102,
min1.png,min2.png,min3.png,min4.png,allBlank.png,,,,['num_1'],,,,,,0,0,0,0,,,,,,,,,['num_1'],1,0.0552253678907,1,['num_1'],0,[0.8898348021320999],,2018_May_19_1615,59.9018716747,sequenceLearningTask,001,102,
min1.png,min2.png,min3.png,min4.png,allBlank.png,,,,['num_0'],,,,,,0,0,0,0,,,,,,,,,['num_0'],1,0.0521447563078,1,['num_0'],0,[0.6419200303498656],,2018_May_19_1615,59.9018716747,sequenceLearningTask,001,102,
min1.png,min2.png,min3.png,min4.png,allBlank.png,,,,['num_7'],,,,,,0,1,1,1,,,,,,,,,['num_7'],2,0.0546169583686,1,['num_7'],0,[0.6540451436303556],,2018_May_19_1615,59.9018716747,sequenceLearningTask,001,102,
min1.png,min2.png,min3.png,min4.png,allBlank.png,,,,['num_1'],,,,,,0,1,1,1,,,,,,,,,['num_1'],2,0.0567798276898,1,['num_1'],0,[0.8206270926166326],,2018_May_19_1615,59.9018716747,sequenceLearningTask,001,102,
min1.png,min2.png,min3.png,min4.png,allBlank.png,,,,['num_4'],,,,,,0,1,1,1,,,,,,,,,['num_4'],2,0.0561615717597,1,['num_4'],0,[1.2200760368723422],,2018_May_19_1615,59.9018716747,sequenceLearningTask,001,102,
min1.png,min2.png,min3.png,min4.png,allBlank.png,,,,['num_0'],,,,,,0,1,1,1,,,,,,,,,['num_0'],2,0.0492114266381,1,['num_0'],0,[0.46245973859913647],,2018_May_19_1615,59.9018716747,sequenceLearningTask,001,102,
min1.png,min2.png,min3.png,min4.png,allBlank.png,,,,['num_0'],,,,,,0,1,1,1,,,,,,,,,['num_0'],2,0.0508516298141,1,['num_0'],0,[0.7439806228503585],,2018_May_19_1615,59.9018716747,sequenceLearningTask,001,102,
min1.png,min2.png,min3.png,min4.png,allBlank.png,,,,['num_4'],,,,,,0,1,1,1,,,,,,,,,['num_4'],2,0.0599125416484,0,"['num_1', 'num_4']",0,"[0.818819094914943, 1.9674043478444219]",,2018_May_19_1615,59.9018716747,sequenceLearningTask,001,102,
min1.png,min2.png,min3.png,min4.png,allBlank.png,,,,['num_1'],,,,,,0,1,1,1,,,,,,,,,['num_1'],2,0.0557357263751,1,['num_1'],0,[0.9221916855312884],,2018_May_19_1615,59.9018716747,sequenceLearningTask,001,102,
min1.png,min2.png,min3.png,min4.png,allBlank.png,,,,['num_0'],,,,,,0,1,1,1,,,,,,,,,['num_0'],2,0.0496032210067,1,['num_0'],0,[0.6109075557906181],,2018_May_19_1615,59.9018716747,sequenceLearningTask,001,102,
min1.png,min2.png,min3.png,min4.png,allBlank.png,,,,['num_7'],,,,,,0,2,2,2,,,,,,,,,['num_7'],3,0.050790091278,1,['num_7'],0,[0.7102378951385617],,2018_May_19_1615,59.9018716747,sequenceLearningTask,001,102,
min1.png,min2.png,min3.png,min4.png,allBlank.png,,,,['num_1'],,,,,,0,2,2,2,,,,,,,,,['num_1'],3,0.0599301827606,1,['num_1'],0,[0.6996024209074676],,2018_May_19_1615,59.9018716747,sequenceLearningTask,001,102,
min1.png,min2.png,min3.png,min4.png,allBlank.png,,,,['num_4'],,,,,,0,2,2,2,,,,,,,,,['num_4'],3,0.056013879599,1,['num_4'],0,[1.1558906801510602],,2018_May_19_1615,59.9018716747,sequenceLearningTask,001,102,
min1.png,min2.png,min3.png,min4.png,allBlank.png,,,,['num_0'],,,,,,0,2,2,2,,,,,,,,,['num_0'],3,0.0550050605088,1,['num_0'],0,[0.8399312738329172],,2018_May_19_1615,59.9018716747,sequenceLearningTask,001,102,
min1.png,min2.png,min3.png,min4.png,allBlank.png,,,,['num_0'],,,,,,0,2,2,2,,,,,,,,,['num_0'],3,0.0545611635316,1,['num_0'],0,[1.071850988548249],,2018_May_19_1615,59.9018716747,sequenceLearningTask,001,102,
min1.png,min2.png,min3.png,min4.png,allBlank.png,,,,['num_4'],,,,,,0,2,2,2,,,,,,,,,['num_4'],3,0.0543166510761,1,['num_4'],0,[1.0065550687722862],,2018_May_19_1615,59.9018716747,sequenceLearningTask,001,102,
min1.png,min2.png,min3.png,min4.png,allBlank.png,,,,['num_1'],,,,,,0,2,2,2,,,,,,,,,['num_1'],3,0.0514990135562,1,['num_1'],0,[0.8769306130707264],,2018_May_19_1615,59.9018716747,sequenceLearningTask,001,102,
min1.png,min2.png,min3.png,min4.png,allBlank.png,,,,['num_0'],,,,,,0,2,2,2,,,,,,,,,['num_0'],3,0.0557377773803,1,['num_0'],0,[0.8719989266246557],,2018_May_19_1615,59.9018716747,sequenceLearningTask,001,102,
min1.png,min2.png,min3.png,min4.png,allBlank.png,,,,['num_7'],,,,,,0,3,3,3,,,,,,,,,['num_7'],4,0.0567055712454,1,['num_7'],0,[0.8693831351120025],,2018_May_19_1615,59.9018716747,sequenceLearningTask,001,102,
min1.png,min2.png,min3.png,min4.png,allBlank.png,,,,['num_1'],,,,,,0,3,3,3,,,,,,,,,['num_1'],4,0.0605098742526,1,['num_1'],0,[1.3327786673326045],,2018_May_19_1615,59.9018716747,sequenceLearningTask,001,102,
min1.png,min2.png,min3.png,min4.png,allBlank.png,,,,['num_4'],,,,,,0,3,3,3,,,,,,,,,['num_4'],4,0.0550629065838,1,['num_4'],0,[0.9892012439668179],,2018_May_19_1615,59.9018716747,sequenceLearningTask,001,102,
min1.png,min2.png,min3.png,min4.png,allBlank.png,,,,['num_0'],,,,,,0,3,3,3,,,,,,,,,['num_0'],4,0.0526116273832,1,['num_0'],0,[0.5588177738245577],,2018_May_19_1615,59.9018716747,sequenceLearningTask,001,102,
min1.png,min2.png,min3.png,min4.png,allBlank.png,,,,['num_0'],,,,,,0,3,3,3,,,,,,,,,['num_0'],4,0.0569029042963,1,['num_0'],0,[0.6043475638143718],,2018_May_19_1615,59.9018716747,sequenceLearningTask,001,102,
min1.png,min2.png,min3.png,min4.png,allBlank.png,,,,['num_4'],,,,,,0,3,3,3,,,,,,,,,['num_4'],4,0.0606895661913,0,"['num_1', 'num_1', 'num_1', 'num_1', 'num_1', 'num_4']",0,"[0.9989005140960217, 2.433478851104155, 3.3999510975554585, 4.250958870630711, 4.800964757800102, 5.8500145436264575]",,2018_May_19_1615,59.9018716747,sequenceLearningTask,001,102,
min1.png,min2.png,min3.png,min4.png,allBlank.png,,,,['num_1'],,,,,,0,3,3,3,,,,,,,,,['num_1'],4,0.0591613631696,1,['num_1'],0,[0.701698828721419],,2018_May_19_1615,59.9018716747,sequenceLearningTask,001,102,
min1.png,min2.png,min3.png,min4.png,allBlank.png,,,,['num_0'],,,,,,0,3,3,3,,,,,,,,,['num_0'],4,0.0548060864676,1,['num_0'],0,[0.841484502889216],,2018_May_19_1615,59.9018716747,sequenceLearningTask,001,102,
min1.png,min2.png,min3.png,min4.png,allBlank.png,,,,['num_7'],,,,,,0,4,4,4,,,,,,,,,['num_7'],5,0.0504216814879,0,"['num_4', 'num_7']",0,"[0.9076234984677285, 1.674669528612867]",,2018_May_19_1615,59.9018716747,sequenceLearningTask,001,102,
min1.png,min2.png,min3.png,min4.png,allBlank.png,,,,['num_1'],,,,,,0,4,4,4,,,,,,,,,['num_1'],5,0.0577681339346,1,['num_1'],0,[2.819616222055629],,2018_May_19_1615,59.9018716747,sequenceLearningTask,001,102,
min1.png,min2.png,min3.png,min4.png,allBlank.png,,,,['num_4'],,,,,,0,4,4,4,,,,,,,,,['num_4'],5,0.0583018767647,1,['num_4'],0,[1.1694077914580703],,2018_May_19_1615,59.9018716747,sequenceLearningTask,001,102,
min1.png,min2.png,min3.png,min4.png,allBlank.png,,,,['num_0'],,,,,,0,4,4,4,,,,,,,,,['num_0'],5,0.0518899874296,1,['num_0'],0,[0.6089641735889018],,2018_May_19_1615,59.9018716747,sequenceLearningTask,001,102,
min1.png,min2.png,min3.png,min4.png,allBlank.png,,,,['num_0'],,,,,,0,4,4,4,,,,,,,,,['num_0'],5,0.051736141555,1,['num_0'],0,[0.9765493620652705],,2018_May_19_1615,59.9018716747,sequenceLearningTask,001,102,
min1.png,min2.png,min3.png,min4.png,allBlank.png,,,,['num_4'],,,,,,0,4,4,4,,,,,,,,,['num_4'],5,0.0507408606354,0,"['num_7', 'num_7', 'num_7', 'num_7', 'num_7', 'num_7', 'num_7', 'num_7', 'num_7', 'num_4']",0,"[1.809738490730524, 3.176888807909563, 5.809632644522935, 6.559411003952846, 7.010287987533957, 7.409375496208668, 7.809714695904404, 8.092471681069583, 8.24278452177532, 9.227329361252487]",,2018_May_19_1615,59.9018716747,sequenceLearningTask,001,102,
min1.png,min2.png,min3.png,min4.png,allBlank.png,,,,['num_1'],,,,,,0,4,4,4,,,,,,,,,['num_1'],5,0.0610378736164,1,['num_1'],0,[2.7486858477350324],,2018_May_19_1615,59.9018716747,sequenceLearningTask,001,102,
min1.png,min2.png,min3.png,min4.png,allBlank.png,,,,['num_0'],,,,,,0,4,4,4,,,,,,,,,['num_0'],5,0.0551158296876,1,['num_0'],0,[0.7228434181306511],,2018_May_19_1615,59.9018716747,sequenceLearningTask,001,102,
min1.png,min2.png,min3.png,min4.png,allBlank.png,,,,['num_7'],,,,,,0,5,5,5,,,,,,,,,['num_7'],6,0.0255269429181,1,['num_7'],0,[1.170084303477779],,2018_May_19_1615,59.9018716747,sequenceLearningTask,001,102,
min1.png,min2.png,min3.png,min4.png,allBlank.png,,,,['num_1'],,,,,,0,5,5,5,,,,,,,,,['num_1'],6,0.0592573629692,1,['num_1'],0,[2.185462335823104],,2018_May_19_1615,59.9018716747,sequenceLearningTask,001,102,
min1.png,min2.png,min3.png,min4.png,allBlank.png,,,,['num_4'],,,,,,0,5,5,5,,,,,,,,,['num_4'],6,0.0538186002523,0,"['num_1', 'num_4']",0,"[2.22313900757581, 3.023160176584497]",,2018_May_19_1615,59.9018716747,sequenceLearningTask,001,102,
min1.png,min2.png,min3.png,min4.png,allBlank.png,,,,['num_0'],,,,,,0,5,5,5,,,,,,,,,['num_0'],6,0.0582444411702,1,['num_0'],0,[1.3370198928751051],,2018_May_19_1615,59.9018716747,sequenceLearningTask,001,102,
min1.png,min2.png,min3.png,min4.png,allBlank.png,,,,['num_0'],,,,,,0,5,5,5,,,,,,,,,['num_0'],6,0.0488007604145,1,['num_0'],0,[1.0281517601106316],,2018_May_19_1615,59.9018716747,sequenceLearningTask,001,102,
min1.png,min2.png,min3.png,min4.png,allBlank.png,,,,['num_4'],,,,,,0,5,5,5,,,,,,,,,['num_4'],6,0.0576758263633,1,['num_4'],0,[2.153592426329851],,2018_May_19_1615,59.9018716747,sequenceLearningTask,001,102,
min1.png,min2.png,min3.png,min4.png,allBlank.png,,,,['num_1'],,,,,,0,5,5,5,,,,,,,,,['num_1'],6,0.0522883457597,1,['num_1'],0,[2.1919968917500228],,2018_May_19_1615,59.9018716747,sequenceLearningTask,001,102,
min1.png,min2.png,min3.png,min4.png,allBlank.png,,,,['num_0'],,,,,,0,5,5,5,,,,,,,,,['num_0'],6,0.0562210590579,1,['num_0'],0,[1.1047797685023397],,2018_May_19_1615,59.9018716747,sequenceLearningTask,001,102,
min1.png,min2.png,min3.png,min4.png,allBlank.png,,,,['num_7'],,,,,,0,6,6,6,,,,,,,,,['num_7'],7,0.0604356180411,1,['num_7'],0,[1.1329918361734599],,2018_May_19_1615,59.9018716747,sequenceLearningTask,001,102,
min1.png,min2.png,min3.png,min4.png,allBlank.png,,,,['num_1'],,,,,,0,6,6,6,,,,,,,,,['num_1'],7,0.0540799335577,1,['num_1'],0,[1.3045571635011584],,2018_May_19_1615,59.9018716747,sequenceLearningTask,001,102,
min1.png,min2.png,min3.png,min4.png,allBlank.png,,,,['num_4'],,,,,,0,6,6,6,,,,,,,,,['num_4'],7,0.047962607583,1,['num_4'],0,[1.6801365986466408],,2018_May_19_1615,59.9018716747,sequenceLearningTask,001,102,
min1.png,min2.png,min3.png,min4.png,allBlank.png,,,,['num_0'],,,,,,0,6,6,6,,,,,,,,,['num_0'],7,0.0567822891753,1,['num_0'],0,[1.121867747278884],,2018_May_19_1615,59.9018716747,sequenceLearningTask,001,102,
min1.png,min2.png,min3.png,min4.png,allBlank.png,,,,['num_0'],,,,,,0,6,6,6,,,,,,,,,['num_0'],7,0.0555310086347,1,['num_0'],0,[1.1387620854657143],,2018_May_19_1615,59.9018716747,sequenceLearningTask,001,102,
min1.png,min2.png,min3.png,min4.png,allBlank.png,,,,['num_4'],,,,,,0,6,6,6,,,,,,,,,['num_4'],7,0.0590985938907,1,['num_4'],0,[1.8184629927854985],,2018_May_19_1615,59.9018716747,sequenceLearningTask,001,102,
min1.png,min2.png,min3.png,min4.png,allBlank.png,,,,['num_1'],,,,,,0,6,6,6,,,,,,,,,['num_1'],7,0.053927318193,1,['num_1'],0,[2.373202822636813],,2018_May_19_1615,59.9018716747,sequenceLearningTask,001,102,
min1.png,min2.png,min3.png,min4.png,allBlank.png,,,,['num_0'],,,,,,0,6,6,6,,,,,,,,,['num_0'],7,0.0573152115103,1,['num_0'],0,[0.9210565073881298],,2018_May_19_1615,59.9018716747,sequenceLearningTask,001,102,
min1.png,min2.png,min3.png,min4.png,allBlank.png,,,,['num_7'],,,,,,0,7,7,7,,,,,,,,,['num_7'],8,0.0624175642151,1,['num_7'],0,[0.9969846189487725],,2018_May_19_1615,59.9018716747,sequenceLearningTask,001,102,
min1.png,min2.png,min3.png,min4.png,allBlank.png,,,,['num_1'],,,,,,0,7,7,7,,,,,,,,,['num_1'],8,0.0503687583841,1,['num_1'],0,[1.3113042321056128],,2018_May_19_1615,59.9018716747,sequenceLearningTask,001,102,
min1.png,min2.png,min3.png,min4.png,allBlank.png,,,,['num_4'],,,,,,0,7,7,7,,,,,,,,,['num_4'],8,0.0535531649366,1,['num_4'],0,[0.9933903671335429],,2018_May_19_1615,59.9018716747,sequenceLearningTask,001,102,
min1.png,min2.png,min3.png,min4.png,allBlank.png,,,,['num_0'],,,,,,0,7,7,7,,,,,,,,,['num_0'],8,0.0575757238548,1,['num_0'],0,[0.5365773907396942],,2018_May_19_1615,59.9018716747,sequenceLearningTask,001,102,
min1.png,min2.png,min3.png,min4.png,allBlank.png,,,,['num_0'],,,,,,0,7,7,7,,,,,,,,,['num_0'],8,0.0617369497195,1,['num_0'],0,[0.648733560461551],,2018_May_19_1615,59.9018716747,sequenceLearningTask,001,102,
min1.png,min2.png,min3.png,min4.png,allBlank.png,,,,['num_4'],,,,,,0,7,7,7,,,,,,,,,['num_4'],8,0.0580397234298,0,"['num_1', 'num_1', 'num_4']",0,"[0.8520235666073859, 1.6189395459368825, 2.8361462529283017]",,2018_May_19_1615,59.9018716747,sequenceLearningTask,001,102,
min1.png,min2.png,min3.png,min4.png,allBlank.png,,,,['num_1'],,,,,,0,7,7,7,,,,,,,,,['num_1'],8,0.0496245541144,1,['num_1'],0,[1.3132545889820904],,2018_May_19_1615,59.9018716747,sequenceLearningTask,001,102,
min1.png,min2.png,min3.png,min4.png,allBlank.png,,,,['num_0'],,,,,,0,7,7,7,,,,,,,,,['num_0'],8,0.0515855774283,1,['num_0'],0,[1.176425218814984],,2018_May_19_1615,59.9018716747,sequenceLearningTask,001,102,
min1.png,min2.png,min3.png,min4.png,allBlank.png,,,,['num_7'],,,,,,0,8,8,8,,,,,,,,,['num_7'],9,0.0500545024406,1,['num_7'],0,[2.6597747777123004],,2018_May_19_1615,59.9018716747,sequenceLearningTask,001,102,
min1.png,min2.png,min3.png,min4.png,allBlank.png,,,,['num_1'],,,,,,0,8,8,8,,,,,,,,,['num_1'],9,0.0502698868513,1,['num_1'],0,[1.477552643045783],,2018_May_19_1615,59.9018716747,sequenceLearningTask,001,102,
min1.png,min2.png,min3.png,min4.png,allBlank.png,,,,['num_4'],,,,,,0,8,8,8,,,,,,,,,['num_4'],9,0.0519585001748,1,['num_4'],0,[0.9593042554333806],,2018_May_19_1615,59.9018716747,sequenceLearningTask,001,102,
min1.png,min2.png,min3.png,min4.png,allBlank.png,,,,['num_0'],,,,,,0,8,8,8,,,,,,,,,['num_0'],9,0.055097368313,1,['num_0'],0,[0.5423271274194121],,2018_May_19_1615,59.9018716747,sequenceLearningTask,001,102,
min1.png,min2.png,min3.png,min4.png,allBlank.png,,,,['num_0'],,,,,,0,8,8,8,,,,,,,,,['num_0'],9,0.0509492706042,1,['num_0'],0,[0.8266213415190578],,2018_May_19_1615,59.9018716747,sequenceLearningTask,001,102,
min1.png,min2.png,min3.png,min4.png,allBlank.png,,,,['num_4'],,,,,,0,8,8,8,,,,,,,,,['num_4'],9,0.058182082139,1,['num_4'],0,[1.6519384796265513],,2018_May_19_1615,59.9018716747,sequenceLearningTask,001,102,
min1.png,min2.png,min3.png,min4.png,allBlank.png,,,,['num_1'],,,,,,0,8,8,8,,,,,,,,,['num_1'],9,0.0723293470219,1,['num_1'],0,[1.0039684053044766],,2018_May_19_1615,59.9018716747,sequenceLearningTask,001,102,
min1.png,min2.png,min3.png,min4.png,allBlank.png,,,,['num_0'],,,,,,0,8,8,8,,,,,,,,,['num_0'],9,0.0512434241828,1,['num_0'],0,[0.7596667574252933],,2018_May_19_1615,59.9018716747,sequenceLearningTask,001,102,
min1.png,min2.png,min3.png,min4.png,allBlank.png,,,,['num_7'],,,,,,0,9,9,9,,,,,,,,,['num_7'],10,0.0501779895276,1,['num_7'],0,[1.026686736382544],,2018_May_19_1615,59.9018716747,sequenceLearningTask,001,102,
min1.png,min2.png,min3.png,min4.png,allBlank.png,,,,['num_1'],,,,,,0,9,9,9,,,,,,,,,['num_1'],10,0.0552762395237,1,['num_1'],0,[1.839845120208338],,2018_May_19_1615,59.9018716747,sequenceLearningTask,001,102,
min1.png,min2.png,min3.png,min4.png,allBlank.png,,,,['num_4'],,,,,,0,9,9,9,,,,,,,,,['num_4'],10,0.0558698798995,1,['num_4'],0,[1.0880318915005773],,2018_May_19_1615,59.9018716747,sequenceLearningTask,001,102,
min1.png,min2.png,min3.png,min4.png,allBlank.png,,,,['num_0'],,,,,,0,9,9,9,,,,,,,,,['num_0'],10,0.0529344989918,1,['num_0'],0,[0.5580830054823309],,2018_May_19_1615,59.9018716747,sequenceLearningTask,001,102,
min1.png,min2.png,min3.png,min4.png,allBlank.png,,,,['num_0'],,,,,,0,9,9,9,,,,,,,,,['num_0'],10,0.0520015768707,1,['num_0'],0,[1.1754791685380042],,2018_May_19_1615,59.9018716747,sequenceLearningTask,001,102,
min1.png,min2.png,min3.png,min4.png,allBlank.png,,,,['num_4'],,,,,,0,9,9,9,,,,,,,,,['num_4'],10,0.0554058805574,1,['num_4'],0,[2.4057147826533765],,2018_May_19_1615,59.9018716747,sequenceLearningTask,001,102,
min1.png,min2.png,min3.png,min4.png,allBlank.png,,,,['num_1'],,,,,,0,9,9,9,,,,,,,,,['num_1'],10,0.057197057642,1,['num_1'],0,[1.4877331433817744],,2018_May_19_1615,59.9018716747,sequenceLearningTask,001,102,
min1.png,min2.png,min3.png,min4.png,allBlank.png,,,,['num_0'],,,,,,0,9,9,9,,,,,,,,,['num_0'],10,0.0532696780283,1,['num_0'],0,[0.8407284012064338],,2018_May_19_1615,59.9018716747,sequenceLearningTask,001,102,
min1.png,min2.png,min3.png,min4.png,allBlank.png,,,,['num_7'],,,,,,0,0,0,0,,,,,,,,,['num_7'],1,0.0524787046015,1,['num_7'],0,[1.1599440081045032],,2018_May_19_1615,59.9018716747,sequenceLearningTask,001,102,
min1.png,min2.png,min3.png,min4.png,allBlank.png,,,,['num_1'],,,,,,0,0,0,0,,,,,,,,,['num_1'],1,0.0586469022091,1,['num_1'],0,[1.502361638005823],,2018_May_19_1615,59.9018716747,sequenceLearningTask,001,102,
min1.png,min2.png,min3.png,min4.png,allBlank.png,,,,['num_4'],,,,,,0,0,0,0,,,,,,,,,['num_4'],1,0.0593775678426,1,['num_4'],0,[1.1516071979422122],,2018_May_19_1615,59.9018716747,sequenceLearningTask,001,102,
min1.png,min2.png,min3.png,min4.png,allBlank.png,,,,['num_0'],,,,,,0,0,0,0,,,,,,,,,['num_0'],1,0.0570813654922,1,['num_0'],0,[1.0033493293449283],,2018_May_19_1615,59.9018716747,sequenceLearningTask,001,102,
min1.png,min2.png,min3.png,min4.png,allBlank.png,,,,['num_0'],,,,,,0,0,0,0,,,,,,,,,['num_0'],1,0.0558903927449,1,['num_0'],0,[0.8886335729621351],,2018_May_19_1615,59.9018716747,sequenceLearningTask,001,102,
min1.png,min2.png,min3.png,min4.png,allBlank.png,,,,['num_4'],,,,,,0,0,0,0,,,,,,,,,['num_4'],1,0.0496339902747,1,['num_4'],0,[1.2627771126572043],,2018_May_19_1615,59.9018716747,sequenceLearningTask,001,102,
min1.png,min2.png,min3.png,min4.png,allBlank.png,,,,['num_1'],,,,,,0,0,0,0,,,,,,,,,['num_1'],1,0.0549948040862,1,['num_1'],0,[1.4561036436352879],,2018_May_19_1615,59.9018716747,sequenceLearningTask,001,102,
min1.png,min2.png,min3.png,min4.png,allBlank.png,,,,['num_0'],,,,,,0,0,0,0,,,,,,,,,['num_0'],1,0.0541012668982,1,['num_0'],0,[0.9399373047053814],,2018_May_19_1615,59.9018716747,sequenceLearningTask,001,102,
min1.png,min2.png,min3.png,min4.png,allBlank.png,,,,['num_7'],,,,,,0,1,1,1,,,,,,,,,['num_7'],2,0.0533398317639,1,['num_7'],0,[0.8725798493251204],,2018_May_19_1615,59.9018716747,sequenceLearningTask,001,102,
min1.png,min2.png,min3.png,min4.png,allBlank.png,,,,['num_1'],,,,,,0,1,1,1,,,,,,,,,['num_1'],2,0.0553976753727,1,['num_1'],0,[1.0395162589848042],,2018_May_19_1615,59.9018716747,sequenceLearningTask,001,102,
min1.png,min2.png,min3.png,min4.png,allBlank.png,,,,['num_4'],,,,,,0,1,1,1,,,,,,,,,['num_4'],2,0.0529267042875,1,['num_4'],0,[0.9074684213846922],,2018_May_19_1615,59.9018716747,sequenceLearningTask,001,102,
min1.png,min2.png,min3.png,min4.png,allBlank.png,,,,['num_0'],,,,,,0,1,1,1,,,,,,,,,['num_0'],2,0.0534682420548,1,['num_0'],0,[0.6910325854551047],,2018_May_19_1615,59.9018716747,sequenceLearningTask,001,102,
min1.png,min2.png,min3.png,min4.png,allBlank.png,,,,['num_0'],,,,,,0,1,1,1,,,,,,,,,['num_0'],2,0.0533710112795,1,['num_0'],0,[0.7574300421401858],,2018_May_19_1615,59.9018716747,sequenceLearningTask,001,102,
min1.png,min2.png,min3.png,min4.png,allBlank.png,,,,['num_4'],,,,,,0,1,1,1,,,,,,,,,['num_4'],2,0.058096338762,1,['num_4'],0,[1.869026622734964],,2018_May_19_1615,59.9018716747,sequenceLearningTask,001,102,
min1.png,min2.png,min3.png,min4.png,allBlank.png,,,,['num_1'],,,,,,0,1,1,1,,,,,,,,,['num_1'],2,0.048083222704,1,['num_1'],0,[1.080422054976225],,2018_May_19_1615,59.9018716747,sequenceLearningTask,001,102,
min1.png,min2.png,min3.png,min4.png,allBlank.png,,,,['num_0'],,,,,,0,1,1,1,,,,,,,,,['num_0'],2,0.0531080372166,1,['num_0'],0,[0.6912245850544423],,2018_May_19_1615,59.9018716747,sequenceLearningTask,001,102,
min1.png,min2.png,min3.png,min4.png,allBlank.png,,,,['num_7'],,,,,,0,2,2,2,,,,,,,,,['num_7'],3,0.0483002483379,1,['num_7'],0,[0.928745934041217],,2018_May_19_1615,59.9018716747,sequenceLearningTask,001,102,
min1.png,min2.png,min3.png,min4.png,allBlank.png,,,,['num_1'],,,,,,0,2,2,2,,,,,,,,,['num_1'],3,0.0522268076893,1,['num_1'],0,[1.8593031475320458],,2018_May_19_1615,59.9018716747,sequenceLearningTask,001,102,
min1.png,min2.png,min3.png,min4.png,allBlank.png,,,,['num_4'],,,,,,0,2,2,2,,,,,,,,,['num_4'],3,0.0567954173312,1,['num_4'],0,[1.721433778759092],,2018_May_19_1615,59.9018716747,sequenceLearningTask,001,102,
min1.png,min2.png,min3.png,min4.png,allBlank.png,,,,['num_0'],,,,,,0,2,2,2,,,,,,,,,['num_0'],3,0.0545960355084,1,['num_0'],0,[1.3062781870830804],,2018_May_19_1615,59.9018716747,sequenceLearningTask,001,102,
min1.png,min2.png,min3.png,min4.png,allBlank.png,,,,['num_0'],,,,,,0,2,2,2,,,,,,,,,['num_0'],3,0.0520557309501,1,['num_0'],0,[0.9588903069961816],,2018_May_19_1615,59.9018716747,sequenceLearningTask,001,102,
min1.png,min2.png,min3.png,min4.png,allBlank.png,,,,['num_4'],,,,,,0,2,2,2,,,,,,,,,['num_4'],3,0.0572011603508,1,['num_4'],0,[2.054806086467579],,2018_May_19_1615,59.9018716747,sequenceLearningTask,001,102,
min1.png,min2.png,min3.png,min4.png,allBlank.png,,,,['num_1'],,,,,,0,2,2,2,,,,,,,,,['num_1'],3,0.0570358273108,1,['num_1'],0,[1.9710909072309732],,2018_May_19_1615,59.9018716747,sequenceLearningTask,001,102,
min1.png,min2.png,min3.png,min4.png,allBlank.png,,,,['num_0'],,,,,,0,2,2,2,,,,,,,,,['num_0'],3,0.0501505024731,1,['num_0'],0,[0.9275053199380636],,2018_May_19_1615,59.9018716747,sequenceLearningTask,001,102,
min1.png,min2.png,min3.png,min4.png,allBlank.png,,,,['num_7'],,,,,,0,3,3,3,,,,,,,,,['num_7'],4,0.0558358288836,1,['num_7'],0,[1.7202124467585236],,2018_May_19_1615,59.9018716747,sequenceLearningTask,001,102,
min1.png,min2.png,min3.png,min4.png,allBlank.png,,,,['num_1'],,,,,,0,3,3,3,,,,,,,,,['num_1'],4,0.0548356249928,0,"['num_4', 'num_4', 'num_1']",0,"[1.0232492021750659, 2.3227179618552327, 3.256317633204162]",,2018_May_19_1615,59.9018716747,sequenceLearningTask,001,102,
min1.png,min2.png,min3.png,min4.png,allBlank.png,,,,['num_4'],,,,,,0,3,3,3,,,,,,,,,['num_4'],4,0.0532983958255,0,"['num_0', 'num_0', 'num_1', 'num_4']",0,"[1.9070593966171145, 1.9256603992544115, 3.774535252014175, 4.774623456876725]",,2018_May_19_1615,59.9018716747,sequenceLearningTask,001,102,
min1.png,min2.png,min3.png,min4.png,allBlank.png,,,,['num_0'],,,,,,0,3,3,3,,,,,,,,,['num_0'],4,0.0544220870361,1,['num_0'],0,[1.3730838485062122],,2018_May_19_1615,59.9018716747,sequenceLearningTask,001,102,
min1.png,min2.png,min3.png,min4.png,allBlank.png,,,,['num_0'],,,,,,0,3,3,3,,,,,,,,,['num_0'],4,0.0507351169363,1,['num_0'],0,[0.9935831872280687],,2018_May_19_1615,59.9018716747,sequenceLearningTask,001,102,
min1.png,min2.png,min3.png,min4.png,allBlank.png,,,,['num_4'],,,,,,0,3,3,3,,,,,,,,,['num_4'],4,0.0557230084669,1,['num_4'],0,[1.9727389053441584],,2018_May_19_1615,59.9018716747,sequenceLearningTask,001,102,
min1.png,min2.png,min3.png,min4.png,allBlank.png,,,,['num_1'],,,,,,0,3,3,3,,,,,,,,,['num_1'],4,0.0543232152704,1,['num_1'],0,[1.1729597870726138],,2018_May_19_1615,59.9018716747,sequenceLearningTask,001,102,
min1.png,min2.png,min3.png,min4.png,allBlank.png,,,,['num_0'],,,,,,0,3,3,3,,,,,,,,,['num_0'],4,0.0538875232451,1,['num_0'],0,[0.8069069043267518],,2018_May_19_1615,59.9018716747,sequenceLearningTask,001,102,
min1.png,min2.png,min3.png,min4.png,allBlank.png,,,,['num_7'],,,,,,0,4,4,4,,,,,,,,,['num_7'],5,0.0545759329107,1,['num_7'],0,[1.1891156646888703],,2018_May_19_1615,59.9018716747,sequenceLearningTask,001,102,
min1.png,min2.png,min3.png,min4.png,allBlank.png,,,,['num_1'],,,,,,0,4,4,4,,,,,,,,,['num_1'],5,0.0535498829558,0,"['num_4', 'num_4', 'num_1']",0,"[1.1079059184994549, 2.124371128855273, 2.975262799533084]",,2018_May_19_1615,59.9018716747,sequenceLearningTask,001,102,
min1.png,min2.png,min3.png,min4.png,allBlank.png,,,,['num_4'],,,,,,0,4,4,4,,,,,,,,,['num_4'],5,0.0555531624705,1,['num_4'],0,[1.322118167532608],,2018_May_19_1615,59.9018716747,sequenceLearningTask,001,102,
min1.png,min2.png,min3.png,min4.png,allBlank.png,,,,['num_0'],,,,,,0,4,4,4,,,,,,,,,['num_0'],5,0.0634731526952,1,['num_0'],0,[1.4445610938128084],,2018_May_19_1615,59.9018716747,sequenceLearningTask,001,102,
min1.png,min2.png,min3.png,min4.png,allBlank.png,,,,['num_0'],,,,,,0,4,4,4,,,,,,,,,['num_0'],5,0.0519474232569,1,['num_0'],0,[0.7757606862578541],,2018_May_19_1615,59.9018716747,sequenceLearningTask,001,102,
min1.png,min2.png,min3.png,min4.png,allBlank.png,,,,['num_4'],,,,,,0,4,4,4,,,,,,,,,['num_4'],5,0.0540659846738,1,['num_4'],0,[1.970311010722071],,2018_May_19_1615,59.9018716747,sequenceLearningTask,001,102,
min1.png,min2.png,min3.png,min4.png,allBlank.png,,,,['num_1'],,,,,,0,4,4,4,,,,,,,,,['num_1'],5,0.0217521782033,1,['num_1'],0,[2.3065973662305623],,2018_May_19_1615,59.9018716747,sequenceLearningTask,001,102,
min1.png,min2.png,min3.png,min4.png,allBlank.png,,,,['num_0'],,,,,,0,4,4,4,,,,,,,,,['num_0'],5,0.0523515252862,1,['num_0'],0,[1.4918562152888626],,2018_May_19_1615,59.9018716747,sequenceLearningTask,001,102,
min1.png,min2.png,min3.png,min4.png,allBlank.png,,,,['num_7'],,,,,,0,5,5,5,,,,,,,,,['num_7'],6,0.0550276245922,1,['num_7'],0,[1.9527672377880663],,2018_May_19_1615,59.9018716747,sequenceLearningTask,001,102,
min1.png,min2.png,min3.png,min4.png,allBlank.png,,,,['num_1'],,,,,,0,5,5,5,,,,,,,,,['num_1'],6,0.0369209803175,1,['num_1'],0,[1.756185736041516],,2018_May_19_1615,59.9018716747,sequenceLearningTask,001,102,
min1.png,min2.png,min3.png,min4.png,allBlank.png,,,,['num_4'],,,,,,0,5,5,5,,,,,,,,,['num_4'],6,0.027467043139,1,['num_4'],0,[3.919358868384734],,2018_May_19_1615,59.9018716747,sequenceLearningTask,001,102,
min1.png,min2.png,min3.png,min4.png,allBlank.png,,,,['num_0'],,,,,,0,5,5,5,,,,,,,,,['num_0'],6,0.0518789105117,1,['num_0'],0,[0.825638368492946],,2018_May_19_1615,59.9018716747,sequenceLearningTask,001,102,
min1.png,min2.png,min3.png,min4.png,allBlank.png,,,,['num_0'],,,,,,0,5,5,5,,,,,,,,,['num_0'],6,0.0490050679073,1,['num_0'],0,[2.3957000258378685],,2018_May_19_1615,59.9018716747,sequenceLearningTask,001,102,
min1.png,min2.png,min3.png,min4.png,allBlank.png,,,,['num_4'],,,,,,0,5,5,5,,,,,,,,,['num_4'],6,0.0578190058004,0,"['num_7', 'num_7', 'num_4']",0,"[2.019352181116119, 2.9376435638405383, 4.069025966338813]",,2018_May_19_1615,59.9018716747,sequenceLearningTask,001,102,
min1.png,min2.png,min3.png,min4.png,allBlank.png,,,,['num_1'],,,,,,0,5,5,5,,,,,,,,,['num_1'],6,0.0534805494826,1,['num_1'],0,[7.741270882543176],,2018_May_19_1615,59.9018716747,sequenceLearningTask,001,102,
min1.png,min2.png,min3.png,min4.png,allBlank.png,,,,['num_0'],,,,,,0,5,5,5,,,,,,,,,['num_0'],6,0.0569504939485,1,['num_0'],0,[0.9545206713955849],,2018_May_19_1615,59.9018716747,sequenceLearningTask,001,102,
min1.png,min2.png,min3.png,min4.png,allBlank.png,,,,['num_7'],,,,,,0,6,6,6,,,,,,,,,['num_7'],7,0.0493558365852,1,['num_7'],0,[2.0435503053013235],,2018_May_19_1615,59.9018716747,sequenceLearningTask,001,102,
min1.png,min2.png,min3.png,min4.png,allBlank.png,,,,['num_1'],,,,,,0,6,6,6,,,,,,,,,['num_1'],7,0.0551063937601,1,['num_1'],0,[1.4057188851293176],,2018_May_19_1615,59.9018716747,sequenceLearningTask,001,102,
min1.png,min2.png,min3.png,min4.png,allBlank.png,,,,['num_4'],,,,,,0,6,6,6,,,,,,,,,['num_4'],7,0.0595970549621,1,['num_4'],0,[3.1513237110339105],,2018_May_19_1615,59.9018716747,sequenceLearningTask,001,102,
min1.png,min2.png,min3.png,min4.png,allBlank.png,,,,['num_0'],,,,,,0,6,6,6,,,,,,,,,['num_0'],7,0.0610546940006,1,['num_0'],0,[1.1160613954998553],,2018_May_19_1615,59.9018716747,sequenceLearningTask,001,102,
min1.png,min2.png,min3.png,min4.png,allBlank.png,,,,['num_0'],,,,,,0,6,6,6,,,,,,,,,['num_0'],7,0.057560544461,1,['num_0'],0,[0.5875106614548713],,2018_May_19_1615,59.9018716747,sequenceLearningTask,001,102,
min1.png,min2.png,min3.png,min4.png,allBlank.png,,,,['num_4'],,,,,,0,6,6,6,,,,,,,,,['num_4'],7,0.056657161098,1,['num_4'],0,[2.7877077483572066],,2018_May_19_1615,59.9018716747,sequenceLearningTask,001,102,
min1.png,min2.png,min3.png,min4.png,allBlank.png,,,,['num_1'],,,,,,0,6,6,6,,,,,,,,,['num_1'],7,0.0575790060684,1,['num_1'],0,[1.3036849594209343],,2018_May_19_1615,59.9018716747,sequenceLearningTask,001,102,
min1.png,min2.png,min3.png,min4.png,allBlank.png,,,,['num_0'],,,,,,0,6,6,6,,,,,,,,,['num_0'],7,0.05888197897,1,['num_0'],0,[1.8349745622836053],,2018_May_19_1615,59.9018716747,sequenceLearningTask,001,102,
min1.png,min2.png,min3.png,min4.png,allBlank.png,,,,['num_7'],,,,,,0,7,7,7,,,,,,,,,['num_7'],8,0.0594210550189,1,['num_7'],0,[2.1312864024657756],,2018_May_19_1615,59.9018716747,sequenceLearningTask,001,102,
min1.png,min2.png,min3.png,min4.png,allBlank.png,,,,['num_1'],,,,,,0,7,7,7,,,,,,,,,['num_1'],8,0.0562670077197,1,['num_1'],0,[1.2550105578266084],,2018_May_19_1615,59.9018716747,sequenceLearningTask,001,102,
min1.png,min2.png,min3.png,min4.png,allBlank.png,,,,['num_4'],,,,,,0,7,7,7,,,,,,,,,['num_4'],8,0.0550095732324,0,"['num_7', 'num_4']",0,"[1.0883412247058004, 1.421356609556824]",,2018_May_19_1615,59.9018716747,sequenceLearningTask,001,102,
min1.png,min2.png,min3.png,min4.png,allBlank.png,,,,['num_0'],,,,,,0,7,7,7,,,,,,,,,['num_0'],8,0.0513902956154,1,['num_0'],0,[0.7427354962565005],,2018_May_19_1615,59.9018716747,sequenceLearningTask,001,102,
min1.png,min2.png,min3.png,min4.png,allBlank.png,,,,['num_0'],,,,,,0,7,7,7,,,,,,,,,['num_0'],8,0.0562784948852,1,['num_0'],0,[0.8392678902018815],,2018_May_19_1615,59.9018716747,sequenceLearningTask,001,102,
min1.png,min2.png,min3.png,min4.png,allBlank.png,,,,['num_4'],,,,,,0,7,7,7,,,,,,,,,['num_4'],8,0.0528713194653,1,['num_4'],0,[2.0081796820741147],,2018_May_19_1615,59.9018716747,sequenceLearningTask,001,102,
min1.png,min2.png,min3.png,min4.png,allBlank.png,,,,['num_1'],,,,,,0,7,7,7,,,,,,,,,['num_1'],8,0.0557451620698,1,['num_1'],0,[1.3556065366137773],,2018_May_19_1615,59.9018716747,sequenceLearningTask,001,102,
min1.png,min2.png,min3.png,min4.png,allBlank.png,,,,['num_0'],,,,,,0,7,7,7,,,,,,,,,['num_0'],8,0.0564930585679,1,['num_0'],0,[1.0548532658722252],,2018_May_19_1615,59.9018716747,sequenceLearningTask,001,102,
min1.png,min2.png,min3.png,min4.png,allBlank.png,,,,['num_7'],,,,,,0,8,8,8,,,,,,,,,['num_7'],9,0.0567978788167,1,['num_7'],0,[1.3364836883265525],,2018_May_19_1615,59.9018716747,sequenceLearningTask,001,102,
min1.png,min2.png,min3.png,min4.png,allBlank.png,,,,['num_1'],,,,,,0,8,8,8,,,,,,,,,['num_1'],9,0.0544512150809,1,['num_1'],0,[0.8071149040479213],,2018_May_19_1615,59.9018716747,sequenceLearningTask,001,102,
min1.png,min2.png,min3.png,min4.png,allBlank.png,,,,['num_4'],,,,,,0,8,8,8,,,,,,,,,['num_4'],9,0.0604676178191,0,"['num_7', 'num_4']",0,"[1.000016000121832, 2.3179298650939018]",,2018_May_19_1615,59.9018716747,sequenceLearningTask,001,102,
min1.png,min2.png,min3.png,min4.png,allBlank.png,,,,['num_0'],,,,,,0,8,8,8,,,,,,,,,['num_0'],9,0.0584914151113,0,"['num_4', 'num_1', 'num_0', 'num_0']",0,"[0.000291281845420599, 0.6201904159970582, 1.2195303963962942]",,2018_May_19_1615,59.9018716747,sequenceLearningTask,001,102,
min1.png,min2.png,min3.png,min4.png,allBlank.png,,,,['num_0'],,,,,,0,8,8,8,,,,,,,,,['num_0'],9,0.0537574721966,0,"['num_0', 'num_0']",0,"[0.021265615010634065, 1.3265440084505826]",,2018_May_19_1615,59.9018716747,sequenceLearningTask,001,102,
min1.png,min2.png,min3.png,min4.png,allBlank.png,,,,['num_4'],,,,,,0,8,8,8,,,,,,,,,['num_4'],9,0.0557578802109,1,['num_4'],0,[2.2902125660330057],,2018_May_19_1615,59.9018716747,sequenceLearningTask,001,102,
min1.png,min2.png,min3.png,min4.png,allBlank.png,,,,['num_1'],,,,,,0,8,8,8,,,,,,,,,['num_1'],9,0.0566657762975,1,['num_1'],0,[1.4540790310129523],,2018_May_19_1615,59.9018716747,sequenceLearningTask,001,102,
min1.png,min2.png,min3.png,min4.png,allBlank.png,,,,['num_0'],,,,,,0,8,8,8,,,,,,,,,['num_0'],9,0.0523363458924,1,['num_0'],0,[0.9102589823305607],,2018_May_19_1615,59.9018716747,sequenceLearningTask,001,102,
min1.png,min2.png,min3.png,min4.png,allBlank.png,,,,['num_7'],,,,,,0,9,9,9,,,,,,,,,['num_7'],10,0.0546198303346,1,['num_7'],0,[1.3720877470914274],,2018_May_19_1615,59.9018716747,sequenceLearningTask,001,102,
min1.png,min2.png,min3.png,min4.png,allBlank.png,,,,['num_1'],,,,,,0,9,9,9,,,,,,,,,['num_1'],10,0.0528064991813,1,['num_1'],0,[1.0416118463035673],,2018_May_19_1615,59.9018716747,sequenceLearningTask,001,102,
min1.png,min2.png,min3.png,min4.png,allBlank.png,,,,['num_4'],,,,,,0,9,9,9,,,,,,,,,['num_4'],10,0.0580118261278,1,['num_4'],0,[1.1367772675585002],,2018_May_19_1615,59.9018716747,sequenceLearningTask,001,102,
min1.png,min2.png,min3.png,min4.png,allBlank.png,,,,['num_0'],,,,,,0,9,9,9,,,,,,,,,['num_0'],10,0.0563178793527,1,['num_0'],0,[0.9053178601898253],,2018_May_19_1615,59.9018716747,sequenceLearningTask,001,102,
min1.png,min2.png,min3.png,min4.png,allBlank.png,,,,['num_0'],,,,,,0,9,9,9,,,,,,,,,['num_0'],10,0.0517677310854,1,['num_0'],0,[1.4762591060716659],,2018_May_19_1615,59.9018716747,sequenceLearningTask,001,102,
min1.png,min2.png,min3.png,min4.png,allBlank.png,,,,['num_4'],,,,,,0,9,9,9,,,,,,,,,['num_4'],10,0.0537812672555,1,['num_4'],0,[1.5240100217051804],,2018_May_19_1615,59.9018716747,sequenceLearningTask,001,102,
min1.png,min2.png,min3.png,min4.png,allBlank.png,,,,['num_1'],,,,,,0,9,9,9,,,,,,,,,['num_1'],10,0.0498099899851,1,['num_1'],0,[1.0110604993533343],,2018_May_19_1615,59.9018716747,sequenceLearningTask,001,102,
min1.png,min2.png,min3.png,min4.png,allBlank.png,,,,['num_0'],,,,,,0,9,9,9,,,,,,,,,['num_0'],10,0.0569833144546,1,['num_0'],0,[3.388255932368338],,2018_May_19_1615,59.9018716747,sequenceLearningTask,001,102,
min1.png,min2.png,min3.png,min4.png,images/allBlank.png,images/min1.png,'num_7',"['num_7', 'num_4', 'num_1', 'num_0']",['num_7'],num_7,,,,,0,9,9,9,0,0,0,0,,,,,['num_7'],,0.072473756969,1,['num_7'],0,[1.1668793843127787],1,2018_May_19_1615,59.9018716747,sequenceLearningTask,001,102,
min1.png,min2.png,min3.png,min4.png,images/allBlank.png,images/min4.png,'num_0',"['num_7', 'num_4', 'num_1', 'num_0']",['num_0'],num_0,,,,,0,9,9,9,0,1,1,3,,,,,['num_0'],,0.0569053660147,1,['num_0'],0,[0.7190657816827297],1,2018_May_19_1615,59.9018716747,sequenceLearningTask,001,102,
min1.png,min2.png,min3.png,min4.png,images/allBlank.png,images/min3.png,'num_1',"['num_7', 'num_4', 'num_1', 'num_0']",['num_1'],num_1,,,,,0,9,9,9,0,2,2,2,,,,,['num_1'],,0.0592430040706,1,['num_1'],0,[34.146972947288305],1,2018_May_19_1615,59.9018716747,sequenceLearningTask,001,102,
min1.png,min2.png,min3.png,min4.png,images/allBlank.png,images/min2.png,'num_4',"['num_7', 'num_4', 'num_1', 'num_0']",['num_4'],num_4,,,,,0,9,9,9,0,3,3,1,,,,,['num_4'],,0.0490842473228,1,['num_4'],0,[1.4772535664960742],1,2018_May_19_1615,59.9018716747,sequenceLearningTask,001,102,
min1.png,min2.png,min3.png,min4.png,images/allBlank.png,images/min4.png,'num_0',"['num_7', 'num_4', 'num_1', 'num_0']",['num_0'],num_0,,,,,0,9,9,9,1,0,4,3,,,,,['num_0'],,0.0506382966414,1,['num_0'],0,[0.9763823880348355],1,2018_May_19_1615,59.9018716747,sequenceLearningTask,001,102,
min1.png,min2.png,min3.png,min4.png,images/allBlank.png,images/min2.png,'num_4',"['num_7', 'num_4', 'num_1', 'num_0']",['num_4'],num_4,,,,,0,9,9,9,1,1,5,1,,,,,['num_4'],,0.0612491555512,1,['num_4'],0,[1.2472768237348646],1,2018_May_19_1615,59.9018716747,sequenceLearningTask,001,102,
min1.png,min2.png,min3.png,min4.png,images/allBlank.png,images/min3.png,'num_1',"['num_7', 'num_4', 'num_1', 'num_0']",['num_1'],num_1,,,,,0,9,9,9,1,2,6,2,,,,,['num_1'],,0.0585459792055,1,['num_1'],0,[1.2664575183298439],1,2018_May_19_1615,59.9018716747,sequenceLearningTask,001,102,
min1.png,min2.png,min3.png,min4.png,images/allBlank.png,images/min1.png,'num_7',"['num_7', 'num_4', 'num_1', 'num_0']",['num_7'],num_7,,,,,0,9,9,9,1,3,7,0,,,,,['num_7'],,0.0521935767028,1,['num_7'],0,[1.2238754169084132],1,2018_May_19_1615,59.9018716747,sequenceLearningTask,001,102,
min1.png,min2.png,min3.png,min4.png,images/allBlank.png,images/min3.png,'num_1',"['num_7', 'num_4', 'num_1', 'num_0']",['num_1'],num_1,,,,,0,9,9,9,2,0,8,2,,,,,['num_1'],,0.0588544916827,1,['num_1'],0,[1.1837577226106077],1,2018_May_19_1615,59.9018716747,sequenceLearningTask,001,102,
min1.png,min2.png,min3.png,min4.png,images/allBlank.png,images/min1.png,'num_7',"['num_7', 'num_4', 'num_1', 'num_0']",['num_7'],num_7,,,,,0,9,9,9,2,1,9,0,,,,,['num_7'],,0.0549628040753,1,['num_7'],0,[1.05419890768826],1,2018_May_19_1615,59.9018716747,sequenceLearningTask,001,102,
min1.png,min2.png,min3.png,min4.png,images/allBlank.png,images/min2.png,'num_4',"['num_7', 'num_4', 'num_1', 'num_0']",['num_4'],num_4,,,,,0,9,9,9,2,2,10,1,,,,,['num_4'],,0.0570977758616,1,['num_4'],0,[1.0347991366870701],1,2018_May_19_1615,59.9018716747,sequenceLearningTask,001,102,
min1.png,min2.png,min3.png,min4.png,images/allBlank.png,images/min4.png,'num_0',"['num_7', 'num_4', 'num_1', 'num_0']",['num_0'],num_0,,,,,0,9,9,9,2,3,11,3,,,,,['num_0'],,0.0524971662089,1,['num_0'],0,[0.8248547797556967],1,2018_May_19_1615,59.9018716747,sequenceLearningTask,001,102,
min1.png,min2.png,min3.png,min4.png,images/allBlank.png,images/min4.png,'num_0',"['num_7', 'num_4', 'num_1', 'num_0']",['num_0'],num_0,,,,,0,9,9,9,3,0,12,3,,,,,['num_0'],,0.0516688595526,1,['num_0'],0,[1.2242516214028],1,2018_May_19_1615,59.9018716747,sequenceLearningTask,001,102,
min1.png,min2.png,min3.png,min4.png,images/allBlank.png,images/min2.png,'num_4',"['num_7', 'num_4', 'num_1', 'num_0']",['num_4'],num_4,,,,,0,9,9,9,3,1,13,1,,,,,['num_4'],,0.0543769586366,1,['num_4'],0,[1.1397635203320533],1,2018_May_19_1615,59.9018716747,sequenceLearningTask,001,102,
min1.png,min2.png,min3.png,min4.png,images/allBlank.png,images/min1.png,'num_7',"['num_7', 'num_4', 'num_1', 'num_0']",['num_7'],num_7,,,,,0,9,9,9,3,2,14,0,,,,,['num_7'],,0.0500048615504,1,['num_7'],0,[1.8919972609728575],1,2018_May_19_1615,59.9018716747,sequenceLearningTask,001,102,
min1.png,min2.png,min3.png,min4.png,images/allBlank.png,images/min3.png,'num_1',"['num_7', 'num_4', 'num_1', 'num_0']",['num_1'],num_1,,,,,0,9,9,9,3,3,15,2,,,,,['num_1'],,0.0549340862781,0,"['num_7', 'num_1']",0,"[0.0002149741631001234, 1.9208805076777935]",0,2018_May_19_1615,59.9018716747,sequenceLearningTask,001,102,
min1.png,min2.png,min3.png,min4.png,images/allBlank.png,images/min4.png,'num_0',"['num_7', 'num_4', 'num_1', 'num_0']",['num_0'],num_0,,,,,0,9,9,9,4,0,16,3,,,,,['num_0'],,0.0568487504497,1,['num_0'],0,[0.9379705379251391],1,2018_May_19_1615,59.9018716747,sequenceLearningTask,001,102,
min1.png,min2.png,min3.png,min4.png,images/allBlank.png,images/min2.png,'num_4',"['num_7', 'num_4', 'num_1', 'num_0']",['num_4'],num_4,,,,,0,9,9,9,4,1,17,1,,,,,['num_4'],,0.0519096797798,1,['num_4'],0,[1.7071380014531314],1,2018_May_19_1615,59.9018716747,sequenceLearningTask,001,102,
min1.png,min2.png,min3.png,min4.png,images/allBlank.png,images/min1.png,'num_7',"['num_7', 'num_4', 'num_1', 'num_0']",['num_7'],num_7,,,,,0,9,9,9,4,2,18,0,,,,,['num_7'],,0.0467224039603,1,['num_7'],0,[2.9303898292127997],1,2018_May_19_1615,59.9018716747,sequenceLearningTask,001,102,
min1.png,min2.png,min3.png,min4.png,images/allBlank.png,images/min3.png,'num_1',"['num_7', 'num_4', 'num_1', 'num_0']",['num_1'],num_1,,,,,0,9,9,9,4,3,19,2,,,,,['num_1'],,0.0576938777231,0,"['num_4', 'num_1']",0,"[1.1179731881711632, 2.1846664394252002]",0,2018_May_19_1615,59.9018716747,sequenceLearningTask,001,102,
min1.png,min2.png,min3.png,min4.png,images/allBlank.png,images/min4.png,'num_0',"['num_7', 'num_4', 'num_1', 'num_0']",['num_0'],num_0,,,,,0,9,9,9,5,0,20,3,,,,,['num_0'],,0.0490231192671,1,['num_0'],0,[0.8769425102509558],1,2018_May_19_1615,59.9018716747,sequenceLearningTask,001,102,
min1.png,min2.png,min3.png,min4.png,images/allBlank.png,images/min3.png,'num_1',"['num_7', 'num_4', 'num_1', 'num_0']",['num_1'],num_1,,,,,0,9,9,9,5,1,21,2,,,,,['num_1'],,0.0555223932024,1,['num_1'],0,[1.5006820503622293],1,2018_May_19_1615,59.9018716747,sequenceLearningTask,001,102,
min1.png,min2.png,min3.png,min4.png,images/allBlank.png,images/min1.png,'num_7',"['num_7', 'num_4', 'num_1', 'num_0']",['num_7'],num_7,,,,,0,9,9,9,5,2,22,0,,,,,['num_7'],,0.0521968586836,1,['num_7'],0,[1.39092998043634],1,2018_May_19_1615,59.9018716747,sequenceLearningTask,001,102,
min1.png,min2.png,min3.png,min4.png,images/allBlank.png,images/min2.png,'num_4',"['num_7', 'num_4', 'num_1', 'num_0']",['num_4'],num_4,,,,,0,9,9,9,5,3,23,1,,,,,['num_4'],,0.0555022906046,1,['num_4'],0,[1.417853024089709],1,2018_May_19_1615,59.9018716747,sequenceLearningTask,001,102,
min1.png,min2.png,min3.png,min4.png,images/allBlank.png,images/min4.png,'num_0',"['num_7', 'num_4', 'num_1', 'num_0']",['num_0'],num_0,,,,,0,9,9,9,6,0,24,3,,,,,['num_0'],,0.057167109102,1,['num_0'],0,[0.9350363877601922],1,2018_May_19_1615,59.9018716747,sequenceLearningTask,001,102,
min1.png,min2.png,min3.png,min4.png,images/allBlank.png,images/min3.png,'num_1',"['num_7', 'num_4', 'num_1', 'num_0']",['num_1'],num_1,,,,,0,9,9,9,6,1,25,2,,,,,['num_1'],,0.0580741849262,1,['num_1'],0,[0.9330646975431591],1,2018_May_19_1615,59.9018716747,sequenceLearningTask,001,102,
min1.png,min2.png,min3.png,min4.png,images/allBlank.png,images/min2.png,'num_4',"['num_7', 'num_4', 'num_1', 'num_0']",['num_4'],num_4,,,,,0,9,9,9,6,2,26,1,,,,,['num_4'],,0.0511712189764,0,"['num_7', 'num_4']",0,"[1.2243566471152008, 1.7587330150417984]",0,2018_May_19_1615,59.9018716747,sequenceLearningTask,001,102,
min1.png,min2.png,min3.png,min4.png,images/allBlank.png,images/min1.png,'num_7',"['num_7', 'num_4', 'num_1', 'num_0']",['num_7'],num_7,,,,,0,9,9,9,6,3,27,0,,,,,['num_7'],,0.0510034242179,1,['num_7'],0,[2.4913105748128146],1,2018_May_19_1615,59.9018716747,sequenceLearningTask,001,102,
min1.png,min2.png,min3.png,min4.png,images/allBlank.png,images/min1.png,'num_7',"['num_7', 'num_4', 'num_1', 'num_0']",['num_7'],num_7,,,,,0,9,9,9,7,0,28,0,,,,,['num_7'],,0.0526095761452,0,"['num_7', 'num_4', 'num_7']",0,"[2.9918666766025126, 3.6728106590453535]",0,2018_May_19_1615,59.9018716747,sequenceLearningTask,001,102,
min1.png,min2.png,min3.png,min4.png,images/allBlank.png,images/min4.png,'num_0',"['num_7', 'num_4', 'num_1', 'num_0']",['num_0'],num_0,,,,,0,9,9,9,7,1,29,3,,,,,['num_0'],,0.0508233220316,1,['num_0'],0,[1.1435752080287784],1,2018_May_19_1615,59.9018716747,sequenceLearningTask,001,102,
min1.png,min2.png,min3.png,min4.png,images/allBlank.png,images/min2.png,'num_4',"['num_7', 'num_4', 'num_1', 'num_0']",['num_4'],num_4,,,,,0,9,9,9,7,2,30,1,,,,,['num_4'],,0.0555281366687,0,"['num_1', 'num_0', 'num_7', 'num_4', 'num_7', 'num_4', 'num_4']",0,"[0.9534043651074171, 0.9697493705898523, 2.204101082170382, 3.5049725067801774, 4.1693072787020355]",0,2018_May_19_1615,59.9018716747,sequenceLearningTask,001,102,
min1.png,min2.png,min3.png,min4.png,images/allBlank.png,images/min3.png,'num_1',"['num_7', 'num_4', 'num_1', 'num_0']",['num_1'],num_1,,,,,0,9,9,9,7,3,31,2,,,,,['num_1'],,0.0485480427742,1,['num_1'],0,[2.4945552886929363],1,2018_May_19_1615,59.9018716747,sequenceLearningTask,001,102,
min1.png,min2.png,min3.png,min4.png,images/allBlank.png,images/min3.png,'num_1',"['num_7', 'num_4', 'num_1', 'num_0']",['num_1'],num_1,,,,,0,9,9,9,8,0,32,2,,,,,['num_1'],,0.0536138827447,1,['num_1'],0,[1.1715727117843926],1,2018_May_19_1615,59.9018716747,sequenceLearningTask,001,102,
min1.png,min2.png,min3.png,min4.png,images/allBlank.png,images/min4.png,'num_0',"['num_7', 'num_4', 'num_1', 'num_0']",['num_0'],num_0,,,,,0,9,9,9,8,1,33,3,,,,,['num_0'],,0.0531137809157,0,"['num_0', 'num_0']",0,"[0.00021333293989300728, 0.8565006894059479]",0,2018_May_19_1615,59.9018716747,sequenceLearningTask,001,102,
min1.png,min2.png,min3.png,min4.png,images/allBlank.png,images/min1.png,'num_7',"['num_7', 'num_4', 'num_1', 'num_0']",['num_7'],num_7,,,,,0,9,9,9,8,2,34,0,,,,,['num_7'],,0.0506571684964,0,"['num_1', 'num_7']",0,"[0.00021415343508124352, 2.825828727101907]",0,2018_May_19_1615,59.9018716747,sequenceLearningTask,001,102,
min1.png,min2.png,min3.png,min4.png,images/allBlank.png,images/min2.png,'num_4',"['num_7', 'num_4', 'num_1', 'num_0']",['num_4'],num_4,,,,,0,9,9,9,8,3,35,1,,,,,['num_4'],,0.057065365836,1,['num_4'],0,[1.4008897631429136],1,2018_May_19_1615,59.9018716747,sequenceLearningTask,001,102,
min1.png,min2.png,min3.png,min4.png,images/allBlank.png,images/min3.png,'num_1',"['num_7', 'num_4', 'num_1', 'num_0']",['num_1'],num_1,,,,,0,9,9,9,9,0,36,2,,,,,['num_1'],,0.0584885433782,1,['num_1'],0,[5.932801313465461],1,2018_May_19_1615,59.9018716747,sequenceLearningTask,001,102,
min1.png,min2.png,min3.png,min4.png,images/allBlank.png,images/min1.png,'num_7',"['num_7', 'num_4', 'num_1', 'num_0']",['num_7'],num_7,,,,,0,9,9,9,9,1,37,0,,,,,['num_7'],,0.0534588058945,1,['num_7'],0,[2.0213796659372747],1,2018_May_19_1615,59.9018716747,sequenceLearningTask,001,102,
min1.png,min2.png,min3.png,min4.png,images/allBlank.png,images/min2.png,'num_4',"['num_7', 'num_4', 'num_1', 'num_0']",['num_4'],num_4,,,,,0,9,9,9,9,2,38,1,,,,,['num_4'],,0.0497193234041,0,"['num_7', 'num_4']",0,"[1.0937397819943726, 1.1103202744852751]",0,2018_May_19_1615,59.9018716747,sequenceLearningTask,001,102,
min1.png,min2.png,min3.png,min4.png,images/allBlank.png,images/min4.png,'num_0',"['num_7', 'num_4', 'num_1', 'num_0']",['num_0'],num_0,,,,,0,9,9,9,9,3,39,3,,,,,['num_0'],,0.0550998295657,0,"['num_1', 'num_0', 'num_1', 'num_0', 'num_1', 'num_0', 'num_0']",0,"[1.2381264760624617, 2.020618231035769, 2.4888728340156376, 2.919628406642005]",0,2018_May_19_1615,59.9018716747,sequenceLearningTask,001,102,
min1.png,min2.png,min3.png,min4.png,images/allBlank.png,images/min4.png,'num_0',"['num_7', 'num_4', 'num_1', 'num_0']",['num_0'],num_0,,,,,0,9,9,9,10,0,40,3,,,,,['num_0'],,0.0518826027401,1,['num_0'],0,[0.05629449477419257],1,2018_May_19_1615,59.9018716747,sequenceLearningTask,001,102,
min1.png,min2.png,min3.png,min4.png,images/allBlank.png,images/min3.png,'num_1',"['num_7', 'num_4', 'num_1', 'num_0']",['num_1'],num_1,,,,,0,9,9,9,10,1,41,2,,,,,['num_1'],,0.0471133778337,0,"['num_1', 'num_4', 'num_1', 'num_1']",0,"[0.0005809222348034382, 1.6975113465450704, 2.3469349576625973]",0,2018_May_19_1615,59.9018716747,sequenceLearningTask,001,102,
min1.png,min2.png,min3.png,min4.png,images/allBlank.png,images/min1.png,'num_7',"['num_7', 'num_4', 'num_1', 'num_0']",['num_7'],num_7,,,,,0,9,9,9,10,2,42,0,,,,,['num_7'],,0.0539937797002,0,"['num_4', 'num_7']",0,"[3.9706482412293553, 4.6621255439240485]",0,2018_May_19_1615,59.9018716747,sequenceLearningTask,001,102,
min1.png,min2.png,min3.png,min4.png,images/allBlank.png,images/min2.png,'num_4',"['num_7', 'num_4', 'num_1', 'num_0']",['num_4'],num_4,,,,,0,9,9,9,10,3,43,1,,,,,['num_4'],,0.0576881340239,0,"['num_4', 'num_1', 'num_4']",0,"[3.985453966539353, 4.985401453915983]",0,2018_May_19_1615,59.9018716747,sequenceLearningTask,001,102,
min1.png,min2.png,min3.png,min4.png,images/allBlank.png,images/min2.png,'num_4',"['num_7', 'num_4', 'num_1', 'num_0']",['num_4'],num_4,,,,,0,9,9,9,11,0,44,1,,,,,['num_4'],,0.0587547996547,1,['num_4'],0,[1.1991242677904665],1,2018_May_19_1615,59.9018716747,sequenceLearningTask,001,102,
min1.png,min2.png,min3.png,min4.png,images/allBlank.png,images/min1.png,'num_7',"['num_7', 'num_4', 'num_1', 'num_0']",['num_7'],num_7,,,,,0,9,9,9,11,1,45,0,,,,,['num_7'],,0.0487240424845,1,['num_7'],0,[2.827848827233538],1,2018_May_19_1615,59.9018716747,sequenceLearningTask,001,102,
min1.png,min2.png,min3.png,min4.png,images/allBlank.png,images/min3.png,'num_1',"['num_7', 'num_4', 'num_1', 'num_0']",['num_1'],num_1,,,,,0,9,9,9,11,2,46,2,,,,,['num_1'],,0.0521500897594,1,['num_1'],0,[1.2403677043039352],1,2018_May_19_1615,59.9018716747,sequenceLearningTask,001,102,
min1.png,min2.png,min3.png,min4.png,images/allBlank.png,images/min4.png,'num_0',"['num_7', 'num_4', 'num_1', 'num_0']",['num_0'],num_0,,,,,0,9,9,9,11,3,47,3,,,,,['num_0'],,0.0502235279419,1,['num_0'],0,[0.8259784707333893],1,2018_May_19_1615,59.9018716747,sequenceLearningTask,001,102,
min1.png,min2.png,min3.png,min4.png,images/allBlank.png,images/min4.png,'num_0',"['num_7', 'num_4', 'num_1', 'num_0']",['num_0'],num_0,,,,,0,9,9,9,12,0,48,3,,,,,['num_0'],,0.0503063995857,1,['num_0'],0,[0.7112011760473251],1,2018_May_19_1615,59.9018716747,sequenceLearningTask,001,102,
min1.png,min2.png,min3.png,min4.png,images/allBlank.png,images/min1.png,'num_7',"['num_7', 'num_4', 'num_1', 'num_0']",['num_7'],num_7,,,,,0,9,9,9,12,1,49,0,,,,,['num_7'],,0.0538042413536,1,['num_7'],0,[1.4880703736562282],1,2018_May_19_1615,59.9018716747,sequenceLearningTask,001,102,
min1.png,min2.png,min3.png,min4.png,images/allBlank.png,images/min3.png,'num_1',"['num_7', 'num_4', 'num_1', 'num_0']",['num_1'],num_1,,,,,0,9,9,9,12,2,50,2,,,,,['num_1'],,0.052527114749,1,['num_1'],0,[1.3069555195979774],1,2018_May_19_1615,59.9018716747,sequenceLearningTask,001,102,
min1.png,min2.png,min3.png,min4.png,images/allBlank.png,images/min2.png,'num_4',"['num_7', 'num_4', 'num_1', 'num_0']",['num_4'],num_4,,,,,0,9,9,9,12,3,51,1,,,,,['num_4'],,0.0522756280843,1,['num_4'],0,[1.18953863857314],1,2018_May_19_1615,59.9018716747,sequenceLearningTask,001,102,
min1.png,min2.png,min3.png,min4.png,images/allBlank.png,images/min4.png,'num_0',"['num_7', 'num_4', 'num_1', 'num_0']",['num_0'],num_0,,,,,0,9,9,9,13,0,52,3,,,,,['num_0'],,0.0587937738746,1,['num_0'],0,[0.5174180299509317],1,2018_May_19_1615,59.9018716747,sequenceLearningTask,001,102,
min1.png,min2.png,min3.png,min4.png,images/allBlank.png,images/min2.png,'num_4',"['num_7', 'num_4', 'num_1', 'num_0']",['num_4'],num_4,,,,,0,9,9,9,13,1,53,1,,,,,['num_4'],,0.0482596328948,1,['num_4'],0,[1.1614094423130155],1,2018_May_19_1615,59.9018716747,sequenceLearningTask,001,102,
min1.png,min2.png,min3.png,min4.png,images/allBlank.png,images/min1.png,'num_7',"['num_7', 'num_4', 'num_1', 'num_0']",['num_7'],num_7,,,,,0,9,9,9,13,2,54,0,,,,,['num_7'],,0.0573582882062,1,['num_7'],0,[1.1011543369386345],1,2018_May_19_1615,59.9018716747,sequenceLearningTask,001,102,
min1.png,min2.png,min3.png,min4.png,images/allBlank.png,images/min3.png,'num_1',"['num_7', 'num_4', 'num_1', 'num_0']",['num_1'],num_1,,,,,0,9,9,9,13,3,55,2,,,,,['num_1'],,0.0515896801371,1,['num_1'],0,[4.858036277350038],1,2018_May_19_1615,59.9018716747,sequenceLearningTask,001,102,
min1.png,min2.png,min3.png,min4.png,images/allBlank.png,images/min3.png,'num_1',"['num_7', 'num_4', 'num_1', 'num_0']",['num_1'],num_1,,,,,0,9,9,9,14,0,56,2,,,,,['num_1'],,0.0615186935756,1,['num_1'],0,[0.9463746300898492],1,2018_May_19_1615,59.9018716747,sequenceLearningTask,001,102,
min1.png,min2.png,min3.png,min4.png,images/allBlank.png,images/min2.png,'num_4',"['num_7', 'num_4', 'num_1', 'num_0']",['num_4'],num_4,,,,,0,9,9,9,14,1,57,1,,,,,['num_4'],,0.0502177842427,1,['num_4'],0,[0.942886634496972],1,2018_May_19_1615,59.9018716747,sequenceLearningTask,001,102,
min1.png,min2.png,min3.png,min4.png,images/allBlank.png,images/min1.png,'num_7',"['num_7', 'num_4', 'num_1', 'num_0']",['num_7'],num_7,,,,,0,9,9,9,14,2,58,0,,,,,['num_7'],,0.0530789091717,1,['num_7'],0,[1.7719346396625042],1,2018_May_19_1615,59.9018716747,sequenceLearningTask,001,102,
min1.png,min2.png,min3.png,min4.png,images/allBlank.png,images/min4.png,'num_0',"['num_7', 'num_4', 'num_1', 'num_0']",['num_0'],num_0,,,,,0,9,9,9,14,3,59,3,,,,,['num_0'],,0.0521710126195,1,['num_0'],0,[1.0231142279226333],1,2018_May_19_1615,59.9018716747,sequenceLearningTask,001,102,
min1.png,min2.png,min3.png,min4.png,images/allBlank.png,images/min3.png,'num_1',"['num_7', 'num_4', 'num_1', 'num_0']",['num_1'],num_1,,,,,0,9,9,9,15,0,60,2,,,,,['num_1'],,0.0549037272576,1,['num_1'],0,[3.287856876384467],1,2018_May_19_1615,59.9018716747,sequenceLearningTask,001,102,
min1.png,min2.png,min3.png,min4.png,images/allBlank.png,images/min4.png,'num_0',"['num_7', 'num_4', 'num_1', 'num_0']",['num_0'],num_0,,,,,0,9,9,9,15,1,61,3,,,,,['num_0'],,0.057926082518,1,['num_0'],0,[1.1514771468937397],1,2018_May_19_1615,59.9018716747,sequenceLearningTask,001,102,
min1.png,min2.png,min3.png,min4.png,images/allBlank.png,images/min2.png,'num_4',"['num_7', 'num_4', 'num_1', 'num_0']",['num_4'],num_4,,,,,0,9,9,9,15,2,62,1,,,,,['num_4'],,0.049918707693,1,['num_4'],0,[1.7093299988191575],1,2018_May_19_1615,59.9018716747,sequenceLearningTask,001,102,
min1.png,min2.png,min3.png,min4.png,images/allBlank.png,images/min1.png,'num_7',"['num_7', 'num_4', 'num_1', 'num_0']",['num_7'],num_7,,,,,0,9,9,9,15,3,63,0,,,,,['num_7'],,0.0534776777495,0,"['num_4', 'num_7']",0,"[1.0406436424236745, 1.889400341315195]",0,2018_May_19_1615,59.9018716747,sequenceLearningTask,001,102,
min1.png,min2.png,min3.png,min4.png,images/allBlank.png,images/min3.png,'num_1',"['num_7', 'num_4', 'num_1', 'num_0']",['num_1'],num_1,,,,,0,9,9,9,16,0,64,2,,,,,['num_1'],,0.0569225966465,1,['num_1'],0,[2.201352367643267],1,2018_May_19_1615,59.9018716747,sequenceLearningTask,001,102,
min1.png,min2.png,min3.png,min4.png,images/allBlank.png,images/min2.png,'num_4',"['num_7', 'num_4', 'num_1', 'num_0']",['num_4'],num_4,,,,,0,9,9,9,16,1,65,1,,,,,['num_4'],,0.0530994220171,1,['num_4'],0,[1.4229594795033336],1,2018_May_19_1615,59.9018716747,sequenceLearningTask,001,102,
min1.png,min2.png,min3.png,min4.png,images/allBlank.png,images/min1.png,'num_7',"['num_7', 'num_4', 'num_1', 'num_0']",['num_7'],num_7,,,,,0,9,9,9,16,2,66,0,,,,,['num_7'],,0.0530423962045,1,['num_7'],0,[1.5063005050178617],1,2018_May_19_1615,59.9018716747,sequenceLearningTask,001,102,
min1.png,min2.png,min3.png,min4.png,images/allBlank.png,images/min4.png,'num_0',"['num_7', 'num_4', 'num_1', 'num_0']",['num_0'],num_0,,,,,0,9,9,9,16,3,67,3,,,,,['num_0'],,0.0556331623811,0,"['num_1', 'num_0']",0,"[2.070178375346586, 3.053369780536741]",0,2018_May_19_1615,59.9018716747,sequenceLearningTask,001,102,
min1.png,min2.png,min3.png,min4.png,images/allBlank.png,images/min2.png,'num_4',"['num_7', 'num_4', 'num_1', 'num_0']",['num_4'],num_4,,,,,0,9,9,9,17,0,68,1,,,,,['num_4'],,0.0588196199387,1,['num_4'],0,[1.3496565951500088],1,2018_May_19_1615,59.9018716747,sequenceLearningTask,001,102,
min1.png,min2.png,min3.png,min4.png,images/allBlank.png,images/min4.png,'num_0',"['num_7', 'num_4', 'num_1', 'num_0']",['num_0'],num_0,,,,,0,9,9,9,17,1,69,3,,,,,['num_0'],,0.0502608611714,1,['num_0'],0,[1.4575087702833116],1,2018_May_19_1615,59.9018716747,sequenceLearningTask,001,102,
min1.png,min2.png,min3.png,min4.png,images/allBlank.png,images/min3.png,'num_1',"['num_7', 'num_4', 'num_1', 'num_0']",['num_1'],num_1,,,,,0,9,9,9,17,2,70,2,,,,,['num_1'],,0.0471515315585,0,"['num_7', 'num_4', 'num_7', 'num_1']",0,"[0.7284056677017361, 1.9289654206950217, 3.0628495637793094, 14.211884867399931]",0,2018_May_19_1615,59.9018716747,sequenceLearningTask,001,102,
min1.png,min2.png,min3.png,min4.png,images/allBlank.png,images/min1.png,'num_7',"['num_7', 'num_4', 'num_1', 'num_0']",['num_7'],num_7,,,,,0,9,9,9,17,3,71,0,,,,,['num_7'],,0.0559482388198,1,['num_7'],0,[1.8532789498567581],1,2018_May_19_1615,59.9018716747,sequenceLearningTask,001,102,
min1.png,min2.png,min3.png,min4.png,images/allBlank.png,images/min3.png,'num_1',"['num_7', 'num_4', 'num_1', 'num_0']",['num_1'],num_1,,,,,0,9,9,9,18,0,72,2,,,,,['num_1'],,0.0526046531741,1,['num_1'],0,[2.3883281375747174],1,2018_May_19_1615,59.9018716747,sequenceLearningTask,001,102,
min1.png,min2.png,min3.png,min4.png,images/allBlank.png,images/min2.png,'num_4',"['num_7', 'num_4', 'num_1', 'num_0']",['num_4'],num_4,,,,,0,9,9,9,18,1,73,1,,,,,['num_4'],,0.0579699799418,1,['num_4'],0,[1.0363179040141404],1,2018_May_19_1615,59.9018716747,sequenceLearningTask,001,102,
min1.png,min2.png,min3.png,min4.png,images/allBlank.png,images/min4.png,'num_0',"['num_7', 'num_4', 'num_1', 'num_0']",['num_0'],num_0,,,,,0,9,9,9,18,2,74,3,,,,,['num_0'],,0.0548672145233,1,['num_0'],0,[0.670761430868879],1,2018_May_19_1615,59.9018716747,sequenceLearningTask,001,102,
min1.png,min2.png,min3.png,min4.png,images/allBlank.png,images/min1.png,'num_7',"['num_7', 'num_4', 'num_1', 'num_0']",['num_7'],num_7,,,,,0,9,9,9,18,3,75,0,,,,,['num_7'],,0.0537845492363,1,['num_7'],0,[1.371775132138282],1,2018_May_19_1615,59.9018716747,sequenceLearningTask,001,102,
min1.png,min2.png,min3.png,min4.png,images/allBlank.png,images/min3.png,'num_1',"['num_7', 'num_4', 'num_1', 'num_0']",['num_1'],num_1,,,,,0,9,9,9,19,0,76,2,,,,,['num_1'],,0.059517465299,1,['num_1'],0,[1.448106525465846],1,2018_May_19_1615,59.9018716747,sequenceLearningTask,001,102,
min1.png,min2.png,min3.png,min4.png,images/allBlank.png,images/min4.png,'num_0',"['num_7', 'num_4', 'num_1', 'num_0']",['num_0'],num_0,,,,,0,9,9,9,19,1,77,3,,,,,['num_0'],,0.0568466992117,1,['num_0'],0,[1.2524444074369967],1,2018_May_19_1615,59.9018716747,sequenceLearningTask,001,102,
min1.png,min2.png,min3.png,min4.png,images/allBlank.png,images/min2.png,'num_4',"['num_7', 'num_4', 'num_1', 'num_0']",['num_4'],num_4,,,,,0,9,9,9,19,2,78,1,,,,,['num_4'],,0.0499560411554,1,['num_4'],0,[1.4765302853193134],1,2018_May_19_1615,59.9018716747,sequenceLearningTask,001,102,
min1.png,min2.png,min3.png,min4.png,images/allBlank.png,images/min1.png,'num_7',"['num_7', 'num_4', 'num_1', 'num_0']",['num_7'],num_7,,,,,0,9,9,9,19,3,79,0,,,,,['num_7'],,0.0520023975987,1,['num_7'],0,[1.1914143282920122],1,2018_May_19_1615,59.9018716747,sequenceLearningTask,001,102,
min1.png,min2.png,min3.png,min4.png,allBlank.png,,,,['num_7'],,,,,,0,0,0,0,,,,,,,,,['num_7'],1,0.0448044575751,1,['num_7'],0,[1.4551600550767034],,2018_May_19_1615,59.9018716747,sequenceLearningTask,001,102,
min1.png,min2.png,min3.png,min4.png,allBlank.png,,,,['num_1'],,,,,,0,0,0,0,,,,,,,,,['num_1'],1,0.0528906015679,1,['num_1'],0,[1.9246183491777629],,2018_May_19_1615,59.9018716747,sequenceLearningTask,001,102,
min1.png,min2.png,min3.png,min4.png,allBlank.png,,,,['num_4'],,,,,,0,0,0,0,,,,,,,,,['num_4'],1,0.0629500763025,1,['num_4'],0,[1.0810932335443795],,2018_May_19_1615,59.9018716747,sequenceLearningTask,001,102,
min1.png,min2.png,min3.png,min4.png,allBlank.png,,,,['num_0'],,,,,,0,0,0,0,,,,,,,,,['num_0'],1,0.0647744843736,1,['num_0'],0,[0.41264523565769196],,2018_May_19_1615,59.9018716747,sequenceLearningTask,001,102,
min1.png,min2.png,min3.png,min4.png,allBlank.png,,,,['num_0'],,,,,,0,0,0,0,,,,,,,,,['num_0'],1,0.0545418816619,1,['num_0'],0,[0.7579810158349574],,2018_May_19_1615,59.9018716747,sequenceLearningTask,001,102,
min1.png,min2.png,min3.png,min4.png,allBlank.png,,,,['num_4'],,,,,,0,0,0,0,,,,,,,,,['num_4'],1,0.0482272226363,0,"['num_1', 'num_4']",0,"[0.00022235861979424953, 1.1802414192352444]",,2018_May_19_1615,59.9018716747,sequenceLearningTask,001,102,
min1.png,min2.png,min3.png,min4.png,allBlank.png,,,,['num_1'],,,,,,0,0,0,0,,,,,,,,,['num_1'],1,0.0488142988179,1,['num_1'],0,[0.49657415808178484],,2018_May_19_1615,59.9018716747,sequenceLearningTask,001,102,
min1.png,min2.png,min3.png,min4.png,allBlank.png,,,,['num_0'],,,,,,0,0,0,0,,,,,,,,,['num_0'],1,0.0603937718552,1,['num_0'],0,[0.8680502139031887],,2018_May_19_1615,59.9018716747,sequenceLearningTask,001,102,
min1.png,min2.png,min3.png,min4.png,allBlank.png,,,,['num_7'],,,,,,0,1,1,1,,,,,,,,,['num_7'],2,0.0498518359382,1,['num_7'],0,[4.092356809414923],,2018_May_19_1615,59.9018716747,sequenceLearningTask,001,102,
min1.png,min2.png,min3.png,min4.png,allBlank.png,,,,['num_1'],,,,,,0,1,1,1,,,,,,,,,['num_1'],2,0.0515962440986,1,['num_1'],0,[1.2433740594424307],,2018_May_19_1615,59.9018716747,sequenceLearningTask,001,102,
min1.png,min2.png,min3.png,min4.png,allBlank.png,,,,['num_4'],,,,,,0,1,1,1,,,,,,,,,['num_4'],2,0.0516672183294,1,['num_4'],0,[1.0098034751135856],,2018_May_19_1615,59.9018716747,sequenceLearningTask,001,102,
min1.png,min2.png,min3.png,min4.png,allBlank.png,,,,['num_0'],,,,,,0,1,1,1,,,,,,,,,['num_0'],2,0.0582542871125,0,"['num_1', 'num_0']",0,"[0.669430150417611, 0.6856352586764842]",,2018_May_19_1615,59.9018716747,sequenceLearningTask,001,102,
min1.png,min2.png,min3.png,min4.png,allBlank.png,,,,['num_0'],,,,,,0,1,1,1,,,,,,,,,['num_0'],2,0.0531342935283,1,['num_0'],0,[0.6746756825596094],,2018_May_19_1615,59.9018716747,sequenceLearningTask,001,102,
min1.png,min2.png,min3.png,min4.png,allBlank.png,,,,['num_4'],,,,,,0,1,1,1,,,,,,,,,['num_4'],2,0.0520540897269,0,"['num_7', 'num_7', 'num_4']",0,"[2.6919536099303514, 3.3926415680907667, 4.158803906990215]",,2018_May_19_1615,59.9018716747,sequenceLearningTask,001,102,
min1.png,min2.png,min3.png,min4.png,allBlank.png,,,,['num_1'],,,,,,0,1,1,1,,,,,,,,,['num_1'],2,0.0546985992696,1,['num_1'],0,[1.8225528339389712],,2018_May_19_1615,59.9018716747,sequenceLearningTask,001,102,
min1.png,min2.png,min3.png,min4.png,allBlank.png,,,,['num_0'],,,,,,0,1,1,1,,,,,,,,,['num_0'],2,0.0543043434154,1,['num_0'],0,[1.6735195813234895],,2018_May_19_1615,59.9018716747,sequenceLearningTask,001,102,
min1.png,min2.png,min3.png,min4.png,allBlank.png,,,,['num_7'],,,,,,0,2,2,2,,,,,,,,,['num_7'],3,0.0549176759087,1,['num_7'],0,[0.9374696153681725],,2018_May_19_1615,59.9018716747,sequenceLearningTask,001,102,
min1.png,min2.png,min3.png,min4.png,allBlank.png,,,,['num_1'],,,,,,0,2,2,2,,,,,,,,,['num_1'],3,0.0500376820564,1,['num_1'],0,[1.3617538111284375],,2018_May_19_1615,59.9018716747,sequenceLearningTask,001,102,
min1.png,min2.png,min3.png,min4.png,allBlank.png,,,,['num_4'],,,,,,0,2,2,2,,,,,,,,,['num_4'],3,0.0530362422578,1,['num_4'],0,[1.0739695499651134],,2018_May_19_1615,59.9018716747,sequenceLearningTask,001,102,
min1.png,min2.png,min3.png,min4.png,allBlank.png,,,,['num_0'],,,,,,0,2,2,2,,,,,,,,,['num_0'],3,0.0572134680115,1,['num_0'],0,[0.7708540256135166],,2018_May_19_1615,59.9018716747,sequenceLearningTask,001,102,
min1.png,min2.png,min3.png,min4.png,allBlank.png,,,,['num_0'],,,,,,0,2,2,2,,,,,,,,,['num_0'],3,0.059547413839,1,['num_0'],0,[1.7173332709353417],,2018_May_19_1615,59.9018716747,sequenceLearningTask,001,102,
min1.png,min2.png,min3.png,min4.png,allBlank.png,,,,['num_4'],,,,,,0,2,2,2,,,,,,,,,['num_4'],3,0.0628626917023,1,['num_4'],0,[1.6656824627425522],,2018_May_19_1615,59.9018716747,sequenceLearningTask,001,102,
min1.png,min2.png,min3.png,min4.png,allBlank.png,,,,['num_1'],,,,,,0,2,2,2,,,,,,,,,['num_1'],3,0.0577057751361,1,['num_1'],0,[0.820056016324088],,2018_May_19_1615,59.9018716747,sequenceLearningTask,001,102,
min1.png,min2.png,min3.png,min4.png,allBlank.png,,,,['num_0'],,,,,,0,2,2,2,,,,,,,,,['num_0'],3,0.0540315231774,1,['num_0'],0,[1.3573702268768102],,2018_May_19_1615,59.9018716747,sequenceLearningTask,001,102,
min1.png,min2.png,min3.png,min4.png,allBlank.png,,,,['num_7'],,,,,,0,3,3,3,,,,,,,,,['num_7'],4,0.0554772650357,1,['num_7'],0,[0.8715825171675533],,2018_May_19_1615,59.9018716747,sequenceLearningTask,001,102,
min1.png,min2.png,min3.png,min4.png,allBlank.png,,,,['num_1'],,,,,,0,3,3,3,,,,,,,,,['num_1'],4,0.0614267962519,1,['num_1'],0,[1.7003778046928346],,2018_May_19_1615,59.9018716747,sequenceLearningTask,001,102,
min1.png,min2.png,min3.png,min4.png,allBlank.png,,,,['num_4'],,,,,,0,3,3,3,,,,,,,,,['num_4'],4,0.0546567533165,1,['num_4'],0,[1.2403373452834785],,2018_May_19_1615,59.9018716747,sequenceLearningTask,001,102,
min1.png,min2.png,min3.png,min4.png,allBlank.png,,,,['num_0'],,,,,,0,3,3,3,,,,,,,,,['num_0'],4,0.0558657774236,1,['num_0'],0,[1.0390801571775228],,2018_May_19_1615,59.9018716747,sequenceLearningTask,001,102,
min1.png,min2.png,min3.png,min4.png,allBlank.png,,,,['num_0'],,,,,,0,3,3,3,,,,,,,,,['num_0'],4,0.0618124366738,1,['num_0'],0,[0.6486900732852519],,2018_May_19_1615,59.9018716747,sequenceLearningTask,001,102,
min1.png,min2.png,min3.png,min4.png,allBlank.png,,,,['num_4'],,,,,,0,3,3,3,,,,,,,,,['num_4'],4,0.0579416721594,1,['num_4'],0,[2.319000222720206],,2018_May_19_1615,59.9018716747,sequenceLearningTask,001,102,
min1.png,min2.png,min3.png,min4.png,allBlank.png,,,,['num_1'],,,,,,0,3,3,3,,,,,,,,,['num_1'],4,0.0527285505086,1,['num_1'],0,[1.5587586967740208],,2018_May_19_1615,59.9018716747,sequenceLearningTask,001,102,
min1.png,min2.png,min3.png,min4.png,allBlank.png,,,,['num_0'],,,,,,0,3,3,3,,,,,,,,,['num_0'],4,0.0509045529179,1,['num_0'],0,[0.9428144292905927],,2018_May_19_1615,59.9018716747,sequenceLearningTask,001,102,
min1.png,min2.png,min3.png,min4.png,allBlank.png,,,,['num_7'],,,,,,0,4,4,4,,,,,,,,,['num_7'],5,0.0493792213965,1,['num_7'],0,[1.2092411785852164],,2018_May_19_1615,59.9018716747,sequenceLearningTask,001,102,
min1.png,min2.png,min3.png,min4.png,allBlank.png,,,,['num_1'],,,,,,0,4,4,4,,,,,,,,,['num_1'],5,0.0489422988612,1,['num_1'],0,[3.07939723553136],,2018_May_19_1615,59.9018716747,sequenceLearningTask,001,102,
min1.png,min2.png,min3.png,min4.png,allBlank.png,,,,['num_4'],,,,,,0,4,4,4,,,,,,,,,['num_4'],5,0.0563047511969,0,"['num_7', 'num_4']",0,"[1.2551283014472574, 3.471360650844872]",,2018_May_19_1615,59.9018716747,sequenceLearningTask,001,102,
min1.png,min2.png,min3.png,min4.png,allBlank.png,,,,['num_0'],,,,,,0,4,4,4,,,,,,,,,['num_0'],5,0.0551617781166,1,['num_0'],0,[1.6058421260677278],,2018_May_19_1615,59.9018716747,sequenceLearningTask,001,102,
min1.png,min2.png,min3.png,min4.png,allBlank.png,,,,['num_0'],,,,,,0,4,4,4,,,,,,,,,['num_0'],5,0.051635628799,1,['num_0'],0,[0.7921536916401237],,2018_May_19_1615,59.9018716747,sequenceLearningTask,001,102,
min1.png,min2.png,min3.png,min4.png,allBlank.png,,,,['num_4'],,,,,,0,4,4,4,,,,,,,,,['num_4'],5,0.0528544990811,0,"['num_7', 'num_4']",0,"[1.0583387999795377, 2.0085058356635273]",,2018_May_19_1615,59.9018716747,sequenceLearningTask,001,102,
min1.png,min2.png,min3.png,min4.png,allBlank.png,,,,['num_1'],,,,,,0,4,4,4,,,,,,,,,['num_1'],5,0.0489451705944,1,['num_1'],0,[0.9458310410846025],,2018_May_19_1615,59.9018716747,sequenceLearningTask,001,102,
min1.png,min2.png,min3.png,min4.png,allBlank.png,,,,['num_0'],,,,,,0,4,4,4,,,,,,,,,['num_0'],5,0.0604979768395,1,['num_0'],0,[0.9011804293841124],,2018_May_19_1615,59.9018716747,sequenceLearningTask,001,102,
min1.png,min2.png,min3.png,min4.png,allBlank.png,,,,['num_7'],,,,,,0,5,5,5,,,,,,,,,['num_7'],6,0.0590226966888,1,['num_7'],0,[1.6174675477668643],,2018_May_19_1615,59.9018716747,sequenceLearningTask,001,102,
min1.png,min2.png,min3.png,min4.png,allBlank.png,,,,['num_1'],,,,,,0,5,5,5,,,,,,,,,['num_1'],6,0.0496532721445,1,['num_1'],0,[2.2436255463398993],,2018_May_19_1615,59.9018716747,sequenceLearningTask,001,102,
min1.png,min2.png,min3.png,min4.png,allBlank.png,,,,['num_4'],,,,,,0,5,5,5,,,,,,,,,['num_4'],6,0.0582280310337,0,"['num_7', 'num_4']",0,"[1.4860129402950406, 2.2354249409399927]",,2018_May_19_1615,59.9018716747,sequenceLearningTask,001,102,
min1.png,min2.png,min3.png,min4.png,allBlank.png,,,,['num_0'],,,,,,0,5,5,5,,,,,,,,,['num_0'],6,0.0491084523965,1,['num_0'],0,[0.9621366620995104],,2018_May_19_1615,59.9018716747,sequenceLearningTask,001,102,
min1.png,min2.png,min3.png,min4.png,allBlank.png,,,,['num_0'],,,,,,0,5,5,5,,,,,,,,,['num_0'],6,0.0547162403818,0,"['num_1', 'num_0']",0,"[2.0396660023834556, 2.8894286488648504]",,2018_May_19_1615,59.9018716747,sequenceLearningTask,001,102,
min1.png,min2.png,min3.png,min4.png,allBlank.png,,,,['num_4'],,,,,,0,5,5,5,,,,,,,,,['num_4'],6,0.0533299858216,1,['num_4'],0,[4.074282164918259],,2018_May_19_1615,59.9018716747,sequenceLearningTask,001,102,
min1.png,min2.png,min3.png,min4.png,allBlank.png,,,,['num_1'],,,,,,0,5,5,5,,,,,,,,,['num_1'],6,0.0514432187192,1,['num_1'],0,[1.7435953926760703],,2018_May_19_1615,59.9018716747,sequenceLearningTask,001,102,
min1.png,min2.png,min3.png,min4.png,allBlank.png,,,,['num_0'],,,,,,0,5,5,5,,,,,,,,,['num_0'],6,0.0555150085129,1,['num_0'],0,[0.6051676652859896],,2018_May_19_1615,59.9018716747,sequenceLearningTask,001,102,
min1.png,min2.png,min3.png,min4.png,allBlank.png,,,,['num_7'],,,,,,0,6,6,6,,,,,,,,,['num_7'],7,0.0524175765458,1,['num_7'],0,[1.7578206057660282],,2018_May_19_1615,59.9018716747,sequenceLearningTask,001,102,
min1.png,min2.png,min3.png,min4.png,allBlank.png,,,,['num_1'],,,,,,0,6,6,6,,,,,,,,,['num_1'],7,0.0521894742269,1,['num_1'],0,[1.0256553529761732],,2018_May_19_1615,59.9018716747,sequenceLearningTask,001,102,
min1.png,min2.png,min3.png,min4.png,allBlank.png,,,,['num_4'],,,,,,0,6,6,6,,,,,,,,,['num_4'],7,0.0535556264222,1,['num_4'],0,[1.1252269227989018],,2018_May_19_1615,59.9018716747,sequenceLearningTask,001,102,
min1.png,min2.png,min3.png,min4.png,allBlank.png,,,,['num_0'],,,,,,0,6,6,6,,,,,,,,,['num_0'],7,0.0541373691522,1,['num_0'],0,[0.7239925449248403],,2018_May_19_1615,59.9018716747,sequenceLearningTask,001,102,
min1.png,min2.png,min3.png,min4.png,allBlank.png,,,,['num_0'],,,,,,0,6,6,6,,,,,,,,,['num_0'],7,0.0558620849624,1,['num_0'],0,[0.7547161993570626],,2018_May_19_1615,59.9018716747,sequenceLearningTask,001,102,
min1.png,min2.png,min3.png,min4.png,allBlank.png,,,,['num_4'],,,,,,0,6,6,6,,,,,,,,,['num_4'],7,0.0499092717655,1,['num_4'],0,[1.3786046623717993],,2018_May_19_1615,59.9018716747,sequenceLearningTask,001,102,
min1.png,min2.png,min3.png,min4.png,allBlank.png,,,,['num_1'],,,,,,0,6,6,6,,,,,,,,,['num_1'],7,0.0525238327682,1,['num_1'],0,[1.12592517840676],,2018_May_19_1615,59.9018716747,sequenceLearningTask,001,102,
min1.png,min2.png,min3.png,min4.png,allBlank.png,,,,['num_0'],,,,,,0,6,6,6,,,,,,,,,['num_0'],7,0.0518366540782,1,['num_0'],0,[0.7091396399773657],,2018_May_19_1615,59.9018716747,sequenceLearningTask,001,102,
min1.png,min2.png,min3.png,min4.png,allBlank.png,,,,['num_7'],,,,,,0,7,7,7,,,,,,,,,['num_7'],8,0.0484319403768,1,['num_7'],0,[1.0285099137108773],,2018_May_19_1615,59.9018716747,sequenceLearningTask,001,102,
min1.png,min2.png,min3.png,min4.png,allBlank.png,,,,['num_1'],,,,,,0,7,7,7,,,,,,,,,['num_1'],8,0.0513066034764,1,['num_1'],0,[0.9930141624063253],,2018_May_19_1615,59.9018716747,sequenceLearningTask,001,102,
min1.png,min2.png,min3.png,min4.png,allBlank.png,,,,['num_4'],,,,,,0,7,7,7,,,,,,,,,['num_4'],8,0.055469059851,1,['num_4'],0,[1.1887226395774633],,2018_May_19_1615,59.9018716747,sequenceLearningTask,001,102,
min1.png,min2.png,min3.png,min4.png,allBlank.png,,,,['num_0'],,,,,,0,7,7,7,,,,,,,,,['num_0'],8,0.0516746030189,1,['num_0'],0,[0.6756886043585837],,2018_May_19_1615,59.9018716747,sequenceLearningTask,001,102,
min1.png,min2.png,min3.png,min4.png,allBlank.png,,,,['num_0'],,,,,,0,7,7,7,,,,,,,,,['num_0'],8,0.0530493704136,1,['num_0'],0,[1.1249356409534812],,2018_May_19_1615,59.9018716747,sequenceLearningTask,001,102,
min1.png,min2.png,min3.png,min4.png,allBlank.png,,,,['num_4'],,,,,,0,7,7,7,,,,,,,,,['num_4'],8,0.0586054662708,1,['num_4'],0,[1.7362887349445373],,2018_May_19_1615,59.9018716747,sequenceLearningTask,001,102,
min1.png,min2.png,min3.png,min4.png,allBlank.png,,,,['num_1'],,,,,,0,7,7,7,,,,,,,,,['num_1'],8,0.0533262933604,1,['num_1'],0,[1.2759754552971572],,2018_May_19_1615,59.9018716747,sequenceLearningTask,001,102,
min1.png,min2.png,min3.png,min4.png,allBlank.png,,,,['num_0'],,,,,,0,7,7,7,,,,,,,,,['num_0'],8,0.053144549951,1,['num_0'],0,[0.7418169332668185],,2018_May_19_1615,59.9018716747,sequenceLearningTask,001,102,
min1.png,min2.png,min3.png,min4.png,allBlank.png,,,,['num_7'],,,,,,0,8,8,8,,,,,,,,,['num_7'],9,0.0467047628481,1,['num_7'],0,[1.3130014610942453],,2018_May_19_1615,59.9018716747,sequenceLearningTask,001,102,
min1.png,min2.png,min3.png,min4.png,allBlank.png,,,,['num_1'],,,,,,0,8,8,8,,,,,,,,,['num_1'],9,0.0474419929087,0,"['num_4', 'num_1']",0,"[1.3313025666866452, 2.947666936321184]",,2018_May_19_1615,59.9018716747,sequenceLearningTask,001,102,
min1.png,min2.png,min3.png,min4.png,allBlank.png,,,,['num_4'],,,,,,0,8,8,8,,,,,,,,,['num_4'],9,0.0604487461969,1,['num_4'],0,[1.0674784809816629],,2018_May_19_1615,59.9018716747,sequenceLearningTask,001,102,
min1.png,min2.png,min3.png,min4.png,allBlank.png,,,,['num_0'],,,,,,0,8,8,8,,,,,,,,,['num_0'],9,0.0549960350618,1,['num_0'],0,[0.7220803422387689],,2018_May_19_1615,59.9018716747,sequenceLearningTask,001,102,
min1.png,min2.png,min3.png,min4.png,allBlank.png,,,,['num_0'],,,,,,0,8,8,8,,,,,,,,,['num_0'],9,0.0552302908618,1,['num_0'],0,[0.6066298172809184],,2018_May_19_1615,59.9018716747,sequenceLearningTask,001,102,
min1.png,min2.png,min3.png,min4.png,allBlank.png,,,,['num_4'],,,,,,0,8,8,8,,,,,,,,,['num_4'],9,0.0593533630017,1,['num_4'],0,[2.2847303163725883],,2018_May_19_1615,59.9018716747,sequenceLearningTask,001,102,
min1.png,min2.png,min3.png,min4.png,allBlank.png,,,,['num_1'],,,,,,0,8,8,8,,,,,,,,,['num_1'],9,0.0504655789118,1,['num_1'],0,[2.211032355669886],,2018_May_19_1615,59.9018716747,sequenceLearningTask,001,102,
min1.png,min2.png,min3.png,min4.png,allBlank.png,,,,['num_0'],,,,,,0,8,8,8,,,,,,,,,['num_0'],9,0.0484216839541,1,['num_0'],0,[0.7291322308592498],,2018_May_19_1615,59.9018716747,sequenceLearningTask,001,102,
min1.png,min2.png,min3.png,min4.png,allBlank.png,,,,['num_7'],,,,,,0,9,9,9,,,,,,,,,['num_7'],10,0.0477628130466,1,['num_7'],0,[2.1460010511800647],,2018_May_19_1615,59.9018716747,sequenceLearningTask,001,102,
min1.png,min2.png,min3.png,min4.png,allBlank.png,,,,['num_1'],,,,,,0,9,9,9,,,,,,,,,['num_1'],10,0.0513939878438,1,['num_1'],0,[1.9095545730087906],,2018_May_19_1615,59.9018716747,sequenceLearningTask,001,102,
min1.png,min2.png,min3.png,min4.png,allBlank.png,,,,['num_4'],,,,,,0,9,9,9,,,,,,,,,['num_4'],10,0.0497611693572,1,['num_4'],0,[1.9951680060476065],,2018_May_19_1615,59.9018716747,sequenceLearningTask,001,102,
min1.png,min2.png,min3.png,min4.png,allBlank.png,,,,['num_0'],,,,,,0,9,9,9,,,,,,,,,['num_0'],10,0.0565041354857,1,['num_0'],0,[1.3537439750507474],,2018_May_19_1615,59.9018716747,sequenceLearningTask,001,102,
min1.png,min2.png,min3.png,min4.png,allBlank.png,,,,['num_0'],,,,,,0,9,9,9,,,,,,,,,['num_0'],10,0.059787413571,1,['num_0'],0,[3.3010129628237337],,2018_May_19_1615,59.9018716747,sequenceLearningTask,001,102,
min1.png,min2.png,min3.png,min4.png,allBlank.png,,,,['num_4'],,,,,,0,9,9,9,,,,,,,,,['num_4'],10,0.0605693613179,1,['num_4'],0,[2.981736637884751],,2018_May_19_1615,59.9018716747,sequenceLearningTask,001,102,
min1.png,min2.png,min3.png,min4.png,allBlank.png,,,,['num_1'],,,,,,0,9,9,9,,,,,,,,,['num_1'],10,0.0536540877074,1,['num_1'],0,[1.6914863283745944],,2018_May_19_1615,59.9018716747,sequenceLearningTask,001,102,
min1.png,min2.png,min3.png,min4.png,allBlank.png,,,,['num_0'],,,,,,0,9,9,9,,,,,,,,,['num_0'],10,0.0550432142336,1,['num_0'],0,[1.539775745710358],,2018_May_19_1615,59.9018716747,sequenceLearningTask,001,102,
min1.png,min2.png,min3.png,min4.png,allBlank.png,,,,,,,,,,0,9,9,9,,,,,0,-1,-1,0,,,,,,,,,2018_May_19_1615,59.9018716747,sequenceLearningTask,001,102,
