pawPatrol1,pawPatrol2,pawPatrol3,pawPatrol4,blank,randomPaw,correctKeyPress,allowableKey,correctKey,correctKeyPressNum,trials.thisRepN,trials.thisTrialN,trials.thisN,trials.thisIndex,trials_3.thisRepN,trials_3.thisTrialN,trials_3.thisN,trials_3.thisIndex,trials_2.thisRepN,trials_2.thisTrialN,trials_2.thisN,trials_2.thisIndex,trials_questions.thisRepN,trials_questions.thisTrialN,trials_questions.thisN,trials_questions.thisIndex,trials_test.thisRepN,trials_test.thisTrialN,trials_test.thisN,trials_test.thisIndex,trials_recogtest.thisRepN,trials_recogtest.thisTrialN,trials_recogtest.thisN,trials_recogtest.thisIndex,correctKey,repetitionNumber,stimulusPresent.t,trialCorrect,key_resp_9.keys,key_resp_9.corr,key_resp_9.rt,keyRespCorrect,questionsResponses,AnswerFinished.keys,AnswerFinished.rt,RecordAnswer.keys,RecordAnswer.rt,recallResponse,recallResponseTime,date,frameRate,expName,session,participant,
min1.png,min2.png,min3.png,min4.png,allBlank.png,,,,['num_7'],,,,,,0,0,0,0,,,,,,,,,,,,,,,,,['num_7'],1,0.0533448205097,0,"['num_0', 'num_7']",0,"[0.0003396922256797552, 0.684035281999968]",,,,,,,,,2018_Jun_02_1817,59.8620777401,sequenceLearningTask,001,PA101,
min1.png,min2.png,min3.png,min4.png,allBlank.png,,,,['num_1'],,,,,,0,0,0,0,,,,,,,,,,,,,,,,,['num_1'],1,0.0551039999118,0,"['num_7', 'num_1']",0,"[0.0003532307455316186, 1.2393161025829613]",,,,,,,,,2018_Jun_02_1817,59.8620777401,sequenceLearningTask,001,PA101,
min1.png,min2.png,min3.png,min4.png,allBlank.png,,,,['num_4'],,,,,,0,0,0,0,,,,,,,,,,,,,,,,,['num_4'],1,0.0611770256655,1,['num_4'],0,[1.283651692327112],,,,,,,,,2018_Jun_02_1817,59.8620777401,sequenceLearningTask,001,PA101,
min1.png,min2.png,min3.png,min4.png,allBlank.png,,,,['num_0'],,,,,,0,0,0,0,,,,,,,,,,,,,,,,,['num_0'],1,0.0481119999895,1,['num_0'],0,[0.7136160000227392],,,,,,,,,2018_Jun_02_1817,59.8620777401,sequenceLearningTask,001,PA101,
min1.png,min2.png,min3.png,min4.png,allBlank.png,,,,['num_0'],,,,,,0,0,0,0,,,,,,,,,,,,,,,,,['num_0'],1,0.0498067692388,1,['num_0'],0,[0.5783675897400826],,,,,,,,,2018_Jun_02_1817,59.8620777401,sequenceLearningTask,001,PA101,
min1.png,min2.png,min3.png,min4.png,allBlank.png,,,,['num_4'],,,,,,0,0,0,0,,,,,,,,,,,,,,,,,['num_4'],1,0.0638445127988,1,['num_4'],0,[0.8955737436190248],,,,,,,,,2018_Jun_02_1817,59.8620777401,sequenceLearningTask,001,PA101,
min1.png,min2.png,min3.png,min4.png,allBlank.png,,,,['num_1'],,,,,,0,0,0,0,,,,,,,,,,,,,,,,,['num_1'],1,0.0504902563989,1,['num_1'],0,[0.595675487187691],,,,,,,,,2018_Jun_02_1817,59.8620777401,sequenceLearningTask,001,PA101,
min1.png,min2.png,min3.png,min4.png,allBlank.png,,,,['num_0'],,,,,,0,0,0,0,,,,,,,,,,,,,,,,,['num_0'],1,0.0645382564981,1,['num_0'],0,[0.4624996923375875],,,,,,,,,2018_Jun_02_1817,59.8620777401,sequenceLearningTask,001,PA101,
min1.png,min2.png,min3.png,min4.png,allBlank.png,,,,['num_7'],,,,,,0,1,1,1,,,,,,,,,,,,,,,,,['num_7'],2,0.0558063589269,1,['num_7'],0,[7.920527999987826],,,,,,,,,2018_Jun_02_1817,59.8620777401,sequenceLearningTask,001,PA101,
min1.png,min2.png,min3.png,min4.png,allBlank.png,,,,['num_1'],,,,,,0,1,1,1,,,,,,,,,,,,,,,,,['num_1'],2,0.0543027692474,1,['num_1'],0,[0.9731798974098638],,,,,,,,,2018_Jun_02_1817,59.8620777401,sequenceLearningTask,001,PA101,
min1.png,min2.png,min3.png,min4.png,allBlank.png,,,,['num_4'],,,,,,0,1,1,1,,,,,,,,,,,,,,,,,['num_4'],2,0.0528496409534,1,['num_4'],0,[1.1580504614394158],,,,,,,,,2018_Jun_02_1817,59.8620777401,sequenceLearningTask,001,PA101,
min1.png,min2.png,min3.png,min4.png,allBlank.png,,,,['num_0'],,,,,,0,1,1,1,,,,,,,,,,,,,,,,,['num_0'],2,0.0568947691936,1,['num_0'],0,[0.8067294359207153],,,,,,,,,2018_Jun_02_1817,59.8620777401,sequenceLearningTask,001,PA101,
min1.png,min2.png,min3.png,min4.png,allBlank.png,,,,['num_0'],,,,,,0,1,1,1,,,,,,,,,,,,,,,,,['num_0'],2,0.0488049230771,1,['num_0'],0,[0.6621050257235765],,,,,,,,,2018_Jun_02_1817,59.8620777401,sequenceLearningTask,001,PA101,
min1.png,min2.png,min3.png,min4.png,allBlank.png,,,,['num_4'],,,,,,0,1,1,1,,,,,,,,,,,,,,,,,['num_4'],2,0.0582375385566,1,['num_4'],0,[0.902225230820477],,,,,,,,,2018_Jun_02_1817,59.8620777401,sequenceLearningTask,001,PA101,
min1.png,min2.png,min3.png,min4.png,allBlank.png,,,,['num_1'],,,,,,0,1,1,1,,,,,,,,,,,,,,,,,['num_1'],2,0.0560676923487,0,"['num_7', 'num_1']",0,"[0.32242748711723834, 1.1565370255848393]",,,,,,,,,2018_Jun_02_1817,59.8620777401,sequenceLearningTask,001,PA101,
min1.png,min2.png,min3.png,min4.png,allBlank.png,,,,['num_0'],,,,,,0,1,1,1,,,,,,,,,,,,,,,,,['num_0'],2,0.0546412307303,1,['num_0'],0,[0.43908266664948314],,,,,,,,,2018_Jun_02_1817,59.8620777401,sequenceLearningTask,001,PA101,
min1.png,min2.png,min3.png,min4.png,allBlank.png,,,,['num_7'],,,,,,0,2,2,2,,,,,,,,,,,,,,,,,['num_7'],3,0.0474104614696,1,['num_7'],0,[0.7623696409864351],,,,,,,,,2018_Jun_02_1817,59.8620777401,sequenceLearningTask,001,PA101,
min1.png,min2.png,min3.png,min4.png,allBlank.png,,,,['num_1'],,,,,,0,2,2,2,,,,,,,,,,,,,,,,,['num_1'],3,0.0482982563553,1,['num_1'],0,[0.9807171281427145],,,,,,,,,2018_Jun_02_1817,59.8620777401,sequenceLearningTask,001,PA101,
min1.png,min2.png,min3.png,min4.png,allBlank.png,,,,['num_4'],,,,,,0,2,2,2,,,,,,,,,,,,,,,,,['num_4'],3,0.0633989743656,1,['num_4'],0,[1.0645587692270055],,,,,,,,,2018_Jun_02_1817,59.8620777401,sequenceLearningTask,001,PA101,
min1.png,min2.png,min3.png,min4.png,allBlank.png,,,,['num_0'],,,,,,0,2,2,2,,,,,,,,,,,,,,,,,['num_0'],3,0.0527015385451,1,['num_0'],0,[0.44054564111866057],,,,,,,,,2018_Jun_02_1817,59.8620777401,sequenceLearningTask,001,PA101,
min1.png,min2.png,min3.png,min4.png,allBlank.png,,,,['num_0'],,,,,,0,2,2,2,,,,,,,,,,,,,,,,,['num_0'],3,0.0582248204155,1,['num_0'],0,[0.5856676922412589],,,,,,,,,2018_Jun_02_1817,59.8620777401,sequenceLearningTask,001,PA101,
min1.png,min2.png,min3.png,min4.png,allBlank.png,,,,['num_4'],,,,,,0,2,2,2,,,,,,,,,,,,,,,,,['num_4'],3,0.0508734359173,1,['num_4'],0,[0.8295610257191584],,,,,,,,,2018_Jun_02_1817,59.8620777401,sequenceLearningTask,001,PA101,
min1.png,min2.png,min3.png,min4.png,allBlank.png,,,,['num_1'],,,,,,0,2,2,2,,,,,,,,,,,,,,,,,['num_1'],3,0.0580492308363,1,['num_1'],0,[0.9552693333243951],,,,,,,,,2018_Jun_02_1817,59.8620777401,sequenceLearningTask,001,PA101,
min1.png,min2.png,min3.png,min4.png,allBlank.png,,,,['num_0'],,,,,,0,2,2,2,,,,,,,,,,,,,,,,,['num_0'],3,0.0553944616113,1,['num_0'],0,[0.6552631795639172],,,,,,,,,2018_Jun_02_1817,59.8620777401,sequenceLearningTask,001,PA101,
min1.png,min2.png,min3.png,min4.png,allBlank.png,,,,['num_7'],,,,,,0,3,3,3,,,,,,,,,,,,,,,,,['num_7'],4,0.0550178460544,1,['num_7'],0,[0.7899220512481406],,,,,,,,,2018_Jun_02_1817,59.8620777401,sequenceLearningTask,001,PA101,
min1.png,min2.png,min3.png,min4.png,allBlank.png,,,,['num_1'],,,,,,0,3,3,3,,,,,,,,,,,,,,,,,['num_1'],4,0.0555757948896,1,['num_1'],0,[0.8736627692123875],,,,,,,,,2018_Jun_02_1817,59.8620777401,sequenceLearningTask,001,PA101,
min1.png,min2.png,min3.png,min4.png,allBlank.png,,,,['num_4'],,,,,,0,3,3,3,,,,,,,,,,,,,,,,,['num_4'],4,0.0562838974874,1,['num_4'],0,[0.6378642050549388],,,,,,,,,2018_Jun_02_1817,59.8620777401,sequenceLearningTask,001,PA101,
min1.png,min2.png,min3.png,min4.png,allBlank.png,,,,['num_0'],,,,,,0,3,3,3,,,,,,,,,,,,,,,,,['num_0'],4,0.0536582563072,1,['num_0'],0,[0.5744045128813013],,,,,,,,,2018_Jun_02_1817,59.8620777401,sequenceLearningTask,001,PA101,
min1.png,min2.png,min3.png,min4.png,allBlank.png,,,,['num_0'],,,,,,0,3,3,3,,,,,,,,,,,,,,,,,['num_0'],4,0.0564685128629,1,['num_0'],0,[0.47209230763837695],,,,,,,,,2018_Jun_02_1817,59.8620777401,sequenceLearningTask,001,PA101,
min1.png,min2.png,min3.png,min4.png,allBlank.png,,,,['num_4'],,,,,,0,3,3,3,,,,,,,,,,,,,,,,,['num_4'],4,0.0625181538053,1,['num_4'],0,[1.199208205100149],,,,,,,,,2018_Jun_02_1817,59.8620777401,sequenceLearningTask,001,PA101,
min1.png,min2.png,min3.png,min4.png,allBlank.png,,,,['num_1'],,,,,,0,3,3,3,,,,,,,,,,,,,,,,,['num_1'],4,0.050862358883,1,['num_1'],0,[1.1449078974546865],,,,,,,,,2018_Jun_02_1817,59.8620777401,sequenceLearningTask,001,PA101,
min1.png,min2.png,min3.png,min4.png,allBlank.png,,,,['num_0'],,,,,,0,3,3,3,,,,,,,,,,,,,,,,,['num_0'],4,0.0528032820439,1,['num_0'],0,[1.1584090256365016],,,,,,,,,2018_Jun_02_1817,59.8620777401,sequenceLearningTask,001,PA101,
min1.png,min2.png,min3.png,min4.png,allBlank.png,,,,['num_7'],,,,,,0,4,4,4,,,,,,,,,,,,,,,,,['num_7'],5,0.0617042051163,1,['num_7'],0,[0.9807191794971004],,,,,,,,,2018_Jun_02_1817,59.8620777401,sequenceLearningTask,001,PA101,
min1.png,min2.png,min3.png,min4.png,allBlank.png,,,,['num_1'],,,,,,0,4,4,4,,,,,,,,,,,,,,,,,['num_1'],5,0.0487532307161,1,['num_1'],0,[1.0125033846125007],,,,,,,,,2018_Jun_02_1817,59.8620777401,sequenceLearningTask,001,PA101,
min1.png,min2.png,min3.png,min4.png,allBlank.png,,,,['num_4'],,,,,,0,4,4,4,,,,,,,,,,,,,,,,,['num_4'],5,0.058341743541,1,['num_4'],0,[0.8695663589751348],,,,,,,,,2018_Jun_02_1817,59.8620777401,sequenceLearningTask,001,PA101,
min1.png,min2.png,min3.png,min4.png,allBlank.png,,,,['num_0'],,,,,,0,4,4,4,,,,,,,,,,,,,,,,,['num_0'],5,0.0524545640219,1,['num_0'],0,[0.8764771281275898],,,,,,,,,2018_Jun_02_1817,59.8620777401,sequenceLearningTask,001,PA101,
min1.png,min2.png,min3.png,min4.png,allBlank.png,,,,['num_0'],,,,,,0,4,4,4,,,,,,,,,,,,,,,,,['num_0'],5,0.0577165128198,1,['num_0'],0,[0.8697723076911643],,,,,,,,,2018_Jun_02_1817,59.8620777401,sequenceLearningTask,001,PA101,
min1.png,min2.png,min3.png,min4.png,allBlank.png,,,,['num_4'],,,,,,0,4,4,4,,,,,,,,,,,,,,,,,['num_4'],5,0.0568681025179,1,['num_4'],0,[1.2532758974703029],,,,,,,,,2018_Jun_02_1817,59.8620777401,sequenceLearningTask,001,PA101,
min1.png,min2.png,min3.png,min4.png,allBlank.png,,,,['num_1'],,,,,,0,4,4,4,,,,,,,,,,,,,,,,,['num_1'],5,0.0489772307919,1,['num_1'],0,[0.8288557948544621],,,,,,,,,2018_Jun_02_1817,59.8620777401,sequenceLearningTask,001,PA101,
min1.png,min2.png,min3.png,min4.png,allBlank.png,,,,['num_0'],,,,,,0,4,4,4,,,,,,,,,,,,,,,,,['num_0'],5,0.0591844102601,1,['num_0'],0,[1.1848562051309273],,,,,,,,,2018_Jun_02_1817,59.8620777401,sequenceLearningTask,001,PA101,
min1.png,min2.png,min3.png,min4.png,allBlank.png,,,,['num_7'],,,,,,0,5,5,5,,,,,,,,,,,,,,,,,['num_7'],6,0.0567573333392,1,['num_7'],0,[0.8672960000112653],,,,,,,,,2018_Jun_02_1817,59.8620777401,sequenceLearningTask,001,PA101,
min1.png,min2.png,min3.png,min4.png,allBlank.png,,,,['num_1'],,,,,,0,5,5,5,,,,,,,,,,,,,,,,,['num_1'],6,0.0579634871101,1,['num_1'],0,[0.9865078973816708],,,,,,,,,2018_Jun_02_1817,59.8620777401,sequenceLearningTask,001,PA101,
min1.png,min2.png,min3.png,min4.png,allBlank.png,,,,['num_4'],,,,,,0,5,5,5,,,,,,,,,,,,,,,,,['num_4'],6,0.0586691282224,1,['num_4'],0,[1.4847458462463692],,,,,,,,,2018_Jun_02_1817,59.8620777401,sequenceLearningTask,001,PA101,
min1.png,min2.png,min3.png,min4.png,allBlank.png,,,,['num_0'],,,,,,0,5,5,5,,,,,,,,,,,,,,,,,['num_0'],6,0.0613390769577,1,['num_0'],0,[0.966368000023067],,,,,,,,,2018_Jun_02_1817,59.8620777401,sequenceLearningTask,001,PA101,
min1.png,min2.png,min3.png,min4.png,allBlank.png,,,,['num_0'],,,,,,0,5,5,5,,,,,,,,,,,,,,,,,['num_0'],6,0.0564726154553,1,['num_0'],0,[0.7881977435899898],,,,,,,,,2018_Jun_02_1817,59.8620777401,sequenceLearningTask,001,PA101,
min1.png,min2.png,min3.png,min4.png,allBlank.png,,,,['num_4'],,,,,,0,5,5,5,,,,,,,,,,,,,,,,,['num_4'],6,0.0502806153381,1,['num_4'],0,[1.0787364102434367],,,,,,,,,2018_Jun_02_1817,59.8620777401,sequenceLearningTask,001,PA101,
min1.png,min2.png,min3.png,min4.png,allBlank.png,,,,['num_1'],,,,,,0,5,5,5,,,,,,,,,,,,,,,,,['num_1'],6,0.0585144616198,1,['num_1'],0,[0.7525300512788817],,,,,,,,,2018_Jun_02_1817,59.8620777401,sequenceLearningTask,001,PA101,
min1.png,min2.png,min3.png,min4.png,allBlank.png,,,,['num_0'],,,,,,0,5,5,5,,,,,,,,,,,,,,,,,['num_0'],6,0.0472406153567,1,['num_0'],0,[0.7982880000490695],,,,,,,,,2018_Jun_02_1817,59.8620777401,sequenceLearningTask,001,PA101,
min1.png,min2.png,min3.png,min4.png,allBlank.png,,,,['num_7'],,,,,,0,6,6,6,,,,,,,,,,,,,,,,,['num_7'],7,0.0519011281431,1,['num_7'],0,[0.9083499487023801],,,,,,,,,2018_Jun_02_1817,59.8620777401,sequenceLearningTask,001,PA101,
min1.png,min2.png,min3.png,min4.png,allBlank.png,,,,['num_1'],,,,,,0,6,6,6,,,,,,,,,,,,,,,,,['num_1'],7,0.0539294359041,0,"['num_4', 'num_1']",0,"[1.0402884101495147, 1.8417423588689417]",,,,,,,,,2018_Jun_02_1817,59.8620777401,sequenceLearningTask,001,PA101,
min1.png,min2.png,min3.png,min4.png,allBlank.png,,,,['num_4'],,,,,,0,6,6,6,,,,,,,,,,,,,,,,,['num_4'],7,0.036749948631,1,['num_4'],0,[1.2093189742881805],,,,,,,,,2018_Jun_02_1817,59.8620777401,sequenceLearningTask,001,PA101,
min1.png,min2.png,min3.png,min4.png,allBlank.png,,,,['num_0'],,,,,,0,6,6,6,,,,,,,,,,,,,,,,,['num_0'],7,0.055874461541,1,['num_0'],0,[0.48874871793668717],,,,,,,,,2018_Jun_02_1817,59.8620777401,sequenceLearningTask,001,PA101,
min1.png,min2.png,min3.png,min4.png,allBlank.png,,,,['num_0'],,,,,,0,6,6,6,,,,,,,,,,,,,,,,,['num_0'],7,0.05720779486,1,['num_0'],0,[1.0874030769336969],,,,,,,,,2018_Jun_02_1817,59.8620777401,sequenceLearningTask,001,PA101,
min1.png,min2.png,min3.png,min4.png,allBlank.png,,,,['num_4'],,,,,,0,6,6,6,,,,,,,,,,,,,,,,,['num_4'],7,0.0534145641141,1,['num_4'],0,[1.4418469744268805],,,,,,,,,2018_Jun_02_1817,59.8620777401,sequenceLearningTask,001,PA101,
min1.png,min2.png,min3.png,min4.png,allBlank.png,,,,['num_1'],,,,,,0,6,6,6,,,,,,,,,,,,,,,,,['num_1'],7,0.0652615384897,1,['num_1'],0,[0.8289050256134942],,,,,,,,,2018_Jun_02_1817,59.8620777401,sequenceLearningTask,001,PA101,
min1.png,min2.png,min3.png,min4.png,allBlank.png,,,,['num_0'],,,,,,0,6,6,6,,,,,,,,,,,,,,,,,['num_0'],7,0.0532073845388,1,['num_0'],0,[0.8593624614877626],,,,,,,,,2018_Jun_02_1817,59.8620777401,sequenceLearningTask,001,PA101,
min1.png,min2.png,min3.png,min4.png,allBlank.png,,,,['num_7'],,,,,,0,7,7,7,,,,,,,,,,,,,,,,,['num_7'],8,0.0623757948633,1,['num_7'],0,[1.0972750768996775],,,,,,,,,2018_Jun_02_1817,59.8620777401,sequenceLearningTask,001,PA101,
min1.png,min2.png,min3.png,min4.png,allBlank.png,,,,['num_1'],,,,,,0,7,7,7,,,,,,,,,,,,,,,,,['num_1'],8,0.0541993845254,0,"['num_4', 'num_1']",0,"[1.5734416410559788, 2.2739019487053156]",,,,,,,,,2018_Jun_02_1817,59.8620777401,sequenceLearningTask,001,PA101,
min1.png,min2.png,min3.png,min4.png,allBlank.png,,,,['num_4'],,,,,,0,7,7,7,,,,,,,,,,,,,,,,,['num_4'],8,0.0528196922969,1,['num_4'],0,[0.7933189743198454],,,,,,,,,2018_Jun_02_1817,59.8620777401,sequenceLearningTask,001,PA101,
min1.png,min2.png,min3.png,min4.png,allBlank.png,,,,['num_0'],,,,,,0,7,7,7,,,,,,,,,,,,,,,,,['num_0'],8,0.0574514871696,1,['num_0'],0,[0.6867372307460755],,,,,,,,,2018_Jun_02_1817,59.8620777401,sequenceLearningTask,001,PA101,
min1.png,min2.png,min3.png,min4.png,allBlank.png,,,,['num_0'],,,,,,0,7,7,7,,,,,,,,,,,,,,,,,['num_0'],8,0.0489825640107,1,['num_0'],0,[0.4622244102647528],,,,,,,,,2018_Jun_02_1817,59.8620777401,sequenceLearningTask,001,PA101,
min1.png,min2.png,min3.png,min4.png,allBlank.png,,,,['num_4'],,,,,,0,7,7,7,,,,,,,,,,,,,,,,,['num_4'],8,0.0507532308111,1,['num_4'],0,[0.7939909743145108],,,,,,,,,2018_Jun_02_1817,59.8620777401,sequenceLearningTask,001,PA101,
min1.png,min2.png,min3.png,min4.png,allBlank.png,,,,['num_1'],,,,,,0,7,7,7,,,,,,,,,,,,,,,,,['num_1'],8,0.0572032820201,1,['num_1'],0,[4.038948102504946],,,,,,,,,2018_Jun_02_1817,59.8620777401,sequenceLearningTask,001,PA101,
min1.png,min2.png,min3.png,min4.png,allBlank.png,,,,['num_0'],,,,,,0,7,7,7,,,,,,,,,,,,,,,,,['num_0'],8,0.0502157949377,1,['num_0'],0,[0.3609259487129748],,,,,,,,,2018_Jun_02_1817,59.8620777401,sequenceLearningTask,001,PA101,
min1.png,min2.png,min3.png,min4.png,allBlank.png,,,,['num_7'],,,,,,0,8,8,8,,,,,,,,,,,,,,,,,['num_7'],9,0.0613349743653,1,['num_7'],0,[0.9158637949731201],,,,,,,,,2018_Jun_02_1817,59.8620777401,sequenceLearningTask,001,PA101,
min1.png,min2.png,min3.png,min4.png,allBlank.png,,,,['num_1'],,,,,,0,8,8,8,,,,,,,,,,,,,,,,,['num_1'],9,0.0490342563717,1,['num_1'],0,[1.1124717948259786],,,,,,,,,2018_Jun_02_1817,59.8620777401,sequenceLearningTask,001,PA101,
min1.png,min2.png,min3.png,min4.png,allBlank.png,,,,['num_4'],,,,,,0,8,8,8,,,,,,,,,,,,,,,,,['num_4'],9,0.0577583590057,1,['num_4'],0,[0.688129230751656],,,,,,,,,2018_Jun_02_1817,59.8620777401,sequenceLearningTask,001,PA101,
min1.png,min2.png,min3.png,min4.png,allBlank.png,,,,['num_0'],,,,,,0,8,8,8,,,,,,,,,,,,,,,,,['num_0'],9,0.0621772308368,1,['num_0'],0,[0.6485940513666719],,,,,,,,,2018_Jun_02_1817,59.8620777401,sequenceLearningTask,001,PA101,
min1.png,min2.png,min3.png,min4.png,allBlank.png,,,,['num_0'],,,,,,0,8,8,8,,,,,,,,,,,,,,,,,['num_0'],9,0.0536369230831,1,['num_0'],0,[0.47430892300326377],,,,,,,,,2018_Jun_02_1817,59.8620777401,sequenceLearningTask,001,PA101,
min1.png,min2.png,min3.png,min4.png,allBlank.png,,,,['num_4'],,,,,,0,8,8,8,,,,,,,,,,,,,,,,,['num_4'],9,0.0487171281129,1,['num_4'],0,[0.8629238974535838],,,,,,,,,2018_Jun_02_1817,59.8620777401,sequenceLearningTask,001,PA101,
min1.png,min2.png,min3.png,min4.png,allBlank.png,,,,['num_1'],,,,,,0,8,8,8,,,,,,,,,,,,,,,,,['num_1'],9,0.0657989743631,1,['num_1'],0,[0.8793321024859324],,,,,,,,,2018_Jun_02_1817,59.8620777401,sequenceLearningTask,001,PA101,
min1.png,min2.png,min3.png,min4.png,allBlank.png,,,,['num_0'],,,,,,0,8,8,8,,,,,,,,,,,,,,,,,['num_0'],9,0.0571163076675,1,['num_0'],0,[0.4043454359052703],,,,,,,,,2018_Jun_02_1817,59.8620777401,sequenceLearningTask,001,PA101,
min1.png,min2.png,min3.png,min4.png,allBlank.png,,,,['num_7'],,,,,,0,9,9,9,,,,,,,,,,,,,,,,,['num_7'],10,0.0496709743747,1,['num_7'],0,[0.7620590769220144],,,,,,,,,2018_Jun_02_1817,59.8620777401,sequenceLearningTask,001,PA101,
min1.png,min2.png,min3.png,min4.png,allBlank.png,,,,['num_1'],,,,,,0,9,9,9,,,,,,,,,,,,,,,,,['num_1'],10,0.0566026666202,1,['num_1'],0,[0.8549214359372854],,,,,,,,,2018_Jun_02_1817,59.8620777401,sequenceLearningTask,001,PA101,
min1.png,min2.png,min3.png,min4.png,allBlank.png,,,,['num_4'],,,,,,0,9,9,9,,,,,,,,,,,,,,,,,['num_4'],10,0.0535721025662,1,['num_4'],0,[0.6074925127904862],,,,,,,,,2018_Jun_02_1817,59.8620777401,sequenceLearningTask,001,PA101,
min1.png,min2.png,min3.png,min4.png,allBlank.png,,,,['num_0'],,,,,,0,9,9,9,,,,,,,,,,,,,,,,,['num_0'],10,0.05755856412,1,['num_0'],0,[0.4856660512741655],,,,,,,,,2018_Jun_02_1817,59.8620777401,sequenceLearningTask,001,PA101,
min1.png,min2.png,min3.png,min4.png,allBlank.png,,,,['num_0'],,,,,,0,9,9,9,,,,,,,,,,,,,,,,,['num_0'],10,0.0559704615735,1,['num_0'],0,[0.6199511796003208],,,,,,,,,2018_Jun_02_1817,59.8620777401,sequenceLearningTask,001,PA101,
min1.png,min2.png,min3.png,min4.png,allBlank.png,,,,['num_4'],,,,,,0,9,9,9,,,,,,,,,,,,,,,,,['num_4'],10,0.0509456411237,1,['num_4'],0,[0.9608849229989573],,,,,,,,,2018_Jun_02_1817,59.8620777401,sequenceLearningTask,001,PA101,
min1.png,min2.png,min3.png,min4.png,allBlank.png,,,,['num_1'],,,,,,0,9,9,9,,,,,,,,,,,,,,,,,['num_1'],10,0.0557087180205,1,['num_1'],0,[0.6885944615351036],,,,,,,,,2018_Jun_02_1817,59.8620777401,sequenceLearningTask,001,PA101,
min1.png,min2.png,min3.png,min4.png,allBlank.png,,,,['num_0'],,,,,,0,9,9,9,,,,,,,,,,,,,,,,,['num_0'],10,0.0580348717049,1,['num_0'],0,[0.486093538464047],,,,,,,,,2018_Jun_02_1817,59.8620777401,sequenceLearningTask,001,PA101,
min1.png,min2.png,min3.png,min4.png,allBlank.png,,,,['num_7'],,,,,,0,0,0,0,,,,,,,,,,,,,,,,,['num_7'],1,0.0479212307837,1,['num_7'],0,[0.8159060513135046],,,,,,,,,2018_Jun_02_1817,59.8620777401,sequenceLearningTask,001,PA101,
min1.png,min2.png,min3.png,min4.png,allBlank.png,,,,['num_1'],,,,,,0,0,0,0,,,,,,,,,,,,,,,,,['num_1'],1,0.0559503589757,1,['num_1'],0,[0.9873185640899464],,,,,,,,,2018_Jun_02_1817,59.8620777401,sequenceLearningTask,001,PA101,
min1.png,min2.png,min3.png,min4.png,allBlank.png,,,,['num_4'],,,,,,0,0,0,0,,,,,,,,,,,,,,,,,['num_4'],1,0.0558609231375,1,['num_4'],0,[0.8049403076292947],,,,,,,,,2018_Jun_02_1817,59.8620777401,sequenceLearningTask,001,PA101,
min1.png,min2.png,min3.png,min4.png,allBlank.png,,,,['num_0'],,,,,,0,0,0,0,,,,,,,,,,,,,,,,,['num_0'],1,0.057518769172,1,['num_0'],0,[0.5870116922305897],,,,,,,,,2018_Jun_02_1817,59.8620777401,sequenceLearningTask,001,PA101,
min1.png,min2.png,min3.png,min4.png,allBlank.png,,,,['num_0'],,,,,,0,0,0,0,,,,,,,,,,,,,,,,,['num_0'],1,0.0567552819848,1,['num_0'],0,[0.637181538506411],,,,,,,,,2018_Jun_02_1817,59.8620777401,sequenceLearningTask,001,PA101,
min1.png,min2.png,min3.png,min4.png,allBlank.png,,,,['num_4'],,,,,,0,0,0,0,,,,,,,,,,,,,,,,,['num_4'],1,0.0666260513244,1,['num_4'],0,[1.0260471794754267],,,,,,,,,2018_Jun_02_1817,59.8620777401,sequenceLearningTask,001,PA101,
min1.png,min2.png,min3.png,min4.png,allBlank.png,,,,['num_1'],,,,,,0,0,0,0,,,,,,,,,,,,,,,,,['num_1'],1,0.055961025646,1,['num_1'],0,[0.4543540512677282],,,,,,,,,2018_Jun_02_1817,59.8620777401,sequenceLearningTask,001,PA101,
min1.png,min2.png,min3.png,min4.png,allBlank.png,,,,['num_0'],,,,,,0,0,0,0,,,,,,,,,,,,,,,,,['num_0'],1,0.056566974381,1,['num_0'],0,[0.4872578461654484],,,,,,,,,2018_Jun_02_1817,59.8620777401,sequenceLearningTask,001,PA101,
min1.png,min2.png,min3.png,min4.png,allBlank.png,,,,['num_7'],,,,,,0,1,1,1,,,,,,,,,,,,,,,,,['num_7'],2,0.0574096411001,0,"['num_4', 'num_7']",0,"[0.750742974341847, 1.018749128212221]",,,,,,,,,2018_Jun_02_1817,59.8620777401,sequenceLearningTask,001,PA101,
min1.png,min2.png,min3.png,min4.png,allBlank.png,,,,['num_1'],,,,,,0,1,1,1,,,,,,,,,,,,,,,,,['num_1'],2,0.0510802051285,1,['num_1'],0,[0.8272758974926546],,,,,,,,,2018_Jun_02_1817,59.8620777401,sequenceLearningTask,001,PA101,
min1.png,min2.png,min3.png,min4.png,allBlank.png,,,,['num_4'],,,,,,0,1,1,1,,,,,,,,,,,,,,,,,['num_4'],2,0.062542769243,1,['num_4'],0,[1.2821156922727823],,,,,,,,,2018_Jun_02_1817,59.8620777401,sequenceLearningTask,001,PA101,
min1.png,min2.png,min3.png,min4.png,allBlank.png,,,,['num_0'],,,,,,0,1,1,1,,,,,,,,,,,,,,,,,['num_0'],2,0.0566703589866,1,['num_0'],0,[0.6037485128035769],,,,,,,,,2018_Jun_02_1817,59.8620777401,sequenceLearningTask,001,PA101,
min1.png,min2.png,min3.png,min4.png,allBlank.png,,,,['num_0'],,,,,,0,1,1,1,,,,,,,,,,,,,,,,,['num_0'],2,0.0550830769353,0,"['num_0', 'num_0']",0,"[0.00029415381141006947, 0.623378871823661]",,,,,,,,,2018_Jun_02_1817,59.8620777401,sequenceLearningTask,001,PA101,
min1.png,min2.png,min3.png,min4.png,allBlank.png,,,,['num_4'],,,,,,0,1,1,1,,,,,,,,,,,,,,,,,['num_4'],2,0.0563848204911,1,['num_4'],0,[1.188057025661692],,,,,,,,,2018_Jun_02_1817,59.8620777401,sequenceLearningTask,001,PA101,
min1.png,min2.png,min3.png,min4.png,allBlank.png,,,,['num_1'],,,,,,0,1,1,1,,,,,,,,,,,,,,,,,['num_1'],2,0.0562789742835,1,['num_1'],0,[0.9052139486884698],,,,,,,,,2018_Jun_02_1817,59.8620777401,sequenceLearningTask,001,PA101,
min1.png,min2.png,min3.png,min4.png,allBlank.png,,,,['num_0'],,,,,,0,1,1,1,,,,,,,,,,,,,,,,,['num_0'],2,0.0504836922046,1,['num_0'],0,[0.4938219487667084],,,,,,,,,2018_Jun_02_1817,59.8620777401,sequenceLearningTask,001,PA101,
min1.png,min2.png,min3.png,min4.png,allBlank.png,,,,['num_7'],,,,,,0,2,2,2,,,,,,,,,,,,,,,,,['num_7'],3,0.0510699488223,1,['num_7'],0,[0.8744147692341357],,,,,,,,,2018_Jun_02_1817,59.8620777401,sequenceLearningTask,001,PA101,
min1.png,min2.png,min3.png,min4.png,allBlank.png,,,,['num_1'],,,,,,0,2,2,2,,,,,,,,,,,,,,,,,['num_1'],3,0.0552660513204,1,['num_1'],0,[1.0391495383810252],,,,,,,,,2018_Jun_02_1817,59.8620777401,sequenceLearningTask,001,PA101,
min1.png,min2.png,min3.png,min4.png,allBlank.png,,,,['num_4'],,,,,,0,2,2,2,,,,,,,,,,,,,,,,,['num_4'],3,0.056183384615,1,['num_4'],0,[4.138635487179272],,,,,,,,,2018_Jun_02_1817,59.8620777401,sequenceLearningTask,001,PA101,
min1.png,min2.png,min3.png,min4.png,allBlank.png,,,,['num_0'],,,,,,0,2,2,2,,,,,,,,,,,,,,,,,['num_0'],3,0.055780922994,1,['num_0'],0,[0.771545025636442],,,,,,,,,2018_Jun_02_1817,59.8620777401,sequenceLearningTask,001,PA101,
min1.png,min2.png,min3.png,min4.png,allBlank.png,,,,['num_0'],,,,,,0,2,2,2,,,,,,,,,,,,,,,,,['num_0'],3,0.0595064614899,1,['num_0'],0,[0.7679220512509346],,,,,,,,,2018_Jun_02_1817,59.8620777401,sequenceLearningTask,001,PA101,
min1.png,min2.png,min3.png,min4.png,allBlank.png,,,,['num_4'],,,,,,0,2,2,2,,,,,,,,,,,,,,,,,['num_4'],3,0.0591733333422,1,['num_4'],0,[1.168956307694316],,,,,,,,,2018_Jun_02_1817,59.8620777401,sequenceLearningTask,001,PA101,
min1.png,min2.png,min3.png,min4.png,allBlank.png,,,,['num_1'],,,,,,0,2,2,2,,,,,,,,,,,,,,,,,['num_1'],3,0.0495798974298,1,['num_1'],0,[0.9446826666826382],,,,,,,,,2018_Jun_02_1817,59.8620777401,sequenceLearningTask,001,PA101,
min1.png,min2.png,min3.png,min4.png,allBlank.png,,,,['num_0'],,,,,,0,2,2,2,,,,,,,,,,,,,,,,,['num_0'],3,0.0515388718341,1,['num_0'],0,[0.5089801024878398],,,,,,,,,2018_Jun_02_1817,59.8620777401,sequenceLearningTask,001,PA101,
min1.png,min2.png,min3.png,min4.png,allBlank.png,,,,['num_7'],,,,,,0,3,3,3,,,,,,,,,,,,,,,,,['num_7'],4,0.0572902563727,1,['num_7'],0,[1.1176233845762908],,,,,,,,,2018_Jun_02_1817,59.8620777401,sequenceLearningTask,001,PA101,
min1.png,min2.png,min3.png,min4.png,allBlank.png,,,,['num_1'],,,,,,0,3,3,3,,,,,,,,,,,,,,,,,['num_1'],4,0.0468196923612,1,['num_1'],0,[0.8987499487120658],,,,,,,,,2018_Jun_02_1817,59.8620777401,sequenceLearningTask,001,PA101,
min1.png,min2.png,min3.png,min4.png,allBlank.png,,,,['num_4'],,,,,,0,3,3,3,,,,,,,,,,,,,,,,,['num_4'],4,0.0559835897293,0,"['num_7', 'num_4']",0,"[0.8392935384763405, 1.2555474871769547]",,,,,,,,,2018_Jun_02_1817,59.8620777401,sequenceLearningTask,001,PA101,
min1.png,min2.png,min3.png,min4.png,allBlank.png,,,,['num_0'],,,,,,0,3,3,3,,,,,,,,,,,,,,,,,['num_0'],4,0.0490916923154,1,['num_0'],0,[0.8469415383879095],,,,,,,,,2018_Jun_02_1817,59.8620777401,sequenceLearningTask,001,PA101,
min1.png,min2.png,min3.png,min4.png,allBlank.png,,,,['num_0'],,,,,,0,3,3,3,,,,,,,,,,,,,,,,,['num_0'],4,0.0618921025889,1,['num_0'],0,[0.6485554871615022],,,,,,,,,2018_Jun_02_1817,59.8620777401,sequenceLearningTask,001,PA101,
min1.png,min2.png,min3.png,min4.png,allBlank.png,,,,['num_4'],,,,,,0,3,3,3,,,,,,,,,,,,,,,,,['num_4'],4,0.0570687180152,1,['num_4'],0,[0.9027651281794533],,,,,,,,,2018_Jun_02_1817,59.8620777401,sequenceLearningTask,001,PA101,
min1.png,min2.png,min3.png,min4.png,allBlank.png,,,,['num_1'],,,,,,0,3,3,3,,,,,,,,,,,,,,,,,['num_1'],4,0.0491540513467,1,['num_1'],0,[0.8959405127679929],,,,,,,,,2018_Jun_02_1817,59.8620777401,sequenceLearningTask,001,PA101,
min1.png,min2.png,min3.png,min4.png,allBlank.png,,,,['num_0'],,,,,,0,3,3,3,,,,,,,,,,,,,,,,,['num_0'],4,0.0588943589246,1,['num_0'],0,[0.4841033846605569],,,,,,,,,2018_Jun_02_1817,59.8620777401,sequenceLearningTask,001,PA101,
min1.png,min2.png,min3.png,min4.png,allBlank.png,,,,['num_7'],,,,,,0,4,4,4,,,,,,,,,,,,,,,,,['num_7'],5,0.0564344616141,1,['num_7'],0,[0.7684816409600899],,,,,,,,,2018_Jun_02_1817,59.8620777401,sequenceLearningTask,001,PA101,
min1.png,min2.png,min3.png,min4.png,allBlank.png,,,,['num_1'],,,,,,0,4,4,4,,,,,,,,,,,,,,,,,['num_1'],5,0.0554543589242,1,['num_1'],0,[0.9057854359271005],,,,,,,,,2018_Jun_02_1817,59.8620777401,sequenceLearningTask,001,PA101,
min1.png,min2.png,min3.png,min4.png,allBlank.png,,,,['num_4'],,,,,,0,4,4,4,,,,,,,,,,,,,,,,,['num_4'],5,0.050312615349,1,['num_4'],0,[0.9762957949424163],,,,,,,,,2018_Jun_02_1817,59.8620777401,sequenceLearningTask,001,PA101,
min1.png,min2.png,min3.png,min4.png,allBlank.png,,,,['num_0'],,,,,,0,4,4,4,,,,,,,,,,,,,,,,,['num_0'],5,0.0517645127838,1,['num_0'],0,[0.6583573332754895],,,,,,,,,2018_Jun_02_1817,59.8620777401,sequenceLearningTask,001,PA101,
min1.png,min2.png,min3.png,min4.png,allBlank.png,,,,['num_0'],,,,,,0,4,4,4,,,,,,,,,,,,,,,,,['num_0'],5,0.0487286153948,1,['num_0'],0,[0.6280882051214576],,,,,,,,,2018_Jun_02_1817,59.8620777401,sequenceLearningTask,001,PA101,
min1.png,min2.png,min3.png,min4.png,allBlank.png,,,,['num_4'],,,,,,0,4,4,4,,,,,,,,,,,,,,,,,['num_4'],5,0.0548344615381,1,['num_4'],0,[1.3717341538285837],,,,,,,,,2018_Jun_02_1817,59.8620777401,sequenceLearningTask,001,PA101,
min1.png,min2.png,min3.png,min4.png,allBlank.png,,,,['num_1'],,,,,,0,4,4,4,,,,,,,,,,,,,,,,,['num_1'],5,0.0609497436089,1,['num_1'],0,[0.5648356922902167],,,,,,,,,2018_Jun_02_1817,59.8620777401,sequenceLearningTask,001,PA101,
min1.png,min2.png,min3.png,min4.png,allBlank.png,,,,['num_0'],,,,,,0,4,4,4,,,,,,,,,,,,,,,,,['num_0'],5,0.0623228718759,1,['num_0'],0,[0.6647064614808187],,,,,,,,,2018_Jun_02_1817,59.8620777401,sequenceLearningTask,001,PA101,
min1.png,min2.png,min3.png,min4.png,allBlank.png,,,,['num_7'],,,,,,0,5,5,5,,,,,,,,,,,,,,,,,['num_7'],6,0.0511171282269,1,['num_7'],0,[1.1576205127639696],,,,,,,,,2018_Jun_02_1817,59.8620777401,sequenceLearningTask,001,PA101,
min1.png,min2.png,min3.png,min4.png,allBlank.png,,,,['num_1'],,,,,,0,5,5,5,,,,,,,,,,,,,,,,,['num_1'],6,0.0492746667005,1,['num_1'],0,[0.9788820513058454],,,,,,,,,2018_Jun_02_1817,59.8620777401,sequenceLearningTask,001,PA101,
min1.png,min2.png,min3.png,min4.png,allBlank.png,,,,['num_4'],,,,,,0,5,5,5,,,,,,,,,,,,,,,,,['num_4'],6,0.0605530256871,1,['num_4'],0,[0.9664008205290884],,,,,,,,,2018_Jun_02_1817,59.8620777401,sequenceLearningTask,001,PA101,
min1.png,min2.png,min3.png,min4.png,allBlank.png,,,,['num_0'],,,,,,0,5,5,5,,,,,,,,,,,,,,,,,['num_0'],6,0.052254359005,1,['num_0'],0,[0.8258014358580112],,,,,,,,,2018_Jun_02_1817,59.8620777401,sequenceLearningTask,001,PA101,
min1.png,min2.png,min3.png,min4.png,allBlank.png,,,,['num_0'],,,,,,0,5,5,5,,,,,,,,,,,,,,,,,['num_0'],6,0.0582810256165,1,['num_0'],0,[0.735858051222749],,,,,,,,,2018_Jun_02_1817,59.8620777401,sequenceLearningTask,001,PA101,
min1.png,min2.png,min3.png,min4.png,allBlank.png,,,,['num_4'],,,,,,0,5,5,5,,,,,,,,,,,,,,,,,['num_4'],6,0.0574568205047,1,['num_4'],0,[1.1529813333181664],,,,,,,,,2018_Jun_02_1817,59.8620777401,sequenceLearningTask,001,PA101,
min1.png,min2.png,min3.png,min4.png,allBlank.png,,,,['num_1'],,,,,,0,5,5,5,,,,,,,,,,,,,,,,,['num_1'],6,0.0525915897451,1,['num_1'],0,[0.6425940513145179],,,,,,,,,2018_Jun_02_1817,59.8620777401,sequenceLearningTask,001,PA101,
min1.png,min2.png,min3.png,min4.png,allBlank.png,,,,['num_0'],,,,,,0,5,5,5,,,,,,,,,,,,,,,,,['num_0'],6,0.0573042050237,1,['num_0'],0,[0.3209817436290905],,,,,,,,,2018_Jun_02_1817,59.8620777401,sequenceLearningTask,001,PA101,
min1.png,min2.png,min3.png,min4.png,allBlank.png,,,,['num_7'],,,,,,0,6,6,6,,,,,,,,,,,,,,,,,['num_7'],7,0.0486203077016,0,"['num_4', 'num_4', 'num_7', 'num_4', 'num_7']",0,"[0.44430769223254174, 1.4614802050637081, 1.812968205078505, 2.1112475896952674]",,,,,,,,,2018_Jun_02_1817,59.8620777401,sequenceLearningTask,001,PA101,
min1.png,min2.png,min3.png,min4.png,allBlank.png,,,,['num_1'],,,,,,0,6,6,6,,,,,,,,,,,,,,,,,['num_1'],7,0.0494633846683,0,"['num_7', 'num_7', 'num_4', 'num_1']",0,"[0.00029579491820186377, 0.01032369234599173, 0.31233066669665277, 0.945491282036528]",,,,,,,,,2018_Jun_02_1817,59.8620777401,sequenceLearningTask,001,PA101,
min1.png,min2.png,min3.png,min4.png,allBlank.png,,,,['num_4'],,,,,,0,6,6,6,,,,,,,,,,,,,,,,,['num_4'],7,0.0506674872013,1,['num_4'],0,[0.9437825641361997],,,,,,,,,2018_Jun_02_1817,59.8620777401,sequenceLearningTask,001,PA101,
min1.png,min2.png,min3.png,min4.png,allBlank.png,,,,['num_0'],,,,,,0,6,6,6,,,,,,,,,,,,,,,,,['num_0'],7,0.0599917948712,1,['num_0'],0,[0.7170904615195468],,,,,,,,,2018_Jun_02_1817,59.8620777401,sequenceLearningTask,001,PA101,
min1.png,min2.png,min3.png,min4.png,allBlank.png,,,,['num_0'],,,,,,0,6,6,6,,,,,,,,,,,,,,,,,['num_0'],7,0.061148717883,1,['num_0'],0,[0.7001255385112017],,,,,,,,,2018_Jun_02_1817,59.8620777401,sequenceLearningTask,001,PA101,
min1.png,min2.png,min3.png,min4.png,allBlank.png,,,,['num_4'],,,,,,0,6,6,6,,,,,,,,,,,,,,,,,['num_4'],7,0.0639130256604,1,['num_4'],0,[0.8302260512718931],,,,,,,,,2018_Jun_02_1817,59.8620777401,sequenceLearningTask,001,PA101,
min1.png,min2.png,min3.png,min4.png,allBlank.png,,,,['num_1'],,,,,,0,6,6,6,,,,,,,,,,,,,,,,,['num_1'],7,0.0490564103238,1,['num_1'],0,[0.8295158974360675],,,,,,,,,2018_Jun_02_1817,59.8620777401,sequenceLearningTask,001,PA101,
min1.png,min2.png,min3.png,min4.png,allBlank.png,,,,['num_0'],,,,,,0,6,6,6,,,,,,,,,,,,,,,,,['num_0'],7,0.0566642051563,1,['num_0'],0,[0.8525669743539765],,,,,,,,,2018_Jun_02_1817,59.8620777401,sequenceLearningTask,001,PA101,
min1.png,min2.png,min3.png,min4.png,allBlank.png,,,,['num_7'],,,,,,0,7,7,7,,,,,,,,,,,,,,,,,['num_7'],8,0.0629390769172,1,['num_7'],0,[0.7966527178650722],,,,,,,,,2018_Jun_02_1817,59.8620777401,sequenceLearningTask,001,PA101,
min1.png,min2.png,min3.png,min4.png,allBlank.png,,,,['num_1'],,,,,,0,7,7,7,,,,,,,,,,,,,,,,,['num_1'],8,0.0515187692363,1,['num_1'],0,[1.0262400000356138],,,,,,,,,2018_Jun_02_1817,59.8620777401,sequenceLearningTask,001,PA101,
min1.png,min2.png,min3.png,min4.png,allBlank.png,,,,['num_4'],,,,,,0,7,7,7,,,,,,,,,,,,,,,,,['num_4'],8,0.0542732308386,1,['num_4'],0,[1.0067548718070611],,,,,,,,,2018_Jun_02_1817,59.8620777401,sequenceLearningTask,001,PA101,
min1.png,min2.png,min3.png,min4.png,allBlank.png,,,,['num_0'],,,,,,0,7,7,7,,,,,,,,,,,,,,,,,['num_0'],8,0.0550408205017,1,['num_0'],0,[1.0734510768670589],,,,,,,,,2018_Jun_02_1817,59.8620777401,sequenceLearningTask,001,PA101,
min1.png,min2.png,min3.png,min4.png,allBlank.png,,,,['num_0'],,,,,,0,7,7,7,,,,,,,,,,,,,,,,,['num_0'],8,0.057378871832,1,['num_0'],0,[0.6193989743478596],,,,,,,,,2018_Jun_02_1817,59.8620777401,sequenceLearningTask,001,PA101,
min1.png,min2.png,min3.png,min4.png,allBlank.png,,,,['num_4'],,,,,,0,7,7,7,,,,,,,,,,,,,,,,,['num_4'],8,0.0579831794603,1,['num_4'],0,[1.1704012308036909],,,,,,,,,2018_Jun_02_1817,59.8620777401,sequenceLearningTask,001,PA101,
min1.png,min2.png,min3.png,min4.png,allBlank.png,,,,['num_1'],,,,,,0,7,7,7,,,,,,,,,,,,,,,,,['num_1'],8,0.0570724102436,1,['num_1'],0,[0.9527872819453478],,,,,,,,,2018_Jun_02_1817,59.8620777401,sequenceLearningTask,001,PA101,
min1.png,min2.png,min3.png,min4.png,allBlank.png,,,,['num_0'],,,,,,0,7,7,7,,,,,,,,,,,,,,,,,['num_0'],8,0.0521509743994,1,['num_0'],0,[0.5588324102573097],,,,,,,,,2018_Jun_02_1817,59.8620777401,sequenceLearningTask,001,PA101,
min1.png,min2.png,min3.png,min4.png,allBlank.png,,,,['num_7'],,,,,,0,8,8,8,,,,,,,,,,,,,,,,,['num_7'],9,0.0553961026017,1,['num_7'],0,[0.9534256409388036],,,,,,,,,2018_Jun_02_1817,59.8620777401,sequenceLearningTask,001,PA101,
min1.png,min2.png,min3.png,min4.png,allBlank.png,,,,['num_1'],,,,,,0,8,8,8,,,,,,,,,,,,,,,,,['num_1'],9,0.0554432820063,1,['num_1'],0,[1.1727351795416325],,,,,,,,,2018_Jun_02_1817,59.8620777401,sequenceLearningTask,001,PA101,
min1.png,min2.png,min3.png,min4.png,allBlank.png,,,,['num_4'],,,,,,0,8,8,8,,,,,,,,,,,,,,,,,['num_4'],9,0.0582666667178,1,['num_4'],0,[1.0702281025005504],,,,,,,,,2018_Jun_02_1817,59.8620777401,sequenceLearningTask,001,PA101,
min1.png,min2.png,min3.png,min4.png,allBlank.png,,,,['num_0'],,,,,,0,8,8,8,,,,,,,,,,,,,,,,,['num_0'],9,0.0511040000711,1,['num_0'],0,[0.8103602051269263],,,,,,,,,2018_Jun_02_1817,59.8620777401,sequenceLearningTask,001,PA101,
min1.png,min2.png,min3.png,min4.png,allBlank.png,,,,['num_0'],,,,,,0,8,8,8,,,,,,,,,,,,,,,,,['num_0'],9,0.0538888205774,1,['num_0'],0,[0.9072118974290788],,,,,,,,,2018_Jun_02_1817,59.8620777401,sequenceLearningTask,001,PA101,
min1.png,min2.png,min3.png,min4.png,allBlank.png,,,,['num_4'],,,,,,0,8,8,8,,,,,,,,,,,,,,,,,['num_4'],9,0.0497509744018,1,['num_4'],0,[1.060708102537319],,,,,,,,,2018_Jun_02_1817,59.8620777401,sequenceLearningTask,001,PA101,
min1.png,min2.png,min3.png,min4.png,allBlank.png,,,,['num_1'],,,,,,0,8,8,8,,,,,,,,,,,,,,,,,['num_1'],9,0.0533903589239,1,['num_1'],0,[0.8586363077629358],,,,,,,,,2018_Jun_02_1817,59.8620777401,sequenceLearningTask,001,PA101,
min1.png,min2.png,min3.png,min4.png,allBlank.png,,,,['num_0'],,,,,,0,8,8,8,,,,,,,,,,,,,,,,,['num_0'],9,0.0573476923164,1,['num_0'],0,[0.5198535384843126],,,,,,,,,2018_Jun_02_1817,59.8620777401,sequenceLearningTask,001,PA101,
min1.png,min2.png,min3.png,min4.png,allBlank.png,,,,['num_7'],,,,,,0,9,9,9,,,,,,,,,,,,,,,,,['num_7'],10,0.0536012307275,1,['num_7'],0,[0.9220155897783116],,,,,,,,,2018_Jun_02_1817,59.8620777401,sequenceLearningTask,001,PA101,
min1.png,min2.png,min3.png,min4.png,allBlank.png,,,,['num_1'],,,,,,0,9,9,9,,,,,,,,,,,,,,,,,['num_1'],10,0.0622166153044,1,['num_1'],0,[0.9150383590022102],,,,,,,,,2018_Jun_02_1817,59.8620777401,sequenceLearningTask,001,PA101,
min1.png,min2.png,min3.png,min4.png,allBlank.png,,,,['num_4'],,,,,,0,9,9,9,,,,,,,,,,,,,,,,,['num_4'],10,0.0547019486548,1,['num_4'],0,[0.9901772307930514],,,,,,,,,2018_Jun_02_1817,59.8620777401,sequenceLearningTask,001,PA101,
min1.png,min2.png,min3.png,min4.png,allBlank.png,,,,['num_0'],,,,,,0,9,9,9,,,,,,,,,,,,,,,,,['num_0'],10,0.0515249230666,1,['num_0'],0,[0.7092336410423741],,,,,,,,,2018_Jun_02_1817,59.8620777401,sequenceLearningTask,001,PA101,
min1.png,min2.png,min3.png,min4.png,allBlank.png,,,,['num_0'],,,,,,0,9,9,9,,,,,,,,,,,,,,,,,['num_0'],10,0.0518416409614,1,['num_0'],0,[0.6412471794756129],,,,,,,,,2018_Jun_02_1817,59.8620777401,sequenceLearningTask,001,PA101,
min1.png,min2.png,min3.png,min4.png,allBlank.png,,,,['num_4'],,,,,,0,9,9,9,,,,,,,,,,,,,,,,,['num_4'],10,0.0548274870962,1,['num_4'],0,[0.955216410337016],,,,,,,,,2018_Jun_02_1817,59.8620777401,sequenceLearningTask,001,PA101,
min1.png,min2.png,min3.png,min4.png,allBlank.png,,,,['num_1'],,,,,,0,9,9,9,,,,,,,,,,,,,,,,,['num_1'],10,0.0549989744322,1,['num_1'],0,[0.7898695385083556],,,,,,,,,2018_Jun_02_1817,59.8620777401,sequenceLearningTask,001,PA101,
min1.png,min2.png,min3.png,min4.png,allBlank.png,,,,['num_0'],,,,,,0,9,9,9,,,,,,,,,,,,,,,,,['num_0'],10,0.0550752819981,1,['num_0'],0,[0.6215249230153859],,,,,,,,,2018_Jun_02_1817,59.8620777401,sequenceLearningTask,001,PA101,
min1.png,min2.png,min3.png,min4.png,images/allBlank.png,images/min1.png,'num_7',"['num_7', 'num_4', 'num_1', 'num_0']",['num_7'],num_7,,,,,0,9,9,9,0,0,0,0,,,,,,,,,,,,,['num_7'],,0.0607470769901,1,['num_7'],0,[2.5973517949460074],1,,,,,,,,2018_Jun_02_1817,59.8620777401,sequenceLearningTask,001,PA101,
min1.png,min2.png,min3.png,min4.png,images/allBlank.png,images/min3.png,'num_1',"['num_7', 'num_4', 'num_1', 'num_0']",['num_1'],num_1,,,,,0,9,9,9,0,1,1,2,,,,,,,,,,,,,['num_1'],,0.0564028718509,1,['num_1'],0,[0.8177698461804539],1,,,,,,,,2018_Jun_02_1817,59.8620777401,sequenceLearningTask,001,PA101,
min1.png,min2.png,min3.png,min4.png,images/allBlank.png,images/min4.png,'num_0',"['num_7', 'num_4', 'num_1', 'num_0']",['num_0'],num_0,,,,,0,9,9,9,0,2,2,3,,,,,,,,,,,,,['num_0'],,0.0547597948462,1,['num_0'],0,[0.521199589711614],1,,,,,,,,2018_Jun_02_1817,59.8620777401,sequenceLearningTask,001,PA101,
min1.png,min2.png,min3.png,min4.png,images/allBlank.png,images/min2.png,'num_4',"['num_7', 'num_4', 'num_1', 'num_0']",['num_4'],num_4,,,,,0,9,9,9,0,3,3,1,,,,,,,,,,,,,['num_4'],,0.0487224615645,1,['num_4'],0,[0.7762974358629435],1,,,,,,,,2018_Jun_02_1817,59.8620777401,sequenceLearningTask,001,PA101,
min1.png,min2.png,min3.png,min4.png,images/allBlank.png,images/min1.png,'num_7',"['num_7', 'num_4', 'num_1', 'num_0']",['num_7'],num_7,,,,,0,9,9,9,1,0,4,0,,,,,,,,,,,,,['num_7'],,0.0572906666202,1,['num_7'],0,[0.9009768204996362],1,,,,,,,,2018_Jun_02_1817,59.8620777401,sequenceLearningTask,001,PA101,
min1.png,min2.png,min3.png,min4.png,images/allBlank.png,images/min3.png,'num_1',"['num_7', 'num_4', 'num_1', 'num_0']",['num_1'],num_1,,,,,0,9,9,9,1,1,5,2,,,,,,,,,,,,,['num_1'],,0.0541444101837,1,['num_1'],0,[0.9379618462407961],1,,,,,,,,2018_Jun_02_1817,59.8620777401,sequenceLearningTask,001,PA101,
min1.png,min2.png,min3.png,min4.png,images/allBlank.png,images/min4.png,'num_0',"['num_7', 'num_4', 'num_1', 'num_0']",['num_0'],num_0,,,,,0,9,9,9,1,2,6,3,,,,,,,,,,,,,['num_0'],,0.054740102496,1,['num_0'],0,[0.8387815384194255],1,,,,,,,,2018_Jun_02_1817,59.8620777401,sequenceLearningTask,001,PA101,
min1.png,min2.png,min3.png,min4.png,images/allBlank.png,images/min2.png,'num_4',"['num_7', 'num_4', 'num_1', 'num_0']",['num_4'],num_4,,,,,0,9,9,9,1,3,7,1,,,,,,,,,,,,,['num_4'],,0.0551848205505,1,['num_4'],0,[0.9874367179581895],1,,,,,,,,2018_Jun_02_1817,59.8620777401,sequenceLearningTask,001,PA101,
min1.png,min2.png,min3.png,min4.png,images/allBlank.png,images/min1.png,'num_7',"['num_7', 'num_4', 'num_1', 'num_0']",['num_7'],num_7,,,,,0,9,9,9,2,0,8,0,,,,,,,,,,,,,['num_7'],,0.0508443076396,1,['num_7'],0,[0.9757624615449458],1,,,,,,,,2018_Jun_02_1817,59.8620777401,sequenceLearningTask,001,PA101,
min1.png,min2.png,min3.png,min4.png,images/allBlank.png,images/min4.png,'num_0',"['num_7', 'num_4', 'num_1', 'num_0']",['num_0'],num_0,,,,,0,9,9,9,2,1,9,3,,,,,,,,,,,,,['num_0'],,0.0606535384431,1,['num_0'],0,[1.43155364098493],1,,,,,,,,2018_Jun_02_1817,59.8620777401,sequenceLearningTask,001,PA101,
min1.png,min2.png,min3.png,min4.png,images/allBlank.png,images/min3.png,'num_1',"['num_7', 'num_4', 'num_1', 'num_0']",['num_1'],num_1,,,,,0,9,9,9,2,2,10,2,,,,,,,,,,,,,['num_1'],,0.0611499487422,1,['num_1'],0,[0.981478153844364],1,,,,,,,,2018_Jun_02_1817,59.8620777401,sequenceLearningTask,001,PA101,
min1.png,min2.png,min3.png,min4.png,images/allBlank.png,images/min2.png,'num_4',"['num_7', 'num_4', 'num_1', 'num_0']",['num_4'],num_4,,,,,0,9,9,9,2,3,11,1,,,,,,,,,,,,,['num_4'],,0.0536816410022,1,['num_4'],0,[1.7216799999587238],1,,,,,,,,2018_Jun_02_1817,59.8620777401,sequenceLearningTask,001,PA101,
min1.png,min2.png,min3.png,min4.png,images/allBlank.png,images/min3.png,'num_1',"['num_7', 'num_4', 'num_1', 'num_0']",['num_1'],num_1,,,,,0,9,9,9,3,0,12,2,,,,,,,,,,,,,['num_1'],,0.0531753846444,1,['num_1'],0,[2.3398703589336947],1,,,,,,,,2018_Jun_02_1817,59.8620777401,sequenceLearningTask,001,PA101,
min1.png,min2.png,min3.png,min4.png,images/allBlank.png,images/min1.png,'num_7',"['num_7', 'num_4', 'num_1', 'num_0']",['num_7'],num_7,,,,,0,9,9,9,3,1,13,0,,,,,,,,,,,,,['num_7'],,0.0531774358824,1,['num_7'],0,[1.2221801026025787],1,,,,,,,,2018_Jun_02_1817,59.8620777401,sequenceLearningTask,001,PA101,
min1.png,min2.png,min3.png,min4.png,images/allBlank.png,images/min2.png,'num_4',"['num_7', 'num_4', 'num_1', 'num_0']",['num_4'],num_4,,,,,0,9,9,9,3,2,14,1,,,,,,,,,,,,,['num_4'],,0.0613628717838,1,['num_4'],0,[0.7129337436053902],1,,,,,,,,2018_Jun_02_1817,59.8620777401,sequenceLearningTask,001,PA101,
min1.png,min2.png,min3.png,min4.png,images/allBlank.png,images/min4.png,'num_0',"['num_7', 'num_4', 'num_1', 'num_0']",['num_0'],num_0,,,,,0,9,9,9,3,3,15,3,,,,,,,,,,,,,['num_0'],,0.0600397948874,1,['num_0'],0,[0.8143175384029746],1,,,,,,,,2018_Jun_02_1817,59.8620777401,sequenceLearningTask,001,PA101,
min1.png,min2.png,min3.png,min4.png,images/allBlank.png,images/min1.png,'num_7',"['num_7', 'num_4', 'num_1', 'num_0']",['num_7'],num_7,,,,,0,9,9,9,4,0,16,0,,,,,,,,,,,,,['num_7'],,0.0530900512822,1,['num_7'],0,[0.8899741538334638],1,,,,,,,,2018_Jun_02_1817,59.8620777401,sequenceLearningTask,001,PA101,
min1.png,min2.png,min3.png,min4.png,images/allBlank.png,images/min3.png,'num_1',"['num_7', 'num_4', 'num_1', 'num_0']",['num_1'],num_1,,,,,0,9,9,9,4,1,17,2,,,,,,,,,,,,,['num_1'],,0.0518793846713,1,['num_1'],0,[0.9732229743385687],1,,,,,,,,2018_Jun_02_1817,59.8620777401,sequenceLearningTask,001,PA101,
min1.png,min2.png,min3.png,min4.png,images/allBlank.png,images/min2.png,'num_4',"['num_7', 'num_4', 'num_1', 'num_0']",['num_4'],num_4,,,,,0,9,9,9,4,2,18,1,,,,,,,,,,,,,['num_4'],,0.0548722051317,1,['num_4'],0,[0.838866051286459],1,,,,,,,,2018_Jun_02_1817,59.8620777401,sequenceLearningTask,001,PA101,
min1.png,min2.png,min3.png,min4.png,images/allBlank.png,images/min4.png,'num_0',"['num_7', 'num_4', 'num_1', 'num_0']",['num_0'],num_0,,,,,0,9,9,9,4,3,19,3,,,,,,,,,,,,,['num_0'],,0.0555507692043,1,['num_0'],0,[0.41901333327405155],1,,,,,,,,2018_Jun_02_1817,59.8620777401,sequenceLearningTask,001,PA101,
min1.png,min2.png,min3.png,min4.png,images/allBlank.png,images/min3.png,'num_1',"['num_7', 'num_4', 'num_1', 'num_0']",['num_1'],num_1,,,,,0,9,9,9,5,0,20,2,,,,,,,,,,,,,['num_1'],,0.056283897371,1,['num_1'],0,[1.0522785640787333],1,,,,,,,,2018_Jun_02_1817,59.8620777401,sequenceLearningTask,001,PA101,
min1.png,min2.png,min3.png,min4.png,images/allBlank.png,images/min2.png,'num_4',"['num_7', 'num_4', 'num_1', 'num_0']",['num_4'],num_4,,,,,0,9,9,9,5,1,21,1,,,,,,,,,,,,,['num_4'],,0.0538633846445,1,['num_4'],0,[0.6046272821258754],1,,,,,,,,2018_Jun_02_1817,59.8620777401,sequenceLearningTask,001,PA101,
min1.png,min2.png,min3.png,min4.png,images/allBlank.png,images/min1.png,'num_7',"['num_7', 'num_4', 'num_1', 'num_0']",['num_7'],num_7,,,,,0,9,9,9,5,2,22,0,,,,,,,,,,,,,['num_7'],,0.0549042051425,1,['num_7'],0,[0.403852307703346],1,,,,,,,,2018_Jun_02_1817,59.8620777401,sequenceLearningTask,001,PA101,
min1.png,min2.png,min3.png,min4.png,images/allBlank.png,images/min4.png,'num_0',"['num_7', 'num_4', 'num_1', 'num_0']",['num_0'],num_0,,,,,0,9,9,9,5,3,23,3,,,,,,,,,,,,,['num_0'],,0.053594256402,1,['num_0'],0,[0.488595282076858],1,,,,,,,,2018_Jun_02_1817,59.8620777401,sequenceLearningTask,001,PA101,
min1.png,min2.png,min3.png,min4.png,images/allBlank.png,images/min3.png,'num_1',"['num_7', 'num_4', 'num_1', 'num_0']",['num_1'],num_1,,,,,0,9,9,9,6,0,24,2,,,,,,,,,,,,,['num_1'],,0.0540406153305,0,"['num_1', 'num_0', 'num_1']",0,"[0.38740676920861006, 1.2222391795367002]",0,,,,,,,,2018_Jun_02_1817,59.8620777401,sequenceLearningTask,001,PA101,
min1.png,min2.png,min3.png,min4.png,images/allBlank.png,images/min2.png,'num_4',"['num_7', 'num_4', 'num_1', 'num_0']",['num_4'],num_4,,,,,0,9,9,9,6,1,25,1,,,,,,,,,,,,,['num_4'],,0.054066871875,1,['num_4'],0,[0.32229497435037047],1,,,,,,,,2018_Jun_02_1817,59.8620777401,sequenceLearningTask,001,PA101,
min1.png,min2.png,min3.png,min4.png,images/allBlank.png,images/min1.png,'num_7',"['num_7', 'num_4', 'num_1', 'num_0']",['num_7'],num_7,,,,,0,9,9,9,6,2,26,0,,,,,,,,,,,,,['num_7'],,0.0587302563945,0,"['num_7', 'num_4', 'num_4', 'num_4', 'num_7']",0,"[0.2984951793914661, 0.6813612306723371, 1.5131044101435691, 1.7455643076682463]",0,,,,,,,,2018_Jun_02_1817,59.8620777401,sequenceLearningTask,001,PA101,
min1.png,min2.png,min3.png,min4.png,images/allBlank.png,images/min4.png,'num_0',"['num_7', 'num_4', 'num_1', 'num_0']",['num_0'],num_0,,,,,0,9,9,9,6,3,27,3,,,,,,,,,,,,,['num_0'],,0.0650194871705,1,['num_0'],0,[0.4939409231301397],1,,,,,,,,2018_Jun_02_1817,59.8620777401,sequenceLearningTask,001,PA101,
min1.png,min2.png,min3.png,min4.png,images/allBlank.png,images/min3.png,'num_1',"['num_7', 'num_4', 'num_1', 'num_0']",['num_1'],num_1,,,,,0,9,9,9,7,0,28,2,,,,,,,,,,,,,['num_1'],,0.0562826666282,1,['num_1'],0,[0.118369230767712],1,,,,,,,,2018_Jun_02_1817,59.8620777401,sequenceLearningTask,001,PA101,
min1.png,min2.png,min3.png,min4.png,images/allBlank.png,images/min1.png,'num_7',"['num_7', 'num_4', 'num_1', 'num_0']",['num_7'],num_7,,,,,0,9,9,9,7,1,29,0,,,,,,,,,,,,,['num_7'],,0.0574153846828,1,['num_7'],0,[3.5524861539015546],1,,,,,,,,2018_Jun_02_1817,59.8620777401,sequenceLearningTask,001,PA101,
min1.png,min2.png,min3.png,min4.png,images/allBlank.png,images/min2.png,'num_4',"['num_7', 'num_4', 'num_1', 'num_0']",['num_4'],num_4,,,,,0,9,9,9,7,2,30,1,,,,,,,,,,,,,['num_4'],,0.0666055384791,1,['num_4'],0,[0.7077690256992355],1,,,,,,,,2018_Jun_02_1817,59.8620777401,sequenceLearningTask,001,PA101,
min1.png,min2.png,min3.png,min4.png,images/allBlank.png,images/min4.png,'num_0',"['num_7', 'num_4', 'num_1', 'num_0']",['num_0'],num_0,,,,,0,9,9,9,7,3,31,3,,,,,,,,,,,,,['num_0'],,0.0606235897867,1,['num_0'],0,[0.8146847180323675],1,,,,,,,,2018_Jun_02_1817,59.8620777401,sequenceLearningTask,001,PA101,
min1.png,min2.png,min3.png,min4.png,images/allBlank.png,images/min4.png,'num_0',"['num_7', 'num_4', 'num_1', 'num_0']",['num_0'],num_0,,,,,0,9,9,9,8,0,32,3,,,,,,,,,,,,,['num_0'],,0.0477846154245,1,['num_0'],0,[0.693640205077827],1,,,,,,,,2018_Jun_02_1817,59.8620777401,sequenceLearningTask,001,PA101,
min1.png,min2.png,min3.png,min4.png,images/allBlank.png,images/min3.png,'num_1',"['num_7', 'num_4', 'num_1', 'num_0']",['num_1'],num_1,,,,,0,9,9,9,8,1,33,2,,,,,,,,,,,,,['num_1'],,0.0558080000337,1,['num_1'],0,[0.986785230692476],1,,,,,,,,2018_Jun_02_1817,59.8620777401,sequenceLearningTask,001,PA101,
min1.png,min2.png,min3.png,min4.png,images/allBlank.png,images/min2.png,'num_4',"['num_7', 'num_4', 'num_1', 'num_0']",['num_4'],num_4,,,,,0,9,9,9,8,2,34,1,,,,,,,,,,,,,['num_4'],,0.0610428717919,1,['num_4'],0,[0.7488237947691232],1,,,,,,,,2018_Jun_02_1817,59.8620777401,sequenceLearningTask,001,PA101,
min1.png,min2.png,min3.png,min4.png,images/allBlank.png,images/min1.png,'num_7',"['num_7', 'num_4', 'num_1', 'num_0']",['num_7'],num_7,,,,,0,9,9,9,8,3,35,0,,,,,,,,,,,,,['num_7'],,0.0560943590244,1,['num_7'],0,[0.7526088205631822],1,,,,,,,,2018_Jun_02_1817,59.8620777401,sequenceLearningTask,001,PA101,
min1.png,min2.png,min3.png,min4.png,images/allBlank.png,images/min4.png,'num_0',"['num_7', 'num_4', 'num_1', 'num_0']",['num_0'],num_0,,,,,0,9,9,9,9,0,36,3,,,,,,,,,,,,,['num_0'],,0.056637128233,1,['num_0'],0,[0.8194125128211454],1,,,,,,,,2018_Jun_02_1817,59.8620777401,sequenceLearningTask,001,PA101,
min1.png,min2.png,min3.png,min4.png,images/allBlank.png,images/min1.png,'num_7',"['num_7', 'num_4', 'num_1', 'num_0']",['num_7'],num_7,,,,,0,9,9,9,9,1,37,0,,,,,,,,,,,,,['num_7'],,0.0593070768518,1,['num_7'],0,[0.899188102572225],1,,,,,,,,2018_Jun_02_1817,59.8620777401,sequenceLearningTask,001,PA101,
min1.png,min2.png,min3.png,min4.png,images/allBlank.png,images/min3.png,'num_1',"['num_7', 'num_4', 'num_1', 'num_0']",['num_1'],num_1,,,,,0,9,9,9,9,2,38,2,,,,,,,,,,,,,['num_1'],,0.0581353845773,1,['num_1'],0,[0.950343384523876],1,,,,,,,,2018_Jun_02_1817,59.8620777401,sequenceLearningTask,001,PA101,
min1.png,min2.png,min3.png,min4.png,images/allBlank.png,images/min2.png,'num_4',"['num_7', 'num_4', 'num_1', 'num_0']",['num_4'],num_4,,,,,0,9,9,9,9,3,39,1,,,,,,,,,,,,,['num_4'],,0.0547790769488,1,['num_4'],0,[0.8878785641863942],1,,,,,,,,2018_Jun_02_1817,59.8620777401,sequenceLearningTask,001,PA101,
min1.png,min2.png,min3.png,min4.png,images/allBlank.png,images/min3.png,'num_1',"['num_7', 'num_4', 'num_1', 'num_0']",['num_1'],num_1,,,,,0,9,9,9,10,0,40,2,,,,,,,,,,,,,['num_1'],,0.0504201025469,1,['num_1'],0,[0.9753813333809376],1,,,,,,,,2018_Jun_02_1817,59.8620777401,sequenceLearningTask,001,PA101,
min1.png,min2.png,min3.png,min4.png,images/allBlank.png,images/min4.png,'num_0',"['num_7', 'num_4', 'num_1', 'num_0']",['num_0'],num_0,,,,,0,9,9,9,10,1,41,3,,,,,,,,,,,,,['num_0'],,0.0531351794489,1,['num_0'],0,[0.772745025693439],1,,,,,,,,2018_Jun_02_1817,59.8620777401,sequenceLearningTask,001,PA101,
min1.png,min2.png,min3.png,min4.png,images/allBlank.png,images/min2.png,'num_4',"['num_7', 'num_4', 'num_1', 'num_0']",['num_4'],num_4,,,,,0,9,9,9,10,2,42,1,,,,,,,,,,,,,['num_4'],,0.0526038974058,1,['num_4'],0,[0.9386613334063441],1,,,,,,,,2018_Jun_02_1817,59.8620777401,sequenceLearningTask,001,PA101,
min1.png,min2.png,min3.png,min4.png,images/allBlank.png,images/min1.png,'num_7',"['num_7', 'num_4', 'num_1', 'num_0']",['num_7'],num_7,,,,,0,9,9,9,10,3,43,0,,,,,,,,,,,,,['num_7'],,0.0476438973565,1,['num_7'],0,[1.294852102524601],1,,,,,,,,2018_Jun_02_1817,59.8620777401,sequenceLearningTask,001,PA101,
min1.png,min2.png,min3.png,min4.png,images/allBlank.png,images/min4.png,'num_0',"['num_7', 'num_4', 'num_1', 'num_0']",['num_0'],num_0,,,,,0,9,9,9,11,0,44,3,,,,,,,,,,,,,['num_0'],,0.0516992820194,1,['num_0'],0,[0.8904258460970595],1,,,,,,,,2018_Jun_02_1817,59.8620777401,sequenceLearningTask,001,PA101,
min1.png,min2.png,min3.png,min4.png,images/allBlank.png,images/min3.png,'num_1',"['num_7', 'num_4', 'num_1', 'num_0']",['num_1'],num_1,,,,,0,9,9,9,11,1,45,2,,,,,,,,,,,,,['num_1'],,0.0571700512664,1,['num_1'],0,[0.9525657435879111],1,,,,,,,,2018_Jun_02_1817,59.8620777401,sequenceLearningTask,001,PA101,
min1.png,min2.png,min3.png,min4.png,images/allBlank.png,images/min1.png,'num_7',"['num_7', 'num_4', 'num_1', 'num_0']",['num_7'],num_7,,,,,0,9,9,9,11,2,46,0,,,,,,,,,,,,,['num_7'],,0.0498063589912,1,['num_7'],0,[0.960054564056918],1,,,,,,,,2018_Jun_02_1817,59.8620777401,sequenceLearningTask,001,PA101,
min1.png,min2.png,min3.png,min4.png,images/allBlank.png,images/min2.png,'num_4',"['num_7', 'num_4', 'num_1', 'num_0']",['num_4'],num_4,,,,,0,9,9,9,11,3,47,1,,,,,,,,,,,,,['num_4'],,0.0552537436597,1,['num_4'],0,[0.952726153889671],1,,,,,,,,2018_Jun_02_1817,59.8620777401,sequenceLearningTask,001,PA101,
min1.png,min2.png,min3.png,min4.png,images/allBlank.png,images/min1.png,'num_7',"['num_7', 'num_4', 'num_1', 'num_0']",['num_7'],num_7,,,,,0,9,9,9,12,0,48,0,,,,,,,,,,,,,['num_7'],,0.052342974348,1,['num_7'],0,[1.4067249230574816],1,,,,,,,,2018_Jun_02_1817,59.8620777401,sequenceLearningTask,001,PA101,
min1.png,min2.png,min3.png,min4.png,images/allBlank.png,images/min3.png,'num_1',"['num_7', 'num_4', 'num_1', 'num_0']",['num_1'],num_1,,,,,0,9,9,9,12,1,49,2,,,,,,,,,,,,,['num_1'],,0.0541796922917,1,['num_1'],0,[0.9380344615783542],1,,,,,,,,2018_Jun_02_1817,59.8620777401,sequenceLearningTask,001,PA101,
min1.png,min2.png,min3.png,min4.png,images/allBlank.png,images/min4.png,'num_0',"['num_7', 'num_4', 'num_1', 'num_0']",['num_0'],num_0,,,,,0,9,9,9,12,2,50,3,,,,,,,,,,,,,['num_0'],,0.0536516922293,1,['num_0'],0,[0.5387003077194095],1,,,,,,,,2018_Jun_02_1817,59.8620777401,sequenceLearningTask,001,PA101,
min1.png,min2.png,min3.png,min4.png,images/allBlank.png,images/min2.png,'num_4',"['num_7', 'num_4', 'num_1', 'num_0']",['num_4'],num_4,,,,,0,9,9,9,12,3,51,1,,,,,,,,,,,,,['num_4'],,0.0456270769937,1,['num_4'],0,[1.214456615387462],1,,,,,,,,2018_Jun_02_1817,59.8620777401,sequenceLearningTask,001,PA101,
min1.png,min2.png,min3.png,min4.png,images/allBlank.png,images/min2.png,'num_4',"['num_7', 'num_4', 'num_1', 'num_0']",['num_4'],num_4,,,,,0,9,9,9,13,0,52,1,,,,,,,,,,,,,['num_4'],,0.0584229743108,1,['num_4'],0,[0.7681103589711711],1,,,,,,,,2018_Jun_02_1817,59.8620777401,sequenceLearningTask,001,PA101,
min1.png,min2.png,min3.png,min4.png,images/allBlank.png,images/min4.png,'num_0',"['num_7', 'num_4', 'num_1', 'num_0']",['num_0'],num_0,,,,,0,9,9,9,13,1,53,3,,,,,,,,,,,,,['num_0'],,0.05035979487,1,['num_0'],0,[0.774873846094124],1,,,,,,,,2018_Jun_02_1817,59.8620777401,sequenceLearningTask,001,PA101,
min1.png,min2.png,min3.png,min4.png,images/allBlank.png,images/min1.png,'num_7',"['num_7', 'num_4', 'num_1', 'num_0']",['num_7'],num_7,,,,,0,9,9,9,13,2,54,0,,,,,,,,,,,,,['num_7'],,0.0508393845521,1,['num_7'],0,[1.1091975384624675],1,,,,,,,,2018_Jun_02_1817,59.8620777401,sequenceLearningTask,001,PA101,
min1.png,min2.png,min3.png,min4.png,images/allBlank.png,images/min3.png,'num_1',"['num_7', 'num_4', 'num_1', 'num_0']",['num_1'],num_1,,,,,0,9,9,9,13,3,55,2,,,,,,,,,,,,,['num_1'],,0.0552500513149,1,['num_1'],0,[1.1050818462390453],1,,,,,,,,2018_Jun_02_1817,59.8620777401,sequenceLearningTask,001,PA101,
min1.png,min2.png,min3.png,min4.png,images/allBlank.png,images/min2.png,'num_4',"['num_7', 'num_4', 'num_1', 'num_0']",['num_4'],num_4,,,,,0,9,9,9,14,0,56,1,,,,,,,,,,,,,['num_4'],,0.0535138462437,1,['num_4'],0,[1.0059068717528135],1,,,,,,,,2018_Jun_02_1817,59.8620777401,sequenceLearningTask,001,PA101,
min1.png,min2.png,min3.png,min4.png,images/allBlank.png,images/min4.png,'num_0',"['num_7', 'num_4', 'num_1', 'num_0']",['num_0'],num_0,,,,,0,9,9,9,14,1,57,3,,,,,,,,,,,,,['num_0'],,0.0486112820217,1,['num_0'],0,[0.6776828716974705],1,,,,,,,,2018_Jun_02_1817,59.8620777401,sequenceLearningTask,001,PA101,
min1.png,min2.png,min3.png,min4.png,images/allBlank.png,images/min3.png,'num_1',"['num_7', 'num_4', 'num_1', 'num_0']",['num_1'],num_1,,,,,0,9,9,9,14,2,58,2,,,,,,,,,,,,,['num_1'],,0.0501505640568,1,['num_1'],0,[0.8757669744081795],1,,,,,,,,2018_Jun_02_1817,59.8620777401,sequenceLearningTask,001,PA101,
min1.png,min2.png,min3.png,min4.png,images/allBlank.png,images/min1.png,'num_7',"['num_7', 'num_4', 'num_1', 'num_0']",['num_7'],num_7,,,,,0,9,9,9,14,3,59,0,,,,,,,,,,,,,['num_7'],,0.0521686153952,1,['num_7'],0,[0.7400701538426802],1,,,,,,,,2018_Jun_02_1817,59.8620777401,sequenceLearningTask,001,PA101,
min1.png,min2.png,min3.png,min4.png,images/allBlank.png,images/min1.png,'num_7',"['num_7', 'num_4', 'num_1', 'num_0']",['num_7'],num_7,,,,,0,9,9,9,15,0,60,0,,,,,,,,,,,,,['num_7'],,0.0524447179632,1,['num_7'],0,[0.7899901537457481],1,,,,,,,,2018_Jun_02_1817,59.8620777401,sequenceLearningTask,001,PA101,
min1.png,min2.png,min3.png,min4.png,images/allBlank.png,images/min3.png,'num_1',"['num_7', 'num_4', 'num_1', 'num_0']",['num_1'],num_1,,,,,0,9,9,9,15,1,61,2,,,,,,,,,,,,,['num_1'],,0.0644274870865,1,['num_1'],0,[1.010379076935351],1,,,,,,,,2018_Jun_02_1817,59.8620777401,sequenceLearningTask,001,PA101,
min1.png,min2.png,min3.png,min4.png,images/allBlank.png,images/min4.png,'num_0',"['num_7', 'num_4', 'num_1', 'num_0']",['num_0'],num_0,,,,,0,9,9,9,15,2,62,3,,,,,,,,,,,,,['num_0'],,0.060844718013,1,['num_0'],0,[0.6484500513179228],1,,,,,,,,2018_Jun_02_1817,59.8620777401,sequenceLearningTask,001,PA101,
min1.png,min2.png,min3.png,min4.png,images/allBlank.png,images/min2.png,'num_4',"['num_7', 'num_4', 'num_1', 'num_0']",['num_4'],num_4,,,,,0,9,9,9,15,3,63,1,,,,,,,,,,,,,['num_4'],,0.0525083076209,1,['num_4'],0,[1.2747068718308583],1,,,,,,,,2018_Jun_02_1817,59.8620777401,sequenceLearningTask,001,PA101,
min1.png,min2.png,min3.png,min4.png,images/allBlank.png,images/min1.png,'num_7',"['num_7', 'num_4', 'num_1', 'num_0']",['num_7'],num_7,,,,,0,9,9,9,16,0,64,0,,,,,,,,,,,,,['num_7'],,0.0627027692972,1,['num_7'],0,[0.5460635897470638],1,,,,,,,,2018_Jun_02_1817,59.8620777401,sequenceLearningTask,001,PA101,
min1.png,min2.png,min3.png,min4.png,images/allBlank.png,images/min3.png,'num_1',"['num_7', 'num_4', 'num_1', 'num_0']",['num_1'],num_1,,,,,0,9,9,9,16,1,65,2,,,,,,,,,,,,,['num_1'],,0.0565862563672,1,['num_1'],0,[1.1529522051569074],1,,,,,,,,2018_Jun_02_1817,59.8620777401,sequenceLearningTask,001,PA101,
min1.png,min2.png,min3.png,min4.png,images/allBlank.png,images/min4.png,'num_0',"['num_7', 'num_4', 'num_1', 'num_0']",['num_0'],num_0,,,,,0,9,9,9,16,2,66,3,,,,,,,,,,,,,['num_0'],,0.0573394871317,1,['num_0'],0,[0.8513550768839195],1,,,,,,,,2018_Jun_02_1817,59.8620777401,sequenceLearningTask,001,PA101,
min1.png,min2.png,min3.png,min4.png,images/allBlank.png,images/min2.png,'num_4',"['num_7', 'num_4', 'num_1', 'num_0']",['num_4'],num_4,,,,,0,9,9,9,16,3,67,1,,,,,,,,,,,,,['num_4'],,0.0599786667153,1,['num_4'],0,[1.1157665641512722],1,,,,,,,,2018_Jun_02_1817,59.8620777401,sequenceLearningTask,001,PA101,
min1.png,min2.png,min3.png,min4.png,images/allBlank.png,images/min4.png,'num_0',"['num_7', 'num_4', 'num_1', 'num_0']",['num_0'],num_0,,,,,0,9,9,9,17,0,68,3,,,,,,,,,,,,,['num_0'],,0.0222539486131,1,['num_0'],0,[1.2405472820391878],1,,,,,,,,2018_Jun_02_1817,59.8620777401,sequenceLearningTask,001,PA101,
min1.png,min2.png,min3.png,min4.png,images/allBlank.png,images/min1.png,'num_7',"['num_7', 'num_4', 'num_1', 'num_0']",['num_7'],num_7,,,,,0,9,9,9,17,1,69,0,,,,,,,,,,,,,['num_7'],,0.033662769245,1,['num_7'],0,[0.8446925127645954],1,,,,,,,,2018_Jun_02_1817,59.8620777401,sequenceLearningTask,001,PA101,
min1.png,min2.png,min3.png,min4.png,images/allBlank.png,images/min2.png,'num_4',"['num_7', 'num_4', 'num_1', 'num_0']",['num_4'],num_4,,,,,0,9,9,9,17,2,70,1,,,,,,,,,,,,,['num_4'],,0.0501878975192,1,['num_4'],0,[0.8257362050935626],1,,,,,,,,2018_Jun_02_1817,59.8620777401,sequenceLearningTask,001,PA101,
min1.png,min2.png,min3.png,min4.png,images/allBlank.png,images/min3.png,'num_1',"['num_7', 'num_4', 'num_1', 'num_0']",['num_1'],num_1,,,,,0,9,9,9,17,3,71,2,,,,,,,,,,,,,['num_1'],,0.0543675896479,1,['num_1'],0,[0.8385357948718593],1,,,,,,,,2018_Jun_02_1817,59.8620777401,sequenceLearningTask,001,PA101,
min1.png,min2.png,min3.png,min4.png,images/allBlank.png,images/min1.png,'num_7',"['num_7', 'num_4', 'num_1', 'num_0']",['num_7'],num_7,,,,,0,9,9,9,18,0,72,0,,,,,,,,,,,,,['num_7'],,0.0561091281706,1,['num_7'],0,[1.0362674870993942],1,,,,,,,,2018_Jun_02_1817,59.8620777401,sequenceLearningTask,001,PA101,
min1.png,min2.png,min3.png,min4.png,images/allBlank.png,images/min3.png,'num_1',"['num_7', 'num_4', 'num_1', 'num_0']",['num_1'],num_1,,,,,0,9,9,9,18,1,73,2,,,,,,,,,,,,,['num_1'],,0.0504853334278,1,['num_1'],0,[0.9756992820184678],1,,,,,,,,2018_Jun_02_1817,59.8620777401,sequenceLearningTask,001,PA101,
min1.png,min2.png,min3.png,min4.png,images/allBlank.png,images/min4.png,'num_0',"['num_7', 'num_4', 'num_1', 'num_0']",['num_0'],num_0,,,,,0,9,9,9,18,2,74,3,,,,,,,,,,,,,['num_0'],,0.0572278974578,1,['num_0'],0,[0.9843019486870617],1,,,,,,,,2018_Jun_02_1817,59.8620777401,sequenceLearningTask,001,PA101,
min1.png,min2.png,min3.png,min4.png,images/allBlank.png,images/min2.png,'num_4',"['num_7', 'num_4', 'num_1', 'num_0']",['num_4'],num_4,,,,,0,9,9,9,18,3,75,1,,,,,,,,,,,,,['num_4'],,0.0588065640768,1,['num_4'],0,[0.933951179496944],1,,,,,,,,2018_Jun_02_1817,59.8620777401,sequenceLearningTask,001,PA101,
min1.png,min2.png,min3.png,min4.png,images/allBlank.png,images/min1.png,'num_7',"['num_7', 'num_4', 'num_1', 'num_0']",['num_7'],num_7,,,,,0,9,9,9,19,0,76,0,,,,,,,,,,,,,['num_7'],,0.0616045128554,1,['num_7'],0,[0.8807212307583541],1,,,,,,,,2018_Jun_02_1817,59.8620777401,sequenceLearningTask,001,PA101,
min1.png,min2.png,min3.png,min4.png,images/allBlank.png,images/min4.png,'num_0',"['num_7', 'num_4', 'num_1', 'num_0']",['num_0'],num_0,,,,,0,9,9,9,19,1,77,3,,,,,,,,,,,,,['num_0'],,0.0541411282029,1,['num_0'],0,[1.2893103589303792],1,,,,,,,,2018_Jun_02_1817,59.8620777401,sequenceLearningTask,001,PA101,
min1.png,min2.png,min3.png,min4.png,images/allBlank.png,images/min2.png,'num_4',"['num_7', 'num_4', 'num_1', 'num_0']",['num_4'],num_4,,,,,0,9,9,9,19,2,78,1,,,,,,,,,,,,,['num_4'],,0.0519889231073,1,['num_4'],0,[1.4732225640909746],1,,,,,,,,2018_Jun_02_1817,59.8620777401,sequenceLearningTask,001,PA101,
min1.png,min2.png,min3.png,min4.png,images/allBlank.png,images/min3.png,'num_1',"['num_7', 'num_4', 'num_1', 'num_0']",['num_1'],num_1,,,,,0,9,9,9,19,3,79,2,,,,,,,,,,,,,['num_1'],,0.0442338462453,1,['num_1'],0,[1.9158445128705353],1,,,,,,,,2018_Jun_02_1817,59.8620777401,sequenceLearningTask,001,PA101,
min1.png,min2.png,min3.png,min4.png,allBlank.png,,,,['num_7'],,,,,,0,0,0,0,,,,,,,,,,,,,,,,,['num_7'],1,0.113856000011,1,['num_7'],0,[1.0946149743394926],,,,,,,,,2018_Jun_02_1817,59.8620777401,sequenceLearningTask,001,PA101,
min1.png,min2.png,min3.png,min4.png,allBlank.png,,,,['num_1'],,,,,,0,0,0,0,,,,,,,,,,,,,,,,,['num_1'],1,0.0531835898291,1,['num_1'],0,[0.7418002050835639],,,,,,,,,2018_Jun_02_1817,59.8620777401,sequenceLearningTask,001,PA101,
min1.png,min2.png,min3.png,min4.png,allBlank.png,,,,['num_4'],,,,,,0,0,0,0,,,,,,,,,,,,,,,,,['num_4'],1,0.0568151795305,1,['num_4'],0,[0.6205329230288044],,,,,,,,,2018_Jun_02_1817,59.8620777401,sequenceLearningTask,001,PA101,
min1.png,min2.png,min3.png,min4.png,allBlank.png,,,,['num_0'],,,,,,0,0,0,0,,,,,,,,,,,,,,,,,['num_0'],1,0.0533567180391,1,['num_0'],0,[0.35840328212361783],,,,,,,,,2018_Jun_02_1817,59.8620777401,sequenceLearningTask,001,PA101,
min1.png,min2.png,min3.png,min4.png,allBlank.png,,,,['num_0'],,,,,,0,0,0,0,,,,,,,,,,,,,,,,,['num_0'],1,0.0563085129252,1,['num_0'],0,[0.7375651281327009],,,,,,,,,2018_Jun_02_1817,59.8620777401,sequenceLearningTask,001,PA101,
min1.png,min2.png,min3.png,min4.png,allBlank.png,,,,['num_4'],,,,,,0,0,0,0,,,,,,,,,,,,,,,,,['num_4'],1,0.0485829743557,1,['num_4'],0,[0.7301288205198944],,,,,,,,,2018_Jun_02_1817,59.8620777401,sequenceLearningTask,001,PA101,
min1.png,min2.png,min3.png,min4.png,allBlank.png,,,,['num_1'],,,,,,0,0,0,0,,,,,,,,,,,,,,,,,['num_1'],1,0.0558404102921,1,['num_1'],0,[0.47175343590788543],,,,,,,,,2018_Jun_02_1817,59.8620777401,sequenceLearningTask,001,PA101,
min1.png,min2.png,min3.png,min4.png,allBlank.png,,,,['num_0'],,,,,,0,0,0,0,,,,,,,,,,,,,,,,,['num_0'],1,0.0487122051418,1,['num_0'],0,[0.5959187692496926],,,,,,,,,2018_Jun_02_1817,59.8620777401,sequenceLearningTask,001,PA101,
min1.png,min2.png,min3.png,min4.png,allBlank.png,,,,['num_7'],,,,,,0,1,1,1,,,,,,,,,,,,,,,,,['num_7'],2,0.054966974305,1,['num_7'],0,[0.9719277948606759],,,,,,,,,2018_Jun_02_1817,59.8620777401,sequenceLearningTask,001,PA101,
min1.png,min2.png,min3.png,min4.png,allBlank.png,,,,['num_1'],,,,,,0,1,1,1,,,,,,,,,,,,,,,,,['num_1'],2,0.0571766153444,1,['num_1'],0,[0.7709464615909383],,,,,,,,,2018_Jun_02_1817,59.8620777401,sequenceLearningTask,001,PA101,
min1.png,min2.png,min3.png,min4.png,allBlank.png,,,,['num_4'],,,,,,0,1,1,1,,,,,,,,,,,,,,,,,['num_4'],2,0.0529025640571,1,['num_4'],0,[0.5923721025465056],,,,,,,,,2018_Jun_02_1817,59.8620777401,sequenceLearningTask,001,PA101,
min1.png,min2.png,min3.png,min4.png,allBlank.png,,,,['num_0'],,,,,,0,1,1,1,,,,,,,,,,,,,,,,,['num_0'],2,0.0569965128088,1,['num_0'],0,[0.32121107692364603],,,,,,,,,2018_Jun_02_1817,59.8620777401,sequenceLearningTask,001,PA101,
min1.png,min2.png,min3.png,min4.png,allBlank.png,,,,['num_0'],,,,,,0,1,1,1,,,,,,,,,,,,,,,,,['num_0'],2,0.0496258462081,1,['num_0'],0,[0.5124861537478864],,,,,,,,,2018_Jun_02_1817,59.8620777401,sequenceLearningTask,001,PA101,
min1.png,min2.png,min3.png,min4.png,allBlank.png,,,,['num_4'],,,,,,0,1,1,1,,,,,,,,,,,,,,,,,['num_4'],2,0.0493673846358,1,['num_4'],0,[0.6780176410684362],,,,,,,,,2018_Jun_02_1817,59.8620777401,sequenceLearningTask,001,PA101,
min1.png,min2.png,min3.png,min4.png,allBlank.png,,,,['num_1'],,,,,,0,1,1,1,,,,,,,,,,,,,,,,,['num_1'],2,0.0650436922442,1,['num_1'],0,[0.6449362051207572],,,,,,,,,2018_Jun_02_1817,59.8620777401,sequenceLearningTask,001,PA101,
min1.png,min2.png,min3.png,min4.png,allBlank.png,,,,['num_0'],,,,,,0,1,1,1,,,,,,,,,,,,,,,,,['num_0'],2,0.0550826666877,1,['num_0'],0,[0.4729111794149503],,,,,,,,,2018_Jun_02_1817,59.8620777401,sequenceLearningTask,001,PA101,
min1.png,min2.png,min3.png,min4.png,allBlank.png,,,,['num_7'],,,,,,0,2,2,2,,,,,,,,,,,,,,,,,['num_7'],3,0.0544000000227,1,['num_7'],0,[0.5879569230601192],,,,,,,,,2018_Jun_02_1817,59.8620777401,sequenceLearningTask,001,PA101,
min1.png,min2.png,min3.png,min4.png,allBlank.png,,,,['num_1'],,,,,,0,2,2,2,,,,,,,,,,,,,,,,,['num_1'],3,0.0573115898296,1,['num_1'],0,[0.7365456409752369],,,,,,,,,2018_Jun_02_1817,59.8620777401,sequenceLearningTask,001,PA101,
min1.png,min2.png,min3.png,min4.png,allBlank.png,,,,['num_4'],,,,,,0,2,2,2,,,,,,,,,,,,,,,,,['num_4'],3,0.0509419487789,1,['num_4'],0,[0.7445070769172162],,,,,,,,,2018_Jun_02_1817,59.8620777401,sequenceLearningTask,001,PA101,
min1.png,min2.png,min3.png,min4.png,allBlank.png,,,,['num_0'],,,,,,0,2,2,2,,,,,,,,,,,,,,,,,['num_0'],3,0.0548611282138,1,['num_0'],0,[0.2896283076843247],,,,,,,,,2018_Jun_02_1817,59.8620777401,sequenceLearningTask,001,PA101,
min1.png,min2.png,min3.png,min4.png,allBlank.png,,,,['num_0'],,,,,,0,2,2,2,,,,,,,,,,,,,,,,,['num_0'],3,0.0590990768978,1,['num_0'],0,[0.6184127179440111],,,,,,,,,2018_Jun_02_1817,59.8620777401,sequenceLearningTask,001,PA101,
min1.png,min2.png,min3.png,min4.png,allBlank.png,,,,['num_4'],,,,,,0,2,2,2,,,,,,,,,,,,,,,,,['num_4'],3,0.0571885127574,0,"['num_7', 'num_4', 'num_4']",0,"[0.8894240000518039, 1.7704283077036962]",,,,,,,,,2018_Jun_02_1817,59.8620777401,sequenceLearningTask,001,PA101,
min1.png,min2.png,min3.png,min4.png,allBlank.png,,,,['num_1'],,,,,,0,2,2,2,,,,,,,,,,,,,,,,,['num_1'],3,0.0539409230696,1,['num_1'],0,[0.4408201025798917],,,,,,,,,2018_Jun_02_1817,59.8620777401,sequenceLearningTask,001,PA101,
min1.png,min2.png,min3.png,min4.png,allBlank.png,,,,['num_0'],,,,,,0,2,2,2,,,,,,,,,,,,,,,,,['num_0'],3,0.0494621538091,1,['num_0'],0,[0.34541210264433175],,,,,,,,,2018_Jun_02_1817,59.8620777401,sequenceLearningTask,001,PA101,
min1.png,min2.png,min3.png,min4.png,allBlank.png,,,,['num_7'],,,,,,0,3,3,3,,,,,,,,,,,,,,,,,['num_7'],4,0.0602030769223,0,"['num_4', 'num_7']",0,"[0.9323491281829774, 1.2325858460972086]",,,,,,,,,2018_Jun_02_1817,59.8620777401,sequenceLearningTask,001,PA101,
min1.png,min2.png,min3.png,min4.png,allBlank.png,,,,['num_1'],,,,,,0,3,3,3,,,,,,,,,,,,,,,,,['num_1'],4,0.0533907692879,1,['num_1'],0,[1.1907786666415632],,,,,,,,,2018_Jun_02_1817,59.8620777401,sequenceLearningTask,001,PA101,
min1.png,min2.png,min3.png,min4.png,allBlank.png,,,,['num_4'],,,,,,0,3,3,3,,,,,,,,,,,,,,,,,['num_4'],4,0.0706297436263,1,['num_4'],0,[0.8885501538170502],,,,,,,,,2018_Jun_02_1817,59.8620777401,sequenceLearningTask,001,PA101,
min1.png,min2.png,min3.png,min4.png,allBlank.png,,,,['num_0'],,,,,,0,3,3,3,,,,,,,,,,,,,,,,,['num_0'],4,0.056882871897,1,['num_0'],0,[0.5374149744166061],,,,,,,,,2018_Jun_02_1817,59.8620777401,sequenceLearningTask,001,PA101,
min1.png,min2.png,min3.png,min4.png,allBlank.png,,,,['num_0'],,,,,,0,3,3,3,,,,,,,,,,,,,,,,,['num_0'],4,0.0508102563908,1,['num_0'],0,[0.6247076923027635],,,,,,,,,2018_Jun_02_1817,59.8620777401,sequenceLearningTask,001,PA101,
min1.png,min2.png,min3.png,min4.png,allBlank.png,,,,['num_4'],,,,,,0,3,3,3,,,,,,,,,,,,,,,,,['num_4'],4,0.0579753845232,1,['num_4'],0,[0.9864032820332795],,,,,,,,,2018_Jun_02_1817,59.8620777401,sequenceLearningTask,001,PA101,
min1.png,min2.png,min3.png,min4.png,allBlank.png,,,,['num_1'],,,,,,0,3,3,3,,,,,,,,,,,,,,,,,['num_1'],4,0.0513579488033,1,['num_1'],0,[0.8768237947952002],,,,,,,,,2018_Jun_02_1817,59.8620777401,sequenceLearningTask,001,PA101,
min1.png,min2.png,min3.png,min4.png,allBlank.png,,,,['num_0'],,,,,,0,3,3,3,,,,,,,,,,,,,,,,,['num_0'],4,0.0529587692581,1,['num_0'],0,[0.7744459487730637],,,,,,,,,2018_Jun_02_1817,59.8620777401,sequenceLearningTask,001,PA101,
min1.png,min2.png,min3.png,min4.png,allBlank.png,,,,['num_7'],,,,,,0,4,4,4,,,,,,,,,,,,,,,,,['num_7'],5,0.0560278974008,1,['num_7'],0,[0.9704918974312022],,,,,,,,,2018_Jun_02_1817,59.8620777401,sequenceLearningTask,001,PA101,
min1.png,min2.png,min3.png,min4.png,allBlank.png,,,,['num_1'],,,,,,0,4,4,4,,,,,,,,,,,,,,,,,['num_1'],5,0.0585903590545,1,['num_1'],0,[0.9517608204623684],,,,,,,,,2018_Jun_02_1817,59.8620777401,sequenceLearningTask,001,PA101,
min1.png,min2.png,min3.png,min4.png,allBlank.png,,,,['num_4'],,,,,,0,4,4,4,,,,,,,,,,,,,,,,,['num_4'],5,0.0584246154176,1,['num_4'],0,[1.085984000004828],,,,,,,,,2018_Jun_02_1817,59.8620777401,sequenceLearningTask,001,PA101,
min1.png,min2.png,min3.png,min4.png,allBlank.png,,,,['num_0'],,,,,,0,4,4,4,,,,,,,,,,,,,,,,,['num_0'],5,0.0523392820032,1,['num_0'],0,[0.7255708718439564],,,,,,,,,2018_Jun_02_1817,59.8620777401,sequenceLearningTask,001,PA101,
min1.png,min2.png,min3.png,min4.png,allBlank.png,,,,['num_0'],,,,,,0,4,4,4,,,,,,,,,,,,,,,,,['num_0'],5,0.0541542564752,1,['num_0'],0,[0.6242711794329807],,,,,,,,,2018_Jun_02_1817,59.8620777401,sequenceLearningTask,001,PA101,
min1.png,min2.png,min3.png,min4.png,allBlank.png,,,,['num_4'],,,,,,0,4,4,4,,,,,,,,,,,,,,,,,['num_4'],5,0.0395934359403,1,['num_4'],0,[1.8883844102965668],,,,,,,,,2018_Jun_02_1817,59.8620777401,sequenceLearningTask,001,PA101,
min1.png,min2.png,min3.png,min4.png,allBlank.png,,,,['num_1'],,,,,,0,4,4,4,,,,,,,,,,,,,,,,,['num_1'],5,0.0546998974169,1,['num_1'],0,[1.1057940513128415],,,,,,,,,2018_Jun_02_1817,59.8620777401,sequenceLearningTask,001,PA101,
min1.png,min2.png,min3.png,min4.png,allBlank.png,,,,['num_0'],,,,,,0,4,4,4,,,,,,,,,,,,,,,,,['num_0'],5,0.0577739487635,1,['num_0'],0,[0.5867868717759848],,,,,,,,,2018_Jun_02_1817,59.8620777401,sequenceLearningTask,001,PA101,
min1.png,min2.png,min3.png,min4.png,allBlank.png,,,,['num_7'],,,,,,0,5,5,5,,,,,,,,,,,,,,,,,['num_7'],6,0.0535606154008,1,['num_7'],0,[0.8898375384742394],,,,,,,,,2018_Jun_02_1817,59.8620777401,sequenceLearningTask,001,PA101,
min1.png,min2.png,min3.png,min4.png,allBlank.png,,,,['num_1'],,,,,,0,5,5,5,,,,,,,,,,,,,,,,,['num_1'],6,0.0543437948218,1,['num_1'],0,[0.8739671794464812],,,,,,,,,2018_Jun_02_1817,59.8620777401,sequenceLearningTask,001,PA101,
min1.png,min2.png,min3.png,min4.png,allBlank.png,,,,['num_4'],,,,,,0,5,5,5,,,,,,,,,,,,,,,,,['num_4'],6,0.0543265640736,1,['num_4'],0,[0.7570847179740667],,,,,,,,,2018_Jun_02_1817,59.8620777401,sequenceLearningTask,001,PA101,
min1.png,min2.png,min3.png,min4.png,allBlank.png,,,,['num_0'],,,,,,0,5,5,5,,,,,,,,,,,,,,,,,['num_0'],6,0.0579630768625,1,['num_0'],0,[0.8195105640916154],,,,,,,,,2018_Jun_02_1817,59.8620777401,sequenceLearningTask,001,PA101,
min1.png,min2.png,min3.png,min4.png,allBlank.png,,,,['num_0'],,,,,,0,5,5,5,,,,,,,,,,,,,,,,,['num_0'],6,0.0547634871909,1,['num_0'],0,[0.7400857436005026],,,,,,,,,2018_Jun_02_1817,59.8620777401,sequenceLearningTask,001,PA101,
min1.png,min2.png,min3.png,min4.png,allBlank.png,,,,['num_4'],,,,,,0,5,5,5,,,,,,,,,,,,,,,,,['num_4'],6,0.0563515897375,1,['num_4'],0,[1.1376640000380576],,,,,,,,,2018_Jun_02_1817,59.8620777401,sequenceLearningTask,001,PA101,
min1.png,min2.png,min3.png,min4.png,allBlank.png,,,,['num_1'],,,,,,0,5,5,5,,,,,,,,,,,,,,,,,['num_1'],6,0.0517009231262,1,['num_1'],0,[0.7935852307127789],,,,,,,,,2018_Jun_02_1817,59.8620777401,sequenceLearningTask,001,PA101,
min1.png,min2.png,min3.png,min4.png,allBlank.png,,,,['num_0'],,,,,,0,5,5,5,,,,,,,,,,,,,,,,,['num_0'],6,0.0498559999978,1,['num_0'],0,[0.694697025581263],,,,,,,,,2018_Jun_02_1817,59.8620777401,sequenceLearningTask,001,PA101,
min1.png,min2.png,min3.png,min4.png,allBlank.png,,,,['num_7'],,,,,,0,6,6,6,,,,,,,,,,,,,,,,,['num_7'],7,0.0514116924023,1,['num_7'],0,[0.8743269743863493],,,,,,,,,2018_Jun_02_1817,59.8620777401,sequenceLearningTask,001,PA101,
min1.png,min2.png,min3.png,min4.png,allBlank.png,,,,['num_1'],,,,,,0,6,6,6,,,,,,,,,,,,,,,,,['num_1'],7,0.0545128205558,1,['num_1'],0,[1.0567478974116966],,,,,,,,,2018_Jun_02_1817,59.8620777401,sequenceLearningTask,001,PA101,
min1.png,min2.png,min3.png,min4.png,allBlank.png,,,,['num_4'],,,,,,0,6,6,6,,,,,,,,,,,,,,,,,['num_4'],7,0.0539462564047,1,['num_4'],0,[0.9736681025242433],,,,,,,,,2018_Jun_02_1817,59.8620777401,sequenceLearningTask,001,PA101,
min1.png,min2.png,min3.png,min4.png,allBlank.png,,,,['num_0'],,,,,,0,6,6,6,,,,,,,,,,,,,,,,,['num_0'],7,0.0516049230937,1,['num_0'],0,[0.7169649230781943],,,,,,,,,2018_Jun_02_1817,59.8620777401,sequenceLearningTask,001,PA101,
min1.png,min2.png,min3.png,min4.png,allBlank.png,,,,['num_0'],,,,,,0,6,6,6,,,,,,,,,,,,,,,,,['num_0'],7,0.0580036923056,1,['num_0'],0,[0.6029161025071517],,,,,,,,,2018_Jun_02_1817,59.8620777401,sequenceLearningTask,001,PA101,
min1.png,min2.png,min3.png,min4.png,allBlank.png,,,,['num_4'],,,,,,0,6,6,6,,,,,,,,,,,,,,,,,['num_4'],7,0.0507868718123,1,['num_4'],0,[1.3770711794495583],,,,,,,,,2018_Jun_02_1817,59.8620777401,sequenceLearningTask,001,PA101,
min1.png,min2.png,min3.png,min4.png,allBlank.png,,,,['num_1'],,,,,,0,6,6,6,,,,,,,,,,,,,,,,,['num_1'],7,0.0560307692504,1,['num_1'],0,[0.5712475896580145],,,,,,,,,2018_Jun_02_1817,59.8620777401,sequenceLearningTask,001,PA101,
min1.png,min2.png,min3.png,min4.png,allBlank.png,,,,['num_0'],,,,,,0,6,6,6,,,,,,,,,,,,,,,,,['num_0'],7,0.0590822565136,1,['num_0'],0,[0.450765538495034],,,,,,,,,2018_Jun_02_1817,59.8620777401,sequenceLearningTask,001,PA101,
min1.png,min2.png,min3.png,min4.png,allBlank.png,,,,['num_7'],,,,,,0,7,7,7,,,,,,,,,,,,,,,,,['num_7'],8,0.0514309743885,1,['num_7'],0,[1.058369641075842],,,,,,,,,2018_Jun_02_1817,59.8620777401,sequenceLearningTask,001,PA101,
min1.png,min2.png,min3.png,min4.png,allBlank.png,,,,['num_1'],,,,,,0,7,7,7,,,,,,,,,,,,,,,,,['num_1'],8,0.051559384563,1,['num_1'],0,[1.1102084101876244],,,,,,,,,2018_Jun_02_1817,59.8620777401,sequenceLearningTask,001,PA101,
min1.png,min2.png,min3.png,min4.png,allBlank.png,,,,['num_4'],,,,,,0,7,7,7,,,,,,,,,,,,,,,,,['num_4'],8,0.054340512841,1,['num_4'],0,[1.423494153888896],,,,,,,,,2018_Jun_02_1817,59.8620777401,sequenceLearningTask,001,PA101,
min1.png,min2.png,min3.png,min4.png,allBlank.png,,,,['num_0'],,,,,,0,7,7,7,,,,,,,,,,,,,,,,,['num_0'],8,0.0482904615346,1,['num_0'],0,[0.6129628717899323],,,,,,,,,2018_Jun_02_1817,59.8620777401,sequenceLearningTask,001,PA101,
min1.png,min2.png,min3.png,min4.png,allBlank.png,,,,['num_0'],,,,,,0,7,7,7,,,,,,,,,,,,,,,,,['num_0'],8,0.0495175385149,1,['num_0'],0,[0.694305230746977],,,,,,,,,2018_Jun_02_1817,59.8620777401,sequenceLearningTask,001,PA101,
min1.png,min2.png,min3.png,min4.png,allBlank.png,,,,['num_4'],,,,,,0,7,7,7,,,,,,,,,,,,,,,,,['num_4'],8,0.0573033845285,1,['num_4'],0,[0.7377825640141964],,,,,,,,,2018_Jun_02_1817,59.8620777401,sequenceLearningTask,001,PA101,
min1.png,min2.png,min3.png,min4.png,allBlank.png,,,,['num_1'],,,,,,0,7,7,7,,,,,,,,,,,,,,,,,['num_1'],8,0.0507893332979,1,['num_1'],0,[0.7755167179275304],,,,,,,,,2018_Jun_02_1817,59.8620777401,sequenceLearningTask,001,PA101,
min1.png,min2.png,min3.png,min4.png,allBlank.png,,,,['num_0'],,,,,,0,7,7,7,,,,,,,,,,,,,,,,,['num_0'],8,0.0463007178623,1,['num_0'],0,[0.615487179486081],,,,,,,,,2018_Jun_02_1817,59.8620777401,sequenceLearningTask,001,PA101,
min1.png,min2.png,min3.png,min4.png,allBlank.png,,,,['num_7'],,,,,,0,8,8,8,,,,,,,,,,,,,,,,,['num_7'],9,0.0587093333015,1,['num_7'],0,[0.6838252308079973],,,,,,,,,2018_Jun_02_1817,59.8620777401,sequenceLearningTask,001,PA101,
min1.png,min2.png,min3.png,min4.png,allBlank.png,,,,['num_1'],,,,,,0,8,8,8,,,,,,,,,,,,,,,,,['num_1'],9,0.0518207179848,1,['num_1'],0,[0.8587515897816047],,,,,,,,,2018_Jun_02_1817,59.8620777401,sequenceLearningTask,001,PA101,
min1.png,min2.png,min3.png,min4.png,allBlank.png,,,,['num_4'],,,,,,0,8,8,8,,,,,,,,,,,,,,,,,['num_4'],9,0.0508250256535,1,['num_4'],0,[0.7612910768948495],,,,,,,,,2018_Jun_02_1817,59.8620777401,sequenceLearningTask,001,PA101,
min1.png,min2.png,min3.png,min4.png,allBlank.png,,,,['num_0'],,,,,,0,8,8,8,,,,,,,,,,,,,,,,,['num_0'],9,0.057607794879,1,['num_0'],0,[0.4042198973475024],,,,,,,,,2018_Jun_02_1817,59.8620777401,sequenceLearningTask,001,PA101,
min1.png,min2.png,min3.png,min4.png,allBlank.png,,,,['num_0'],,,,,,0,8,8,8,,,,,,,,,,,,,,,,,['num_0'],9,0.0550572307548,1,['num_0'],0,[0.5558211283059791],,,,,,,,,2018_Jun_02_1817,59.8620777401,sequenceLearningTask,001,PA101,
min1.png,min2.png,min3.png,min4.png,allBlank.png,,,,['num_4'],,,,,,0,8,8,8,,,,,,,,,,,,,,,,,['num_4'],9,0.048671179451,1,['num_4'],0,[0.8297197947977111],,,,,,,,,2018_Jun_02_1817,59.8620777401,sequenceLearningTask,001,PA101,
min1.png,min2.png,min3.png,min4.png,allBlank.png,,,,['num_1'],,,,,,0,8,8,8,,,,,,,,,,,,,,,,,['num_1'],9,0.051842461573,1,['num_1'],0,[0.5425567178754136],,,,,,,,,2018_Jun_02_1817,59.8620777401,sequenceLearningTask,001,PA101,
min1.png,min2.png,min3.png,min4.png,allBlank.png,,,,['num_0'],,,,,,0,8,8,8,,,,,,,,,,,,,,,,,['num_0'],9,0.0549661538098,1,['num_0'],0,[0.6723470769356936],,,,,,,,,2018_Jun_02_1817,59.8620777401,sequenceLearningTask,001,PA101,
min1.png,min2.png,min3.png,min4.png,allBlank.png,,,,['num_7'],,,,,,0,9,9,9,,,,,,,,,,,,,,,,,['num_7'],10,0.0575507691829,1,['num_7'],0,[1.0002416409552097],,,,,,,,,2018_Jun_02_1817,59.8620777401,sequenceLearningTask,001,PA101,
min1.png,min2.png,min3.png,min4.png,allBlank.png,,,,['num_1'],,,,,,0,9,9,9,,,,,,,,,,,,,,,,,['num_1'],10,0.0579708717996,1,['num_1'],0,[0.9548032820457593],,,,,,,,,2018_Jun_02_1817,59.8620777401,sequenceLearningTask,001,PA101,
min1.png,min2.png,min3.png,min4.png,allBlank.png,,,,['num_4'],,,,,,0,9,9,9,,,,,,,,,,,,,,,,,['num_4'],10,0.0586104615359,1,['num_4'],0,[0.6192910769023001],,,,,,,,,2018_Jun_02_1817,59.8620777401,sequenceLearningTask,001,PA101,
min1.png,min2.png,min3.png,min4.png,allBlank.png,,,,['num_0'],,,,,,0,9,9,9,,,,,,,,,,,,,,,,,['num_0'],10,0.0512077948079,1,['num_0'],0,[0.5764656410319731],,,,,,,,,2018_Jun_02_1817,59.8620777401,sequenceLearningTask,001,PA101,
min1.png,min2.png,min3.png,min4.png,allBlank.png,,,,['num_0'],,,,,,0,9,9,9,,,,,,,,,,,,,,,,,['num_0'],10,0.0588246153202,1,['num_0'],0,[0.5681398974265903],,,,,,,,,2018_Jun_02_1817,59.8620777401,sequenceLearningTask,001,PA101,
min1.png,min2.png,min3.png,min4.png,allBlank.png,,,,['num_4'],,,,,,0,9,9,9,,,,,,,,,,,,,,,,,['num_4'],10,0.0495593845844,0,"['num_7', 'num_4', 'num_4']",0,"[1.0107798974495381, 1.744549743598327]",,,,,,,,,2018_Jun_02_1817,59.8620777401,sequenceLearningTask,001,PA101,
min1.png,min2.png,min3.png,min4.png,allBlank.png,,,,['num_1'],,,,,,0,9,9,9,,,,,,,,,,,,,,,,,['num_1'],10,0.0548717947677,1,['num_1'],0,[0.8894170257262886],,,,,,,,,2018_Jun_02_1817,59.8620777401,sequenceLearningTask,001,PA101,
min1.png,min2.png,min3.png,min4.png,allBlank.png,,,,['num_0'],,,,,,0,9,9,9,,,,,,,,,,,,,,,,,['num_0'],10,0.0573464615736,1,['num_0'],0,[0.5533394871745259],,,,,,,,,2018_Jun_02_1817,59.8620777401,sequenceLearningTask,001,PA101,
min1.png,min2.png,min3.png,min4.png,allBlank.png,,,,,,,,,,0,9,9,9,,,,,0,-1,-1,0,,,,,,,,,,,,,,,,,,,,,,,,2018_Jun_02_1817,59.8620777401,sequenceLearningTask,001,PA101,
min1.png,min2.png,min3.png,min4.png,allBlank.png,,,,,,,,,,0,9,9,9,,,,,0,-1,-1,0,,,,,,,,,,,,,,,,,['1'],,,,,,,2018_Jun_02_1817,59.8620777401,sequenceLearningTask,001,PA101,
min1.png,min2.png,min3.png,min4.png,allBlank.png,,,,,,,,,,0,9,9,9,,,,,0,-1,-1,0,,,,,,,,,,,,,,,,,['1'],,,,,,,2018_Jun_02_1817,59.8620777401,sequenceLearningTask,001,PA101,
min1.png,min2.png,min3.png,min4.png,allBlank.png,,,,,,,,,,0,9,9,9,,,,,0,-1,-1,0,,,,,,,,,,,,,,,,,['1'],,,,,,,2018_Jun_02_1817,59.8620777401,sequenceLearningTask,001,PA101,
min1.png,min2.png,min3.png,min4.png,allBlank.png,,,,,,,,,,0,9,9,9,,,,,0,-1,-1,0,,,,,,,,,,,,,,,,,['1'],,,,,,,2018_Jun_02_1817,59.8620777401,sequenceLearningTask,001,PA101,
min1.png,min2.png,min3.png,min4.png,allBlank.png,,,,,,0,0,0,0,0,9,9,9,,,,,0,-1,-1,0,,,,,,,,,,,,,,,,,,return,24.3463044103,at school 9not formal at home0back 0back 0,"[11.283204102539457, 11.383640205138363, 12.183855179464445, 12.549841230735183, 12.816682256408967, 13.083665641024709, 13.583414564142004, 13.732641641050577, 13.950889846193604, 14.316383179510012, 15.382159179542214, 15.50008820509538, 15.916699487133883, 16.11682215379551, 16.283550769207068, 16.382795487181284, 16.782605948741548, 16.899503999971785, 17.017085538478568, 17.166529641021043, 17.215721846208908, 17.431519179488532, 17.531868717982434, 17.648534153820947, 17.831350153894164, 17.948657641070895, 18.149093333282508, 18.298883281997405, 18.36594379483722, 18.46572061534971, 18.715406358940527, 18.816495589795522, 19.93264697433915, 20.265021128230728, 20.465688615338877, 21.414840205106884, 22.215927794924937, 22.332876717904583]",,,2018_Jun_02_1817,59.8620777401,sequenceLearningTask,001,PA101,
min1.png,min2.png,min3.png,min4.png,allBlank.png,,,,['3'],,,,,,0,9,9,9,,,,,0,-1,-1,0,0,0,0,0,,,,,['3'],1,,1,,,,,,,,,,['3'],4.78166441026,2018_Jun_02_1817,59.8620777401,sequenceLearningTask,001,PA101,
min1.png,min2.png,min3.png,min4.png,allBlank.png,,,,['2'],,,,,,0,9,9,9,,,,,0,-1,-1,0,0,0,0,0,,,,,['2'],1,,1,,,,,,,,,,['2'],3.91676266666,2018_Jun_02_1817,59.8620777401,sequenceLearningTask,001,PA101,
min1.png,min2.png,min3.png,min4.png,allBlank.png,,,,['4'],,,,,,0,9,9,9,,,,,0,-1,-1,0,0,0,0,0,,,,,['4'],1,,1,,,,,,,,,,['4'],2.24939446163,2018_Jun_02_1817,59.8620777401,sequenceLearningTask,001,PA101,
min1.png,min2.png,min3.png,min4.png,allBlank.png,,,,['4'],,,,,,0,9,9,9,,,,,0,-1,-1,0,0,0,0,0,,,,,['4'],1,,1,,,,,,,,,,['4'],1.88263261539,2018_Jun_02_1817,59.8620777401,sequenceLearningTask,001,PA101,
min1.png,min2.png,min3.png,min4.png,allBlank.png,,,,['2'],,,,,,0,9,9,9,,,,,0,-1,-1,0,0,0,0,0,,,,,['2'],1,,0,,,,,,,,,,['1'],2.98271794873,2018_Jun_02_1817,59.8620777401,sequenceLearningTask,001,PA101,
min1.png,min2.png,min3.png,min4.png,allBlank.png,,,,['3'],,,,,,0,9,9,9,,,,,0,-1,-1,0,0,0,0,0,,,,,['3'],1,,0,,,,,,,,,,['1'],4.5153846154,2018_Jun_02_1817,59.8620777401,sequenceLearningTask,001,PA101,
min1.png,min2.png,min3.png,min4.png,allBlank.png,,,,['4'],,,,,,0,9,9,9,,,,,0,-1,-1,0,0,0,0,0,,,,,['4'],1,,0,,,,,,,,,,['1'],3.61635158979,2018_Jun_02_1817,59.8620777401,sequenceLearningTask,001,PA101,
min1.png,min2.png,min3.png,min4.png,allBlank.png,,,,['2'],,,,,,0,9,9,9,,,,,0,-1,-1,0,0,0,0,0,,,,,['2'],1,,0,,,,,,,,,,['1'],2.5159138462,2018_Jun_02_1817,59.8620777401,sequenceLearningTask,001,PA101,
min1.png,min2.png,min3.png,min4.png,allBlank.png,,,,['1'],,,,,,0,9,9,9,,,,,0,-1,-1,0,0,0,0,0,,,,,['1'],1,,0,,,,,,,,,,['2'],3.03301292309,2018_Jun_02_1817,59.8620777401,sequenceLearningTask,001,PA101,
min1.png,min2.png,min3.png,min4.png,allBlank.png,,,,['1'],,,,,,0,9,9,9,,,,,0,-1,-1,0,0,0,0,0,0,0,0,0,['1'],1,,1,,,,,,,,,,['1'],50.7121788717,2018_Jun_02_1817,59.8620777401,sequenceLearningTask,001,PA101,
min1.png,min2.png,min3.png,min4.png,allBlank.png,,,,['3'],,,,,,0,9,9,9,,,,,0,-1,-1,0,0,0,0,0,0,0,0,0,['3'],1,,1,,,,,,,,,,['3'],5.59402461548,2018_Jun_02_1817,59.8620777401,sequenceLearningTask,001,PA101,
