pawPatrol1,pawPatrol2,pawPatrol3,pawPatrol4,blank,randomPaw,correctKeyPress,allowableKey,correctKey,correctKeyPressNum,trials.thisRepN,trials.thisTrialN,trials.thisN,trials.thisIndex,trials_3.thisRepN,trials_3.thisTrialN,trials_3.thisN,trials_3.thisIndex,trials_2.thisRepN,trials_2.thisTrialN,trials_2.thisN,trials_2.thisIndex,trials_questions.thisRepN,trials_questions.thisTrialN,trials_questions.thisN,trials_questions.thisIndex,trials_test.thisRepN,trials_test.thisTrialN,trials_test.thisN,trials_test.thisIndex,trials_recogtest.thisRepN,trials_recogtest.thisTrialN,trials_recogtest.thisN,trials_recogtest.thisIndex,correctKey,repetitionNumber,stimulusPresent.t,trialCorrect,key_resp_9.keys,key_resp_9.corr,key_resp_9.rt,keyRespCorrect,questionsResponses,AnswerFinished.keys,AnswerFinished.rt,RecordAnswer.keys,RecordAnswer.rt,recallResponse,recallResponseTime,date,frameRate,expName,session,participant,
min1.png,min2.png,min3.png,min4.png,allBlank.png,,,,['num_7'],,,,,,0,0,0,0,,,,,,,,,,,,,,,,,['num_7'],1,0.106326022884,1,['num_7'],0,[6.673695991514251],,,,,,,,,2018_May_18_1201,59.9735009781,sequenceLearningTask,001,105,
min1.png,min2.png,min3.png,min4.png,allBlank.png,,,,['num_1'],,,,,,0,0,0,0,,,,,,,,,,,,,,,,,['num_1'],1,0.0715949889272,0,"['num_7', 'num_7', 'num_1']",0,"[0.0003003072924911976, 1.0564421869348735]",,,,,,,,,2018_May_18_1201,59.9735009781,sequenceLearningTask,001,105,
min1.png,min2.png,min3.png,min4.png,allBlank.png,,,,['num_4'],,,,,,0,0,0,0,,,,,,,,,,,,,,,,,['num_4'],1,0.0794152868912,0,"['num_1', 'num_1', 'num_4']",0,"[0.00038276868872344494, 0.8985428940504789]",,,,,,,,,2018_May_18_1201,59.9735009781,sequenceLearningTask,001,105,
min1.png,min2.png,min3.png,min4.png,allBlank.png,,,,['num_0'],,,,,,0,0,0,0,,,,,,,,,,,,,,,,,['num_0'],1,0.0758177528623,0,"['num_4', 'num_4', 'num_4', 'num_0']",0,"[0.000317948404699564, 0.05190967977978289, 0.6859240788035095]",,,,,,,,,2018_May_18_1201,59.9735009781,sequenceLearningTask,001,105,
min1.png,min2.png,min3.png,min4.png,allBlank.png,,,,['num_0'],,,,,,0,0,0,0,,,,,,,,,,,,,,,,,['num_0'],1,0.0485299916472,0,"['num_0', 'num_0', 'num_0', 'num_0']",0,"[0.0006769222673028708, 0.1953199647832662]",,,,,,,,,2018_May_18_1201,59.9735009781,sequenceLearningTask,001,105,
min1.png,min2.png,min3.png,min4.png,allBlank.png,,,,['num_4'],,,,,,0,0,0,0,,,,,,,,,,,,,,,,,['num_4'],1,0.048598093912,0,"['num_0', 'num_0', 'num_4']",0,"[0.00031712790951132774, 0.19587668194435537, 1.1793064458761364]",,,,,,,,,2018_May_18_1201,59.9735009781,sequenceLearningTask,001,105,
min1.png,min2.png,min3.png,min4.png,allBlank.png,,,,['num_1'],,,,,,0,0,0,0,,,,,,,,,,,,,,,,,['num_1'],1,0.051155629335,0,"['num_4', 'num_4', 'num_1']",0,"[0.00031384569592773914, 0.7754333019256592]",,,,,,,,,2018_May_18_1201,59.9735009781,sequenceLearningTask,001,105,
min1.png,min2.png,min3.png,min4.png,allBlank.png,,,,['num_0'],,,,,,0,0,0,0,,,,,,,,,,,,,,,,,['num_0'],1,0.054411420133,0,"['num_1', 'num_1', 'num_1', 'num_1', 'num_0']",0,"[0.00046030711382627487, 0.1404720323625952, 0.35678356094285846, 0.6578876005951315]",,,,,,,,,2018_May_18_1201,59.9735009781,sequenceLearningTask,001,105,
min1.png,min2.png,min3.png,min4.png,allBlank.png,,,,['num_7'],,,,,,0,1,1,1,,,,,,,,,,,,,,,,,['num_7'],2,0.0509808603674,0,"['num_0', 'num_0', 'num_7']",0,"[0.0006900504231452942, 0.22475910792127252, 1.007750964956358]",,,,,,,,,2018_May_18_1201,59.9735009781,sequenceLearningTask,001,105,
min1.png,min2.png,min3.png,min4.png,allBlank.png,,,,['num_1'],,,,,,0,1,1,1,,,,,,,,,,,,,,,,,['num_1'],2,0.0484282481484,0,"['num_7', 'num_7', 'num_7', 'num_1']",0,"[0.00032779457978904247, 0.0615679242182523, 0.8791874307207763]",,,,,,,,,2018_May_18_1201,59.9735009781,sequenceLearningTask,001,105,
min1.png,min2.png,min3.png,min4.png,allBlank.png,,,,['num_4'],,,,,,0,1,1,1,,,,,,,,,,,,,,,,,['num_4'],2,0.0502838357352,0,"['num_1', 'num_1', 'num_1', 'num_4']",0,"[0.00048410193994641304, 0.093649115646258, 0.8097659777849913]",,,,,,,,,2018_May_18_1201,59.9735009781,sequenceLearningTask,001,105,
min1.png,min2.png,min3.png,min4.png,allBlank.png,,,,['num_0'],,,,,,0,1,1,1,,,,,,,,,,,,,,,,,['num_0'],2,0.0564606485423,0,"['num_4', 'num_4', 'num_0']",0,"[0.0002986663021147251, 0.6543946817982942]",,,,,,,,,2018_May_18_1201,59.9735009781,sequenceLearningTask,001,105,
min1.png,min2.png,min3.png,min4.png,allBlank.png,,,,['num_0'],,,,,,0,1,1,1,,,,,,,,,,,,,,,,,['num_0'],2,0.0484692738391,0,"['num_0', 'num_0', 'num_0', 'num_0']",0,"[0.00029743555933237076, 0.04633676330558956, 0.5475722490809858]",,,,,,,,,2018_May_18_1201,59.9735009781,sequenceLearningTask,001,105,
min1.png,min2.png,min3.png,min4.png,allBlank.png,,,,['num_4'],,,,,,0,1,1,1,,,,,,,,,,,,,,,,,['num_4'],2,0.0527679349761,0,"['num_0', 'num_0', 'num_0', 'num_4']",0,"[0.00030235876329243183, 0.09061404224485159, 1.1079822259489447]",,,,,,,,,2018_May_18_1201,59.9735009781,sequenceLearningTask,001,105,
min1.png,min2.png,min3.png,min4.png,allBlank.png,,,,['num_1'],,,,,,0,1,1,1,,,,,,,,,,,,,,,,,['num_1'],2,0.049923630897,1,['num_1'],0,[0.6930957622826099],,,,,,,,,2018_May_18_1201,59.9735009781,sequenceLearningTask,001,105,
min1.png,min2.png,min3.png,min4.png,allBlank.png,,,,['num_0'],,,,,,0,1,1,1,,,,,,,,,,,,,,,,,['num_0'],2,0.053229062818,1,['num_0'],0,[0.7079913339111954],,,,,,,,,2018_May_18_1201,59.9735009781,sequenceLearningTask,001,105,
min1.png,min2.png,min3.png,min4.png,allBlank.png,,,,['num_7'],,,,,,0,2,2,2,,,,,,,,,,,,,,,,,['num_7'],3,0.0537554211915,1,['num_7'],0,[0.7887346190400422],,,,,,,,,2018_May_18_1201,59.9735009781,sequenceLearningTask,001,105,
min1.png,min2.png,min3.png,min4.png,allBlank.png,,,,['num_1'],,,,,,0,2,2,2,,,,,,,,,,,,,,,,,['num_1'],3,0.0236742272973,1,['num_1'],0,[0.8352178439963609],,,,,,,,,2018_May_18_1201,59.9735009781,sequenceLearningTask,001,105,
min1.png,min2.png,min3.png,min4.png,allBlank.png,,,,['num_4'],,,,,,0,2,2,2,,,,,,,,,,,,,,,,,['num_4'],3,0.0562054694165,1,['num_4'],0,[0.7852814949583262],,,,,,,,,2018_May_18_1201,59.9735009781,sequenceLearningTask,001,105,
min1.png,min2.png,min3.png,min4.png,allBlank.png,,,,['num_0'],,,,,,0,2,2,2,,,,,,,,,,,,,,,,,['num_0'],3,0.0557476237882,1,['num_0'],0,[0.5376735946629196],,,,,,,,,2018_May_18_1201,59.9735009781,sequenceLearningTask,001,105,
min1.png,min2.png,min3.png,min4.png,allBlank.png,,,,['num_0'],,,,,,0,2,2,2,,,,,,,,,,,,,,,,,['num_0'],3,0.0553045473062,1,['num_0'],0,[0.7899982070084661],,,,,,,,,2018_May_18_1201,59.9735009781,sequenceLearningTask,001,105,
min1.png,min2.png,min3.png,min4.png,allBlank.png,,,,['num_4'],,,,,,0,2,2,2,,,,,,,,,,,,,,,,,['num_4'],3,0.0595638242085,1,['num_4'],0,[1.1680014343000948],,,,,,,,,2018_May_18_1201,59.9735009781,sequenceLearningTask,001,105,
min1.png,min2.png,min3.png,min4.png,allBlank.png,,,,['num_1'],,,,,,0,2,2,2,,,,,,,,,,,,,,,,,['num_1'],3,0.0499556309078,1,['num_1'],0,[0.5773859559558332],,,,,,,,,2018_May_18_1201,59.9735009781,sequenceLearningTask,001,105,
min1.png,min2.png,min3.png,min4.png,allBlank.png,,,,['num_0'],,,,,,0,2,2,2,,,,,,,,,,,,,,,,,['num_0'],3,0.0502460920252,1,['num_0'],0,[0.6604718025773764],,,,,,,,,2018_May_18_1201,59.9735009781,sequenceLearningTask,001,105,
min1.png,min2.png,min3.png,min4.png,allBlank.png,,,,['num_7'],,,,,,0,3,3,3,,,,,,,,,,,,,,,,,['num_7'],4,0.0466780965216,1,['num_7'],0,[0.7960761485155672],,,,,,,,,2018_May_18_1201,59.9735009781,sequenceLearningTask,001,105,
min1.png,min2.png,min3.png,min4.png,allBlank.png,,,,['num_1'],,,,,,0,3,3,3,,,,,,,,,,,,,,,,,['num_1'],4,0.0544635227416,1,['num_1'],0,[1.6077645851764828],,,,,,,,,2018_May_18_1201,59.9735009781,sequenceLearningTask,001,105,
min1.png,min2.png,min3.png,min4.png,allBlank.png,,,,['num_4'],,,,,,0,3,3,3,,,,,,,,,,,,,,,,,['num_4'],4,0.0544471123721,1,['num_4'],0,[0.8063567511271685],,,,,,,,,2018_May_18_1201,59.9735009781,sequenceLearningTask,001,105,
min1.png,min2.png,min3.png,min4.png,allBlank.png,,,,['num_0'],,,,,,0,3,3,3,,,,,,,,,,,,,,,,,['num_0'],4,0.049064144725,1,['num_0'],0,[0.6454876158386469],,,,,,,,,2018_May_18_1201,59.9735009781,sequenceLearningTask,001,105,
min1.png,min2.png,min3.png,min4.png,allBlank.png,,,,['num_0'],,,,,,0,3,3,3,,,,,,,,,,,,,,,,,['num_0'],4,0.0591367476154,1,['num_0'],0,[0.7515752799808979],,,,,,,,,2018_May_18_1201,59.9735009781,sequenceLearningTask,001,105,
min1.png,min2.png,min3.png,min4.png,allBlank.png,,,,['num_4'],,,,,,0,3,3,3,,,,,,,,,,,,,,,,,['num_4'],4,0.049184759846,0,"['num_7', 'num_4', 'num_1', 'num_4']",0,"[1.0293620151933283, 1.5954507542774081, 1.7948088678531349]",,,,,,,,,2018_May_18_1201,59.9735009781,sequenceLearningTask,001,105,
min1.png,min2.png,min3.png,min4.png,allBlank.png,,,,['num_1'],,,,,,0,3,3,3,,,,,,,,,,,,,,,,,['num_1'],4,0.0553349063266,0,"['num_4', 'num_1']",0,"[0.0003007175400853157, 0.8576112519949675]",,,,,,,,,2018_May_18_1201,59.9735009781,sequenceLearningTask,001,105,
min1.png,min2.png,min3.png,min4.png,allBlank.png,,,,['num_0'],,,,,,0,3,3,3,,,,,,,,,,,,,,,,,['num_0'],4,0.0543892662972,1,['num_0'],0,[0.5725888337474316],,,,,,,,,2018_May_18_1201,59.9735009781,sequenceLearningTask,001,105,
min1.png,min2.png,min3.png,min4.png,allBlank.png,,,,['num_7'],,,,,,0,4,4,4,,,,,,,,,,,,,,,,,['num_7'],5,0.0536631133873,1,['num_7'],0,[0.9409034573473036],,,,,,,,,2018_May_18_1201,59.9735009781,sequenceLearningTask,001,105,
min1.png,min2.png,min3.png,min4.png,allBlank.png,,,,['num_1'],,,,,,0,4,4,4,,,,,,,,,,,,,,,,,['num_1'],5,0.0658222779166,1,['num_1'],0,[0.8927915166132152],,,,,,,,,2018_May_18_1201,59.9735009781,sequenceLearningTask,001,105,
min1.png,min2.png,min3.png,min4.png,allBlank.png,,,,['num_4'],,,,,,0,4,4,4,,,,,,,,,,,,,,,,,['num_4'],5,0.0331847795751,1,['num_4'],0,[0.8793753280770034],,,,,,,,,2018_May_18_1201,59.9735009781,sequenceLearningTask,001,105,
min1.png,min2.png,min3.png,min4.png,allBlank.png,,,,['num_0'],,,,,,0,4,4,4,,,,,,,,,,,,,,,,,['num_0'],5,0.061504334677,1,['num_0'],0,[0.7467145679984242],,,,,,,,,2018_May_18_1201,59.9735009781,sequenceLearningTask,001,105,
min1.png,min2.png,min3.png,min4.png,allBlank.png,,,,['num_0'],,,,,,0,4,4,4,,,,,,,,,,,,,,,,,['num_0'],5,0.0582567488309,1,['num_0'],0,[0.7864929807838053],,,,,,,,,2018_May_18_1201,59.9735009781,sequenceLearningTask,001,105,
min1.png,min2.png,min3.png,min4.png,allBlank.png,,,,['num_4'],,,,,,0,4,4,4,,,,,,,,,,,,,,,,,['num_4'],5,0.0564380844589,1,['num_4'],0,[0.8214385786559433],,,,,,,,,2018_May_18_1201,59.9735009781,sequenceLearningTask,001,105,
min1.png,min2.png,min3.png,min4.png,allBlank.png,,,,['num_1'],,,,,,0,4,4,4,,,,,,,,,,,,,,,,,['num_1'],5,0.0580212620553,1,['num_1'],0,[1.0008459475357085],,,,,,,,,2018_May_18_1201,59.9735009781,sequenceLearningTask,001,105,
min1.png,min2.png,min3.png,min4.png,allBlank.png,,,,['num_0'],,,,,,0,4,4,4,,,,,,,,,,,,,,,,,['num_0'],5,0.0549353170209,1,['num_0'],0,[0.7571498374454677],,,,,,,,,2018_May_18_1201,59.9735009781,sequenceLearningTask,001,105,
min1.png,min2.png,min3.png,min4.png,allBlank.png,,,,['num_7'],,,,,,0,5,5,5,,,,,,,,,,,,,,,,,['num_7'],6,0.0540877282619,1,['num_7'],0,[0.7723149468656629],,,,,,,,,2018_May_18_1201,59.9735009781,sequenceLearningTask,001,105,
min1.png,min2.png,min3.png,min4.png,allBlank.png,,,,['num_1'],,,,,,0,5,5,5,,,,,,,,,,,,,,,,,['num_1'],6,0.0557443415746,1,['num_1'],0,[0.9719729577191174],,,,,,,,,2018_May_18_1201,59.9735009781,sequenceLearningTask,001,105,
min1.png,min2.png,min3.png,min4.png,allBlank.png,,,,['num_4'],,,,,,0,5,5,5,,,,,,,,,,,,,,,,,['num_4'],6,0.0508471168578,1,['num_4'],0,[0.8095830036327243],,,,,,,,,2018_May_18_1201,59.9735009781,sequenceLearningTask,001,105,
min1.png,min2.png,min3.png,min4.png,allBlank.png,,,,['num_0'],,,,,,0,5,5,5,,,,,,,,,,,,,,,,,['num_0'],6,0.0523749100976,1,['num_0'],0,[0.6591630862094462],,,,,,,,,2018_May_18_1201,59.9735009781,sequenceLearningTask,001,105,
min1.png,min2.png,min3.png,min4.png,allBlank.png,,,,['num_0'],,,,,,0,5,5,5,,,,,,,,,,,,,,,,,['num_0'],6,0.0607256689109,1,['num_0'],0,[0.516530646244064],,,,,,,,,2018_May_18_1201,59.9735009781,sequenceLearningTask,001,105,
min1.png,min2.png,min3.png,min4.png,allBlank.png,,,,['num_4'],,,,,,0,5,5,5,,,,,,,,,,,,,,,,,['num_4'],6,0.0600425926968,1,['num_4'],0,[0.7508753836154938],,,,,,,,,2018_May_18_1201,59.9735009781,sequenceLearningTask,001,105,
min1.png,min2.png,min3.png,min4.png,allBlank.png,,,,['num_1'],,,,,,0,5,5,5,,,,,,,,,,,,,,,,,['num_1'],6,0.0636663832702,1,['num_1'],0,[0.6632623630575836],,,,,,,,,2018_May_18_1201,59.9735009781,sequenceLearningTask,001,105,
min1.png,min2.png,min3.png,min4.png,allBlank.png,,,,['num_0'],,,,,,0,5,5,5,,,,,,,,,,,,,,,,,['num_0'],6,0.0503662968986,1,['num_0'],0,[0.6445571554359049],,,,,,,,,2018_May_18_1201,59.9735009781,sequenceLearningTask,001,105,
min1.png,min2.png,min3.png,min4.png,allBlank.png,,,,['num_7'],,,,,,0,6,6,6,,,,,,,,,,,,,,,,,['num_7'],7,0.0695322221145,1,['num_7'],0,[1.242444419534877],,,,,,,,,2018_May_18_1201,59.9735009781,sequenceLearningTask,001,105,
min1.png,min2.png,min3.png,min4.png,allBlank.png,,,,['num_1'],,,,,,0,6,6,6,,,,,,,,,,,,,,,,,['num_1'],7,0.054493061034,0,"['num_4', 'num_1']",0,"[0.6722646083217114, 1.122328464873135]",,,,,,,,,2018_May_18_1201,59.9735009781,sequenceLearningTask,001,105,
min1.png,min2.png,min3.png,min4.png,allBlank.png,,,,['num_4'],,,,,,0,6,6,6,,,,,,,,,,,,,,,,,['num_4'],7,0.052797883749,1,['num_4'],0,[0.7247999284882098],,,,,,,,,2018_May_18_1201,59.9735009781,sequenceLearningTask,001,105,
min1.png,min2.png,min3.png,min4.png,allBlank.png,,,,['num_0'],,,,,,0,6,6,6,,,,,,,,,,,,,,,,,['num_0'],7,0.053965061903,1,['num_0'],0,[0.5245359698310494],,,,,,,,,2018_May_18_1201,59.9735009781,sequenceLearningTask,001,105,
min1.png,min2.png,min3.png,min4.png,allBlank.png,,,,['num_0'],,,,,,0,6,6,6,,,,,,,,,,,,,,,,,['num_0'],7,0.0539863952436,0,"['num_7', 'num_1', 'num_0']",0,"[0.37321759201586246, 0.7570899401325732, 0.8571776116732508]",,,,,,,,,2018_May_18_1201,59.9735009781,sequenceLearningTask,001,105,
min1.png,min2.png,min3.png,min4.png,allBlank.png,,,,['num_4'],,,,,,0,6,6,6,,,,,,,,,,,,,,,,,['num_4'],7,0.0505985019263,0,"['num_0', 'num_0', 'num_0', 'num_4']",0,"[0.00031917914748191833, 1.0593669014051557]",,,,,,,,,2018_May_18_1201,59.9735009781,sequenceLearningTask,001,105,
min1.png,min2.png,min3.png,min4.png,allBlank.png,,,,['num_1'],,,,,,0,6,6,6,,,,,,,,,,,,,,,,,['num_1'],7,0.0523396278732,1,['num_1'],0,[0.7429143676999956],,,,,,,,,2018_May_18_1201,59.9735009781,sequenceLearningTask,001,105,
min1.png,min2.png,min3.png,min4.png,allBlank.png,,,,['num_0'],,,,,,0,6,6,6,,,,,,,,,,,,,,,,,['num_0'],7,0.0610415660776,1,['num_0'],0,[0.6659052318427712],,,,,,,,,2018_May_18_1201,59.9735009781,sequenceLearningTask,001,105,
min1.png,min2.png,min3.png,min4.png,allBlank.png,,,,['num_7'],,,,,,0,7,7,7,,,,,,,,,,,,,,,,,['num_7'],8,0.0573406473268,1,['num_7'],0,[0.7189020894002169],,,,,,,,,2018_May_18_1201,59.9735009781,sequenceLearningTask,001,105,
min1.png,min2.png,min3.png,min4.png,allBlank.png,,,,['num_1'],,,,,,0,7,7,7,,,,,,,,,,,,,,,,,['num_1'],8,0.0525742943864,1,['num_1'],0,[0.7416565231978893],,,,,,,,,2018_May_18_1201,59.9735009781,sequenceLearningTask,001,105,
min1.png,min2.png,min3.png,min4.png,allBlank.png,,,,['num_4'],,,,,,0,7,7,7,,,,,,,,,,,,,,,,,['num_4'],8,0.0554596239235,1,['num_4'],0,[0.6569673966150731],,,,,,,,,2018_May_18_1201,59.9735009781,sequenceLearningTask,001,105,
min1.png,min2.png,min3.png,min4.png,allBlank.png,,,,['num_0'],,,,,,0,7,7,7,,,,,,,,,,,,,,,,,['num_0'],8,0.0521911152173,1,['num_0'],0,[0.6412554157432169],,,,,,,,,2018_May_18_1201,59.9735009781,sequenceLearningTask,001,105,
min1.png,min2.png,min3.png,min4.png,allBlank.png,,,,['num_0'],,,,,,0,7,7,7,,,,,,,,,,,,,,,,,['num_0'],8,0.0501139895059,1,['num_0'],0,[0.9273420381359756],,,,,,,,,2018_May_18_1201,59.9735009781,sequenceLearningTask,001,105,
min1.png,min2.png,min3.png,min4.png,allBlank.png,,,,['num_4'],,,,,,0,7,7,7,,,,,,,,,,,,,,,,,['num_4'],8,0.0537673186045,1,['num_4'],0,[1.2086561534088105],,,,,,,,,2018_May_18_1201,59.9735009781,sequenceLearningTask,001,105,
min1.png,min2.png,min3.png,min4.png,allBlank.png,,,,['num_1'],,,,,,0,7,7,7,,,,,,,,,,,,,,,,,['num_1'],8,0.0565070074517,1,['num_1'],0,[0.6705977388191968],,,,,,,,,2018_May_18_1201,59.9735009781,sequenceLearningTask,001,105,
min1.png,min2.png,min3.png,min4.png,allBlank.png,,,,['num_0'],,,,,,0,7,7,7,,,,,,,,,,,,,,,,,['num_0'],8,0.0567359302659,1,['num_0'],0,[0.7211199330631644],,,,,,,,,2018_May_18_1201,59.9735009781,sequenceLearningTask,001,105,
min1.png,min2.png,min3.png,min4.png,allBlank.png,,,,['num_7'],,,,,,0,8,8,8,,,,,,,,,,,,,,,,,['num_7'],9,0.058038492687,1,['num_7'],0,[0.6167787280865014],,,,,,,,,2018_May_18_1201,59.9735009781,sequenceLearningTask,001,105,
min1.png,min2.png,min3.png,min4.png,allBlank.png,,,,['num_1'],,,,,,0,8,8,8,,,,,,,,,,,,,,,,,['num_1'],9,0.0534075240139,1,['num_1'],0,[0.7402152940630913],,,,,,,,,2018_May_18_1201,59.9735009781,sequenceLearningTask,001,105,
min1.png,min2.png,min3.png,min4.png,allBlank.png,,,,['num_4'],,,,,,0,8,8,8,,,,,,,,,,,,,,,,,['num_4'],9,0.0518965516239,1,['num_4'],0,[0.6593563167843968],,,,,,,,,2018_May_18_1201,59.9735009781,sequenceLearningTask,001,105,
min1.png,min2.png,min3.png,min4.png,allBlank.png,,,,['num_0'],,,,,,0,8,8,8,,,,,,,,,,,,,,,,,['num_0'],9,0.0543966509867,1,['num_0'],0,[0.7066817968152463],,,,,,,,,2018_May_18_1201,59.9735009781,sequenceLearningTask,001,105,
min1.png,min2.png,min3.png,min4.png,allBlank.png,,,,['num_0'],,,,,,0,8,8,8,,,,,,,,,,,,,,,,,['num_0'],9,0.0525057814084,1,['num_0'],0,[0.6252492817584425],,,,,,,,,2018_May_18_1201,59.9735009781,sequenceLearningTask,001,105,
min1.png,min2.png,min3.png,min4.png,allBlank.png,,,,['num_4'],,,,,,0,8,8,8,,,,,,,,,,,,,,,,,['num_4'],9,0.0558034186251,1,['num_4'],0,[0.87240549037233],,,,,,,,,2018_May_18_1201,59.9735009781,sequenceLearningTask,001,105,
min1.png,min2.png,min3.png,min4.png,allBlank.png,,,,['num_1'],,,,,,0,8,8,8,,,,,,,,,,,,,,,,,['num_1'],9,0.0486592222005,1,['num_1'],0,[0.6128365788608789],,,,,,,,,2018_May_18_1201,59.9735009781,sequenceLearningTask,001,105,
min1.png,min2.png,min3.png,min4.png,allBlank.png,,,,['num_0'],,,,,,0,8,8,8,,,,,,,,,,,,,,,,,['num_0'],9,0.0511790139135,1,['num_0'],0,[0.5424276401754469],,,,,,,,,2018_May_18_1201,59.9735009781,sequenceLearningTask,001,105,
min1.png,min2.png,min3.png,min4.png,allBlank.png,,,,['num_7'],,,,,,0,9,9,9,,,,,,,,,,,,,,,,,['num_7'],10,0.0537882414646,1,['num_7'],0,[0.7225164440460503],,,,,,,,,2018_May_18_1201,59.9735009781,sequenceLearningTask,001,105,
min1.png,min2.png,min3.png,min4.png,allBlank.png,,,,['num_1'],,,,,,0,9,9,9,,,,,,,,,,,,,,,,,['num_1'],10,0.0517706028186,1,['num_1'],0,[0.5752198048867285],,,,,,,,,2018_May_18_1201,59.9735009781,sequenceLearningTask,001,105,
min1.png,min2.png,min3.png,min4.png,allBlank.png,,,,['num_4'],,,,,,0,9,9,9,,,,,,,,,,,,,,,,,['num_4'],10,0.051782089984,1,['num_4'],0,[0.559160337317735],,,,,,,,,2018_May_18_1201,59.9735009781,sequenceLearningTask,001,105,
min1.png,min2.png,min3.png,min4.png,allBlank.png,,,,['num_0'],,,,,,0,9,9,9,,,,,,,,,,,,,,,,,['num_0'],10,0.0492750164121,1,['num_0'],0,[0.34442870412021875],,,,,,,,,2018_May_18_1201,59.9735009781,sequenceLearningTask,001,105,
min1.png,min2.png,min3.png,min4.png,allBlank.png,,,,['num_0'],,,,,,0,9,9,9,,,,,,,,,,,,,,,,,['num_0'],10,0.0474744031671,1,['num_0'],0,[0.5131698299665004],,,,,,,,,2018_May_18_1201,59.9735009781,sequenceLearningTask,001,105,
min1.png,min2.png,min3.png,min4.png,allBlank.png,,,,['num_4'],,,,,,0,9,9,9,,,,,,,,,,,,,,,,,['num_4'],10,0.0517176799476,1,['num_4'],0,[1.1927841729484499],,,,,,,,,2018_May_18_1201,59.9735009781,sequenceLearningTask,001,105,
min1.png,min2.png,min3.png,min4.png,allBlank.png,,,,['num_1'],,,,,,0,9,9,9,,,,,,,,,,,,,,,,,['num_1'],10,0.0487642476801,1,['num_1'],0,[0.6625546717550606],,,,,,,,,2018_May_18_1201,59.9735009781,sequenceLearningTask,001,105,
min1.png,min2.png,min3.png,min4.png,allBlank.png,,,,['num_0'],,,,,,0,9,9,9,,,,,,,,,,,,,,,,,['num_0'],10,0.0535502932034,1,['num_0'],0,[0.49039611453190446],,,,,,,,,2018_May_18_1201,59.9735009781,sequenceLearningTask,001,105,
min1.png,min2.png,min3.png,min4.png,allBlank.png,,,,['num_7'],,,,,,0,0,0,0,,,,,,,,,,,,,,,,,['num_7'],1,0.0520065000746,1,['num_7'],0,[0.6028214117977768],,,,,,,,,2018_May_18_1201,59.9735009781,sequenceLearningTask,001,105,
min1.png,min2.png,min3.png,min4.png,allBlank.png,,,,['num_1'],,,,,,0,0,0,0,,,,,,,,,,,,,,,,,['num_1'],1,0.0546698812395,0,"['num_4', 'num_1']",0,"[0.7571059400215745, 1.207151744980365]",,,,,,,,,2018_May_18_1201,59.9735009781,sequenceLearningTask,001,105,
min1.png,min2.png,min3.png,min4.png,allBlank.png,,,,['num_4'],,,,,,0,0,0,0,,,,,,,,,,,,,,,,,['num_4'],1,0.0560684436932,0,"['num_7', 'num_4']",0,"[0.8205565284006298, 1.9037839132361114]",,,,,,,,,2018_May_18_1201,59.9735009781,sequenceLearningTask,001,105,
min1.png,min2.png,min3.png,min4.png,allBlank.png,,,,['num_0'],,,,,,0,0,0,0,,,,,,,,,,,,,,,,,['num_0'],1,0.0651962275151,1,['num_0'],0,[0.7123613795265555],,,,,,,,,2018_May_18_1201,59.9735009781,sequenceLearningTask,001,105,
min1.png,min2.png,min3.png,min4.png,allBlank.png,,,,['num_0'],,,,,,0,0,0,0,,,,,,,,,,,,,,,,,['num_0'],1,0.0524569612462,1,['num_0'],0,[0.7738000731915236],,,,,,,,,2018_May_18_1201,59.9735009781,sequenceLearningTask,001,105,
min1.png,min2.png,min3.png,min4.png,allBlank.png,,,,['num_4'],,,,,,0,0,0,0,,,,,,,,,,,,,,,,,['num_4'],1,0.0559810593259,1,['num_4'],0,[1.0390436442103237],,,,,,,,,2018_May_18_1201,59.9735009781,sequenceLearningTask,001,105,
min1.png,min2.png,min3.png,min4.png,allBlank.png,,,,['num_1'],,,,,,0,0,0,0,,,,,,,,,,,,,,,,,['num_1'],1,0.0519154232461,1,['num_1'],0,[0.4761782856658101],,,,,,,,,2018_May_18_1201,59.9735009781,sequenceLearningTask,001,105,
min1.png,min2.png,min3.png,min4.png,allBlank.png,,,,['num_0'],,,,,,0,0,0,0,,,,,,,,,,,,,,,,,['num_0'],1,0.0498768615071,1,['num_0'],0,[0.3442970123142004],,,,,,,,,2018_May_18_1201,59.9735009781,sequenceLearningTask,001,105,
min1.png,min2.png,min3.png,min4.png,allBlank.png,,,,['num_7'],,,,,,0,1,1,1,,,,,,,,,,,,,,,,,['num_7'],2,0.049814092461,1,['num_7'],0,[0.2921461018268019],,,,,,,,,2018_May_18_1201,59.9735009781,sequenceLearningTask,001,105,
min1.png,min2.png,min3.png,min4.png,allBlank.png,,,,['num_1'],,,,,,0,1,1,1,,,,,,,,,,,,,,,,,['num_1'],2,0.0542358306702,1,['num_1'],0,[0.7069398479070514],,,,,,,,,2018_May_18_1201,59.9735009781,sequenceLearningTask,001,105,
min1.png,min2.png,min3.png,min4.png,allBlank.png,,,,['num_4'],,,,,,0,1,1,1,,,,,,,,,,,,,,,,,['num_4'],2,0.0526149095967,1,['num_4'],0,[0.6249305128585547],,,,,,,,,2018_May_18_1201,59.9735009781,sequenceLearningTask,001,105,
min1.png,min2.png,min3.png,min4.png,allBlank.png,,,,['num_0'],,,,,,0,1,1,1,,,,,,,,,,,,,,,,,['num_0'],2,0.0561697769444,1,['num_0'],0,[0.2551311731804162],,,,,,,,,2018_May_18_1201,59.9735009781,sequenceLearningTask,001,105,
min1.png,min2.png,min3.png,min4.png,allBlank.png,,,,['num_0'],,,,,,0,1,1,1,,,,,,,,,,,,,,,,,['num_0'],2,0.056034802692,1,['num_0'],0,[0.48810688639059663],,,,,,,,,2018_May_18_1201,59.9735009781,sequenceLearningTask,001,105,
min1.png,min2.png,min3.png,min4.png,allBlank.png,,,,['num_4'],,,,,,0,1,1,1,,,,,,,,,,,,,,,,,['num_4'],2,0.0543708049227,0,"['num_7', 'num_4']",0,"[1.340531273279339, 1.6906625346746296]",,,,,,,,,2018_May_18_1201,59.9735009781,sequenceLearningTask,001,105,
min1.png,min2.png,min3.png,min4.png,allBlank.png,,,,['num_1'],,,,,,0,1,1,1,,,,,,,,,,,,,,,,,['num_1'],2,0.0485505042598,0,"['num_4', 'num_1']",0,"[0.000223999610170722, 0.6458913076203316]",,,,,,,,,2018_May_18_1201,59.9735009781,sequenceLearningTask,001,105,
min1.png,min2.png,min3.png,min4.png,allBlank.png,,,,['num_0'],,,,,,0,1,1,1,,,,,,,,,,,,,,,,,['num_0'],2,0.0462850711774,1,['num_0'],0,[0.34985515917651355],,,,,,,,,2018_May_18_1201,59.9735009781,sequenceLearningTask,001,105,
min1.png,min2.png,min3.png,min4.png,allBlank.png,,,,['num_7'],,,,,,0,2,2,2,,,,,,,,,,,,,,,,,['num_7'],3,0.0544692662079,1,['num_7'],0,[0.25461260974407196],,,,,,,,,2018_May_18_1201,59.9735009781,sequenceLearningTask,001,105,
min1.png,min2.png,min3.png,min4.png,allBlank.png,,,,['num_1'],,,,,,0,2,2,2,,,,,,,,,,,,,,,,,['num_1'],3,0.0524782943539,1,['num_1'],0,[0.44212663546204567],,,,,,,,,2018_May_18_1201,59.9735009781,sequenceLearningTask,001,105,
min1.png,min2.png,min3.png,min4.png,allBlank.png,,,,['num_4'],,,,,,0,2,2,2,,,,,,,,,,,,,,,,,['num_4'],3,0.0511174756102,0,"['num_7', 'num_4']",0,"[0.8596953523810953, 1.4095486241858453]",,,,,,,,,2018_May_18_1201,59.9735009781,sequenceLearningTask,001,105,
min1.png,min2.png,min3.png,min4.png,allBlank.png,,,,['num_0'],,,,,,0,2,2,2,,,,,,,,,,,,,,,,,['num_0'],3,0.0469628139399,1,['num_0'],0,[0.3821759398560971],,,,,,,,,2018_May_18_1201,59.9735009781,sequenceLearningTask,001,105,
min1.png,min2.png,min3.png,min4.png,allBlank.png,,,,['num_0'],,,,,,0,2,2,2,,,,,,,,,,,,,,,,,['num_0'],3,0.054957060609,1,['num_0'],0,[1.155939090065658],,,,,,,,,2018_May_18_1201,59.9735009781,sequenceLearningTask,001,105,
min1.png,min2.png,min3.png,min4.png,allBlank.png,,,,['num_4'],,,,,,0,2,2,2,,,,,,,,,,,,,,,,,['num_4'],3,0.0532380882651,0,"['num_7', 'num_4']",0,"[0.4403678684029728, 2.6065723816864192]",,,,,,,,,2018_May_18_1201,59.9735009781,sequenceLearningTask,001,105,
min1.png,min2.png,min3.png,min4.png,allBlank.png,,,,['num_1'],,,,,,0,2,2,2,,,,,,,,,,,,,,,,,['num_1'],3,0.0494940930512,1,['num_1'],0,[0.3620122722350061],,,,,,,,,2018_May_18_1201,59.9735009781,sequenceLearningTask,001,105,
min1.png,min2.png,min3.png,min4.png,allBlank.png,,,,['num_0'],,,,,,0,2,2,2,,,,,,,,,,,,,,,,,['num_0'],3,0.0509291680064,0,"['num_0', 'num_0']",0,"[0.0006863581947982311, 1.5436374847777188]",,,,,,,,,2018_May_18_1201,59.9735009781,sequenceLearningTask,001,105,
min1.png,min2.png,min3.png,min4.png,allBlank.png,,,,['num_7'],,,,,,0,3,3,3,,,,,,,,,,,,,,,,,['num_7'],4,0.0499736820348,1,['num_7'],0,[0.7607834739610553],,,,,,,,,2018_May_18_1201,59.9735009781,sequenceLearningTask,001,105,
min1.png,min2.png,min3.png,min4.png,allBlank.png,,,,['num_1'],,,,,,0,3,3,3,,,,,,,,,,,,,,,,,['num_1'],4,0.0526222942863,1,['num_1'],0,[0.4900720121804625],,,,,,,,,2018_May_18_1201,59.9735009781,sequenceLearningTask,001,105,
min1.png,min2.png,min3.png,min4.png,allBlank.png,,,,['num_4'],,,,,,0,3,3,3,,,,,,,,,,,,,,,,,['num_4'],4,0.0513734752312,0,"['num_0', 'num_4']",0,"[0.37652630591765046, 1.2928821011446416]",,,,,,,,,2018_May_18_1201,59.9735009781,sequenceLearningTask,001,105,
min1.png,min2.png,min3.png,min4.png,allBlank.png,,,,['num_0'],,,,,,0,3,3,3,,,,,,,,,,,,,,,,,['num_0'],4,0.0563285462558,1,['num_0'],0,[0.43728356435894966],,,,,,,,,2018_May_18_1201,59.9735009781,sequenceLearningTask,001,105,
min1.png,min2.png,min3.png,min4.png,allBlank.png,,,,['num_0'],,,,,,0,3,3,3,,,,,,,,,,,,,,,,,['num_0'],4,0.0516270135995,1,['num_0'],0,[0.7605709612835199],,,,,,,,,2018_May_18_1201,59.9735009781,sequenceLearningTask,001,105,
min1.png,min2.png,min3.png,min4.png,allBlank.png,,,,['num_4'],,,,,,0,3,3,3,,,,,,,,,,,,,,,,,['num_4'],4,0.0632983837277,0,"['num_7', 'num_4', 'num_1', 'num_4']",0,"[0.19530806737020612, 1.8629876556806266, 2.5118566006422043]",,,,,,,,,2018_May_18_1201,59.9735009781,sequenceLearningTask,001,105,
min1.png,min2.png,min3.png,min4.png,allBlank.png,,,,['num_1'],,,,,,0,3,3,3,,,,,,,,,,,,,,,,,['num_1'],4,0.0558350081556,1,['num_1'],0,[0.8051440347917378],,,,,,,,,2018_May_18_1201,59.9735009781,sequenceLearningTask,001,105,
min1.png,min2.png,min3.png,min4.png,allBlank.png,,,,['num_0'],,,,,,0,3,3,3,,,,,,,,,,,,,,,,,['num_0'],4,0.0488618884701,1,['num_0'],0,[0.8296695430763066],,,,,,,,,2018_May_18_1201,59.9735009781,sequenceLearningTask,001,105,
min1.png,min2.png,min3.png,min4.png,allBlank.png,,,,['num_7'],,,,,,0,4,4,4,,,,,,,,,,,,,,,,,['num_7'],5,0.0499814769719,1,['num_7'],0,[0.741502677090466],,,,,,,,,2018_May_18_1201,59.9735009781,sequenceLearningTask,001,105,
min1.png,min2.png,min3.png,min4.png,allBlank.png,,,,['num_1'],,,,,,0,4,4,4,,,,,,,,,,,,,,,,,['num_1'],5,0.0539527540095,1,['num_1'],0,[0.8416157846804708],,,,,,,,,2018_May_18_1201,59.9735009781,sequenceLearningTask,001,105,
min1.png,min2.png,min3.png,min4.png,allBlank.png,,,,['num_4'],,,,,,0,4,4,4,,,,,,,,,,,,,,,,,['num_4'],5,0.0508311169688,1,['num_4'],0,[0.8930860802065581],,,,,,,,,2018_May_18_1201,59.9735009781,sequenceLearningTask,001,105,
min1.png,min2.png,min3.png,min4.png,allBlank.png,,,,['num_0'],,,,,,0,4,4,4,,,,,,,,,,,,,,,,,['num_0'],5,0.050296143163,1,['num_0'],0,[0.6276423044037074],,,,,,,,,2018_May_18_1201,59.9735009781,sequenceLearningTask,001,105,
min1.png,min2.png,min3.png,min4.png,allBlank.png,,,,['num_0'],,,,,,0,4,4,4,,,,,,,,,,,,,,,,,['num_0'],5,0.0516627056058,1,['num_0'],0,[0.8926130551844835],,,,,,,,,2018_May_18_1201,59.9735009781,sequenceLearningTask,001,105,
min1.png,min2.png,min3.png,min4.png,allBlank.png,,,,['num_4'],,,,,,0,4,4,4,,,,,,,,,,,,,,,,,['num_4'],5,0.0590907991864,0,"['num_7', 'num_4']",0,"[0.23559847916476429, 1.7019933923147619]",,,,,,,,,2018_May_18_1201,59.9735009781,sequenceLearningTask,001,105,
min1.png,min2.png,min3.png,min4.png,allBlank.png,,,,['num_1'],,,,,,0,4,4,4,,,,,,,,,,,,,,,,,['num_1'],5,0.0530830116477,1,['num_1'],0,[0.8746672309935093],,,,,,,,,2018_May_18_1201,59.9735009781,sequenceLearningTask,001,105,
min1.png,min2.png,min3.png,min4.png,allBlank.png,,,,['num_0'],,,,,,0,4,4,4,,,,,,,,,,,,,,,,,['num_0'],5,0.0558071108535,1,['num_0'],0,[0.6058687928598374],,,,,,,,,2018_May_18_1201,59.9735009781,sequenceLearningTask,001,105,
min1.png,min2.png,min3.png,min4.png,allBlank.png,,,,['num_7'],,,,,,0,5,5,5,,,,,,,,,,,,,,,,,['num_7'],6,0.053293883102,1,['num_7'],0,[0.740525447530672],,,,,,,,,2018_May_18_1201,59.9735009781,sequenceLearningTask,001,105,
min1.png,min2.png,min3.png,min4.png,allBlank.png,,,,['num_1'],,,,,,0,5,5,5,,,,,,,,,,,,,,,,,['num_1'],6,0.0539010618813,1,['num_1'],0,[1.1550992962438613],,,,,,,,,2018_May_18_1201,59.9735009781,sequenceLearningTask,001,105,
min1.png,min2.png,min3.png,min4.png,allBlank.png,,,,['num_4'],,,,,,0,5,5,5,,,,,,,,,,,,,,,,,['num_4'],6,0.0507839375641,1,['num_4'],0,[0.7435084183234721],,,,,,,,,2018_May_18_1201,59.9735009781,sequenceLearningTask,001,105,
min1.png,min2.png,min3.png,min4.png,allBlank.png,,,,['num_0'],,,,,,0,5,5,5,,,,,,,,,,,,,,,,,['num_0'],6,0.0600860798731,1,['num_0'],0,[0.6676221527159214],,,,,,,,,2018_May_18_1201,59.9735009781,sequenceLearningTask,001,105,
min1.png,min2.png,min3.png,min4.png,allBlank.png,,,,['num_0'],,,,,,0,5,5,5,,,,,,,,,,,,,,,,,['num_0'],6,0.0574169550091,1,['num_0'],0,[1.0032791756093502],,,,,,,,,2018_May_18_1201,59.9735009781,sequenceLearningTask,001,105,
min1.png,min2.png,min3.png,min4.png,allBlank.png,,,,['num_4'],,,,,,0,5,5,5,,,,,,,,,,,,,,,,,['num_4'],6,0.055124444887,0,"['num_7', 'num_4']",0,"[0.20559031097218394, 2.072038065176457]",,,,,,,,,2018_May_18_1201,59.9735009781,sequenceLearningTask,001,105,
min1.png,min2.png,min3.png,min4.png,allBlank.png,,,,['num_1'],,,,,,0,5,5,5,,,,,,,,,,,,,,,,,['num_1'],6,0.056880340213,1,['num_1'],0,[1.0043741485569626],,,,,,,,,2018_May_18_1201,59.9735009781,sequenceLearningTask,001,105,
min1.png,min2.png,min3.png,min4.png,allBlank.png,,,,['num_0'],,,,,,0,5,5,5,,,,,,,,,,,,,,,,,['num_0'],6,0.0553180859424,1,['num_0'],0,[0.5558700850233436],,,,,,,,,2018_May_18_1201,59.9735009781,sequenceLearningTask,001,105,
min1.png,min2.png,min3.png,min4.png,allBlank.png,,,,['num_7'],,,,,,0,6,6,6,,,,,,,,,,,,,,,,,['num_7'],7,0.0526317299809,1,['num_7'],0,[1.256691376445815],,,,,,,,,2018_May_18_1201,59.9735009781,sequenceLearningTask,001,105,
min1.png,min2.png,min3.png,min4.png,allBlank.png,,,,['num_1'],,,,,,0,6,6,6,,,,,,,,,,,,,,,,,['num_1'],7,0.0567092637066,1,['num_1'],0,[0.9704447542317212],,,,,,,,,2018_May_18_1201,59.9735009781,sequenceLearningTask,001,105,
min1.png,min2.png,min3.png,min4.png,allBlank.png,,,,['num_4'],,,,,,0,6,6,6,,,,,,,,,,,,,,,,,['num_4'],7,0.0472253777552,1,['num_4'],0,[0.44809011509642005],,,,,,,,,2018_May_18_1201,59.9735009781,sequenceLearningTask,001,105,
min1.png,min2.png,min3.png,min4.png,allBlank.png,,,,['num_0'],,,,,,0,6,6,6,,,,,,,,,,,,,,,,,['num_0'],7,0.0522210639901,1,['num_0'],0,[0.375987229635939],,,,,,,,,2018_May_18_1201,59.9735009781,sequenceLearningTask,001,105,
min1.png,min2.png,min3.png,min4.png,allBlank.png,,,,['num_0'],,,,,,0,6,6,6,,,,,,,,,,,,,,,,,['num_0'],7,0.0520438333042,1,['num_0'],0,[0.47656351584009826],,,,,,,,,2018_May_18_1201,59.9735009781,sequenceLearningTask,001,105,
min1.png,min2.png,min3.png,min4.png,allBlank.png,,,,['num_4'],,,,,,0,6,6,6,,,,,,,,,,,,,,,,,['num_4'],7,0.0573833140079,1,['num_4'],0,[0.8371279954444617],,,,,,,,,2018_May_18_1201,59.9735009781,sequenceLearningTask,001,105,
min1.png,min2.png,min3.png,min4.png,allBlank.png,,,,['num_1'],,,,,,0,6,6,6,,,,,,,,,,,,,,,,,['num_1'],7,0.0490391191561,1,['num_1'],0,[0.9454207851085812],,,,,,,,,2018_May_18_1201,59.9735009781,sequenceLearningTask,001,105,
min1.png,min2.png,min3.png,min4.png,allBlank.png,,,,['num_0'],,,,,,0,6,6,6,,,,,,,,,,,,,,,,,['num_0'],7,0.0504233227111,1,['num_0'],0,[0.41144113475456834],,,,,,,,,2018_May_18_1201,59.9735009781,sequenceLearningTask,001,105,
min1.png,min2.png,min3.png,min4.png,allBlank.png,,,,['num_7'],,,,,,0,7,7,7,,,,,,,,,,,,,,,,,['num_7'],8,0.0580204415601,0,"['num_4', 'num_7']",0,"[0.4505799582693726, 1.3341595886740834]",,,,,,,,,2018_May_18_1201,59.9735009781,sequenceLearningTask,001,105,
min1.png,min2.png,min3.png,min4.png,allBlank.png,,,,['num_1'],,,,,,0,7,7,7,,,,,,,,,,,,,,,,,['num_1'],8,0.0548105991911,1,['num_1'],0,[0.9897062692325562],,,,,,,,,2018_May_18_1201,59.9735009781,sequenceLearningTask,001,105,
min1.png,min2.png,min3.png,min4.png,allBlank.png,,,,['num_4'],,,,,,0,7,7,7,,,,,,,,,,,,,,,,,['num_4'],8,0.0475527620874,1,['num_4'],0,[1.9636915316805243],,,,,,,,,2018_May_18_1201,59.9735009781,sequenceLearningTask,001,105,
min1.png,min2.png,min3.png,min4.png,allBlank.png,,,,['num_0'],,,,,,0,7,7,7,,,,,,,,,,,,,,,,,['num_0'],8,0.0407076422125,1,['num_0'],0,[0.8897256741765887],,,,,,,,,2018_May_18_1201,59.9735009781,sequenceLearningTask,001,105,
min1.png,min2.png,min3.png,min4.png,allBlank.png,,,,['num_0'],,,,,,0,7,7,7,,,,,,,,,,,,,,,,,['num_0'],8,0.0524278329685,1,['num_0'],0,[0.7421069841366261],,,,,,,,,2018_May_18_1201,59.9735009781,sequenceLearningTask,001,105,
min1.png,min2.png,min3.png,min4.png,allBlank.png,,,,['num_4'],,,,,,0,7,7,7,,,,,,,,,,,,,,,,,['num_4'],8,0.0529759349301,1,['num_4'],0,[1.0745775492396206],,,,,,,,,2018_May_18_1201,59.9735009781,sequenceLearningTask,001,105,
min1.png,min2.png,min3.png,min4.png,allBlank.png,,,,['num_1'],,,,,,0,7,7,7,,,,,,,,,,,,,,,,,['num_1'],8,0.0530944985803,1,['num_1'],0,[0.6749165027868003],,,,,,,,,2018_May_18_1201,59.9735009781,sequenceLearningTask,001,105,
min1.png,min2.png,min3.png,min4.png,allBlank.png,,,,['num_0'],,,,,,0,7,7,7,,,,,,,,,,,,,,,,,['num_0'],8,0.0539178824984,1,['num_0'],0,[0.7066596429795027],,,,,,,,,2018_May_18_1201,59.9735009781,sequenceLearningTask,001,105,
min1.png,min2.png,min3.png,min4.png,allBlank.png,,,,['num_7'],,,,,,0,8,8,8,,,,,,,,,,,,,,,,,['num_7'],9,0.0529537810944,1,['num_7'],0,[0.7564528125803918],,,,,,,,,2018_May_18_1201,59.9735009781,sequenceLearningTask,001,105,
min1.png,min2.png,min3.png,min4.png,allBlank.png,,,,['num_1'],,,,,,0,8,8,8,,,,,,,,,,,,,,,,,['num_1'],9,0.0525779866148,1,['num_1'],0,[0.7579801953397691],,,,,,,,,2018_May_18_1201,59.9735009781,sequenceLearningTask,001,105,
min1.png,min2.png,min3.png,min4.png,allBlank.png,,,,['num_4'],,,,,,0,8,8,8,,,,,,,,,,,,,,,,,['num_4'],9,0.0529381912202,1,['num_4'],0,[0.7256450555287302],,,,,,,,,2018_May_18_1201,59.9735009781,sequenceLearningTask,001,105,
min1.png,min2.png,min3.png,min4.png,allBlank.png,,,,['num_0'],,,,,,0,8,8,8,,,,,,,,,,,,,,,,,['num_0'],9,0.0562547000591,1,['num_0'],0,[0.519870949909091],,,,,,,,,2018_May_18_1201,59.9735009781,sequenceLearningTask,001,105,
min1.png,min2.png,min3.png,min4.png,allBlank.png,,,,['num_0'],,,,,,0,8,8,8,,,,,,,,,,,,,,,,,['num_0'],9,0.0557931622025,1,['num_0'],0,[0.9550691833719611],,,,,,,,,2018_May_18_1201,59.9735009781,sequenceLearningTask,001,105,
min1.png,min2.png,min3.png,min4.png,allBlank.png,,,,['num_4'],,,,,,0,8,8,8,,,,,,,,,,,,,,,,,['num_4'],9,0.0510370652191,1,['num_4'],0,[0.9267693208530545],,,,,,,,,2018_May_18_1201,59.9735009781,sequenceLearningTask,001,105,
min1.png,min2.png,min3.png,min4.png,allBlank.png,,,,['num_1'],,,,,,0,8,8,8,,,,,,,,,,,,,,,,,['num_1'],9,0.0546415736899,1,['num_1'],0,[0.6063012026716024],,,,,,,,,2018_May_18_1201,59.9735009781,sequenceLearningTask,001,105,
min1.png,min2.png,min3.png,min4.png,allBlank.png,,,,['num_0'],,,,,,0,8,8,8,,,,,,,,,,,,,,,,,['num_0'],9,0.0552224961575,1,['num_0'],0,[0.4551489781588316],,,,,,,,,2018_May_18_1201,59.9735009781,sequenceLearningTask,001,105,
min1.png,min2.png,min3.png,min4.png,allBlank.png,,,,['num_7'],,,,,,0,9,9,9,,,,,,,,,,,,,,,,,['num_7'],10,0.0476901975926,1,['num_7'],0,[0.7468479012604803],,,,,,,,,2018_May_18_1201,59.9735009781,sequenceLearningTask,001,105,
min1.png,min2.png,min3.png,min4.png,allBlank.png,,,,['num_1'],,,,,,0,9,9,9,,,,,,,,,,,,,,,,,['num_1'],10,0.0535888571758,1,['num_1'],0,[1.206598720047623],,,,,,,,,2018_May_18_1201,59.9735009781,sequenceLearningTask,001,105,
min1.png,min2.png,min3.png,min4.png,allBlank.png,,,,['num_4'],,,,,,0,9,9,9,,,,,,,,,,,,,,,,,['num_4'],10,0.0575831085443,1,['num_4'],0,[0.9031234013382345],,,,,,,,,2018_May_18_1201,59.9735009781,sequenceLearningTask,001,105,
min1.png,min2.png,min3.png,min4.png,allBlank.png,,,,['num_0'],,,,,,0,9,9,9,,,,,,,,,,,,,,,,,['num_0'],10,0.0553710085806,0,"['num_0', 'num_0']",0,"[0.0005858454387634993, 1.3395803000312299]",,,,,,,,,2018_May_18_1201,59.9735009781,sequenceLearningTask,001,105,
min1.png,min2.png,min3.png,min4.png,allBlank.png,,,,['num_0'],,,,,,0,9,9,9,,,,,,,,,,,,,,,,,['num_0'],10,0.0508791168686,0,"['num_0', 'num_0']",0,"[0.00029907654970884323, 0.4754418763332069]",,,,,,,,,2018_May_18_1201,59.9735009781,sequenceLearningTask,001,105,
min1.png,min2.png,min3.png,min4.png,allBlank.png,,,,['num_4'],,,,,,0,9,9,9,,,,,,,,,,,,,,,,,['num_4'],10,0.0496651695576,0,"['num_7', 'num_4']",0,"[0.4780461809132248, 2.5594544908963144]",,,,,,,,,2018_May_18_1201,59.9735009781,sequenceLearningTask,001,105,
min1.png,min2.png,min3.png,min4.png,allBlank.png,,,,['num_1'],,,,,,0,9,9,9,,,,,,,,,,,,,,,,,['num_1'],10,0.0494698877446,1,['num_1'],0,[1.1782122934237123],,,,,,,,,2018_May_18_1201,59.9735009781,sequenceLearningTask,001,105,
min1.png,min2.png,min3.png,min4.png,allBlank.png,,,,['num_0'],,,,,,0,9,9,9,,,,,,,,,,,,,,,,,['num_0'],10,0.0521894742269,1,['num_0'],0,[0.4254099379759282],,,,,,,,,2018_May_18_1201,59.9735009781,sequenceLearningTask,001,105,
min1.png,min2.png,min3.png,min4.png,images/allBlank.png,images/min1.png,'num_7',"['num_7', 'num_4', 'num_1', 'num_0']",['num_7'],num_7,,,,,0,9,9,9,0,0,0,0,,,,,,,,,,,,,['num_7'],,0.0570600323845,1,['num_7'],0,[4.045085072750226],1,,,,,,,,2018_May_18_1201,59.9735009781,sequenceLearningTask,001,105,
min1.png,min2.png,min3.png,min4.png,images/allBlank.png,images/min2.png,'num_4',"['num_7', 'num_4', 'num_1', 'num_0']",['num_4'],num_4,,,,,0,9,9,9,0,1,1,1,,,,,,,,,,,,,['num_4'],,0.0505619889591,1,['num_4'],0,[0.6920319686178118],1,,,,,,,,2018_May_18_1201,59.9735009781,sequenceLearningTask,001,105,
min1.png,min2.png,min3.png,min4.png,images/allBlank.png,images/min4.png,'num_0',"['num_7', 'num_4', 'num_1', 'num_0']",['num_0'],num_0,,,,,0,9,9,9,0,2,2,3,,,,,,,,,,,,,['num_0'],,0.0534210624173,1,['num_0'],0,[0.8902421863749623],1,,,,,,,,2018_May_18_1201,59.9735009781,sequenceLearningTask,001,105,
min1.png,min2.png,min3.png,min4.png,images/allBlank.png,images/min3.png,'num_1',"['num_7', 'num_4', 'num_1', 'num_0']",['num_1'],num_1,,,,,0,9,9,9,0,3,3,2,,,,,,,,,,,,,['num_1'],,0.0513020907529,1,['num_1'],0,[0.5914708618074656],1,,,,,,,,2018_May_18_1201,59.9735009781,sequenceLearningTask,001,105,
min1.png,min2.png,min3.png,min4.png,images/allBlank.png,images/min3.png,'num_1',"['num_7', 'num_4', 'num_1', 'num_0']",['num_1'],num_1,,,,,0,9,9,9,1,0,4,2,,,,,,,,,,,,,['num_1'],,0.0493422984146,1,['num_1'],0,[0.8752813844475895],1,,,,,,,,2018_May_18_1201,59.9735009781,sequenceLearningTask,001,105,
min1.png,min2.png,min3.png,min4.png,images/allBlank.png,images/min4.png,'num_0',"['num_7', 'num_4', 'num_1', 'num_0']",['num_0'],num_0,,,,,0,9,9,9,1,1,5,3,,,,,,,,,,,,,['num_0'],,0.0483786072582,1,['num_0'],0,[0.6953152467031032],1,,,,,,,,2018_May_18_1201,59.9735009781,sequenceLearningTask,001,105,
min1.png,min2.png,min3.png,min4.png,images/allBlank.png,images/min2.png,'num_4',"['num_7', 'num_4', 'num_1', 'num_0']",['num_4'],num_4,,,,,0,9,9,9,1,2,6,1,,,,,,,,,,,,,['num_4'],,0.0539191132411,1,['num_4'],0,[1.239762987010181],1,,,,,,,,2018_May_18_1201,59.9735009781,sequenceLearningTask,001,105,
min1.png,min2.png,min3.png,min4.png,images/allBlank.png,images/min1.png,'num_7',"['num_7', 'num_4', 'num_1', 'num_0']",['num_7'],num_7,,,,,0,9,9,9,1,3,7,0,,,,,,,,,,,,,['num_7'],,0.0551818807144,1,['num_7'],0,[0.953524159733206],1,,,,,,,,2018_May_18_1201,59.9735009781,sequenceLearningTask,001,105,
min1.png,min2.png,min3.png,min4.png,images/allBlank.png,images/min1.png,'num_7',"['num_7', 'num_4', 'num_1', 'num_0']",['num_7'],num_7,,,,,0,9,9,9,2,0,8,0,,,,,,,,,,,,,['num_7'],,0.0497804516926,1,['num_7'],0,[0.8585827380884439],1,,,,,,,,2018_May_18_1201,59.9735009781,sequenceLearningTask,001,105,
min1.png,min2.png,min3.png,min4.png,images/allBlank.png,images/min2.png,'num_4',"['num_7', 'num_4', 'num_1', 'num_0']",['num_4'],num_4,,,,,0,9,9,9,2,1,9,1,,,,,,,,,,,,,['num_4'],,0.0562116231304,1,['num_4'],0,[0.7854976998642087],1,,,,,,,,2018_May_18_1201,59.9735009781,sequenceLearningTask,001,105,
min1.png,min2.png,min3.png,min4.png,images/allBlank.png,images/min3.png,'num_1',"['num_7', 'num_4', 'num_1', 'num_0']",['num_1'],num_1,,,,,0,9,9,9,2,2,10,2,,,,,,,,,,,,,['num_1'],,0.0586555176415,1,['num_1'],0,[0.8833761434070766],1,,,,,,,,2018_May_18_1201,59.9735009781,sequenceLearningTask,001,105,
min1.png,min2.png,min3.png,min4.png,images/allBlank.png,images/min4.png,'num_0',"['num_7', 'num_4', 'num_1', 'num_0']",['num_0'],num_0,,,,,0,9,9,9,2,3,11,3,,,,,,,,,,,,,['num_0'],,0.0539909079671,1,['num_0'],0,[0.45483061973936856],1,,,,,,,,2018_May_18_1201,59.9735009781,sequenceLearningTask,001,105,
min1.png,min2.png,min3.png,min4.png,images/allBlank.png,images/min2.png,'num_4',"['num_7', 'num_4', 'num_1', 'num_0']",['num_4'],num_4,,,,,0,9,9,9,3,0,12,1,,,,,,,,,,,,,['num_4'],,0.0543051639106,1,['num_4'],0,[1.0549759324640036],1,,,,,,,,2018_May_18_1201,59.9735009781,sequenceLearningTask,001,105,
min1.png,min2.png,min3.png,min4.png,images/allBlank.png,images/min4.png,'num_0',"['num_7', 'num_4', 'num_1', 'num_0']",['num_0'],num_0,,,,,0,9,9,9,3,1,13,3,,,,,,,,,,,,,['num_0'],,0.0539827027824,1,['num_0'],0,[1.256323786918074],1,,,,,,,,2018_May_18_1201,59.9735009781,sequenceLearningTask,001,105,
min1.png,min2.png,min3.png,min4.png,images/allBlank.png,images/min3.png,'num_1',"['num_7', 'num_4', 'num_1', 'num_0']",['num_1'],num_1,,,,,0,9,9,9,3,2,14,2,,,,,,,,,,,,,['num_1'],,0.0543880355544,1,['num_1'],0,[1.0368709289468825],1,,,,,,,,2018_May_18_1201,59.9735009781,sequenceLearningTask,001,105,
min1.png,min2.png,min3.png,min4.png,images/allBlank.png,images/min1.png,'num_7',"['num_7', 'num_4', 'num_1', 'num_0']",['num_7'],num_7,,,,,0,9,9,9,3,3,15,0,,,,,,,,,,,,,['num_7'],,0.0471585060004,1,['num_7'],0,[1.330048414412886],1,,,,,,,,2018_May_18_1201,59.9735009781,sequenceLearningTask,001,105,
min1.png,min2.png,min3.png,min4.png,images/allBlank.png,images/min1.png,'num_7',"['num_7', 'num_4', 'num_1', 'num_0']",['num_7'],num_7,,,,,0,9,9,9,4,0,16,0,,,,,,,,,,,,,['num_7'],,0.0508766551502,1,['num_7'],0,[1.0580040311906487],1,,,,,,,,2018_May_18_1201,59.9735009781,sequenceLearningTask,001,105,
min1.png,min2.png,min3.png,min4.png,images/allBlank.png,images/min2.png,'num_4',"['num_7', 'num_4', 'num_1', 'num_0']",['num_4'],num_4,,,,,0,9,9,9,4,1,17,1,,,,,,,,,,,,,['num_4'],,0.0488889655098,1,['num_4'],0,[0.7776831453666091],1,,,,,,,,2018_May_18_1201,59.9735009781,sequenceLearningTask,001,105,
min1.png,min2.png,min3.png,min4.png,images/allBlank.png,images/min3.png,'num_1',"['num_7', 'num_4', 'num_1', 'num_0']",['num_1'],num_1,,,,,0,9,9,9,4,2,18,2,,,,,,,,,,,,,['num_1'],,0.0548709067516,1,['num_1'],0,[0.6881891016382724],1,,,,,,,,2018_May_18_1201,59.9735009781,sequenceLearningTask,001,105,
min1.png,min2.png,min3.png,min4.png,images/allBlank.png,images/min4.png,'num_0',"['num_7', 'num_4', 'num_1', 'num_0']",['num_0'],num_0,,,,,0,9,9,9,4,3,19,3,,,,,,,,,,,,,['num_0'],,0.0496483491734,1,['num_0'],0,[0.4748773642349988],1,,,,,,,,2018_May_18_1201,59.9735009781,sequenceLearningTask,001,105,
min1.png,min2.png,min3.png,min4.png,images/allBlank.png,images/min4.png,'num_0',"['num_7', 'num_4', 'num_1', 'num_0']",['num_0'],num_0,,,,,0,9,9,9,5,0,20,3,,,,,,,,,,,,,['num_0'],,0.0538374721073,1,['num_0'],0,[0.9220366086810827],1,,,,,,,,2018_May_18_1201,59.9735009781,sequenceLearningTask,001,105,
min1.png,min2.png,min3.png,min4.png,images/allBlank.png,images/min1.png,'num_7',"['num_7', 'num_4', 'num_1', 'num_0']",['num_7'],num_7,,,,,0,9,9,9,5,1,21,0,,,,,,,,,,,,,['num_7'],,0.0492729649413,1,['num_7'],0,[0.877490202197805],1,,,,,,,,2018_May_18_1201,59.9735009781,sequenceLearningTask,001,105,
min1.png,min2.png,min3.png,min4.png,images/allBlank.png,images/min2.png,'num_4',"['num_7', 'num_4', 'num_1', 'num_0']",['num_4'],num_4,,,,,0,9,9,9,5,2,22,1,,,,,,,,,,,,,['num_4'],,0.0534899854101,1,['num_4'],0,[0.7710849996656179],1,,,,,,,,2018_May_18_1201,59.9735009781,sequenceLearningTask,001,105,
min1.png,min2.png,min3.png,min4.png,images/allBlank.png,images/min3.png,'num_1',"['num_7', 'num_4', 'num_1', 'num_0']",['num_1'],num_1,,,,,0,9,9,9,5,3,23,2,,,,,,,,,,,,,['num_1'],,0.0491355292033,1,['num_1'],0,[0.8595480702351779],1,,,,,,,,2018_May_18_1201,59.9735009781,sequenceLearningTask,001,105,
min1.png,min2.png,min3.png,min4.png,images/allBlank.png,images/min1.png,'num_7',"['num_7', 'num_4', 'num_1', 'num_0']",['num_7'],num_7,,,,,0,9,9,9,6,0,24,0,,,,,,,,,,,,,['num_7'],,0.0559182902798,1,['num_7'],0,[1.1043354612775147],1,,,,,,,,2018_May_18_1201,59.9735009781,sequenceLearningTask,001,105,
min1.png,min2.png,min3.png,min4.png,images/allBlank.png,images/min4.png,'num_0',"['num_7', 'num_4', 'num_1', 'num_0']",['num_0'],num_0,,,,,0,9,9,9,6,1,25,3,,,,,,,,,,,,,['num_0'],,0.0578776723705,1,['num_0'],0,[1.185945617267862],1,,,,,,,,2018_May_18_1201,59.9735009781,sequenceLearningTask,001,105,
min1.png,min2.png,min3.png,min4.png,images/allBlank.png,images/min2.png,'num_4',"['num_7', 'num_4', 'num_1', 'num_0']",['num_4'],num_4,,,,,0,9,9,9,6,2,26,1,,,,,,,,,,,,,['num_4'],,0.0570087505039,1,['num_4'],0,[1.1512199162971228],1,,,,,,,,2018_May_18_1201,59.9735009781,sequenceLearningTask,001,105,
min1.png,min2.png,min3.png,min4.png,images/allBlank.png,images/min3.png,'num_1',"['num_7', 'num_4', 'num_1', 'num_0']",['num_1'],num_1,,,,,0,9,9,9,6,3,27,2,,,,,,,,,,,,,['num_1'],,0.055268855067,1,['num_1'],0,[0.686997308395803],1,,,,,,,,2018_May_18_1201,59.9735009781,sequenceLearningTask,001,105,
min1.png,min2.png,min3.png,min4.png,images/allBlank.png,images/min1.png,'num_7',"['num_7', 'num_4', 'num_1', 'num_0']",['num_7'],num_7,,,,,0,9,9,9,7,0,28,0,,,,,,,,,,,,,['num_7'],,0.0500549126882,1,['num_7'],0,[0.8761158448178321],1,,,,,,,,2018_May_18_1201,59.9735009781,sequenceLearningTask,001,105,
min1.png,min2.png,min3.png,min4.png,images/allBlank.png,images/min4.png,'num_0',"['num_7', 'num_4', 'num_1', 'num_0']",['num_0'],num_0,,,,,0,9,9,9,7,1,29,3,,,,,,,,,,,,,['num_0'],,0.0502280408982,1,['num_0'],0,[0.9093149832915515],1,,,,,,,,2018_May_18_1201,59.9735009781,sequenceLearningTask,001,105,
min1.png,min2.png,min3.png,min4.png,images/allBlank.png,images/min3.png,'num_1',"['num_7', 'num_4', 'num_1', 'num_0']",['num_1'],num_1,,,,,0,9,9,9,7,2,30,2,,,,,,,,,,,,,['num_1'],,0.0509742964059,1,['num_1'],0,[1.008719579083845],1,,,,,,,,2018_May_18_1201,59.9735009781,sequenceLearningTask,001,105,
min1.png,min2.png,min3.png,min4.png,images/allBlank.png,images/min2.png,'num_4',"['num_7', 'num_4', 'num_1', 'num_0']",['num_4'],num_4,,,,,0,9,9,9,7,3,31,1,,,,,,,,,,,,,['num_4'],,0.0505176812876,1,['num_4'],0,[0.8748641540296376],1,,,,,,,,2018_May_18_1201,59.9735009781,sequenceLearningTask,001,105,
min1.png,min2.png,min3.png,min4.png,images/allBlank.png,images/min2.png,'num_4',"['num_7', 'num_4', 'num_1', 'num_0']",['num_4'],num_4,,,,,0,9,9,9,8,0,32,1,,,,,,,,,,,,,['num_4'],,0.0517123464961,1,['num_4'],0,[0.7078100005164742],1,,,,,,,,2018_May_18_1201,59.9735009781,sequenceLearningTask,001,105,
min1.png,min2.png,min3.png,min4.png,images/allBlank.png,images/min4.png,'num_0',"['num_7', 'num_4', 'num_1', 'num_0']",['num_0'],num_0,,,,,0,9,9,9,8,1,33,3,,,,,,,,,,,,,['num_0'],,0.0507055786438,0,"['num_1', 'num_0']",0,"[0.0002945635933429003, 0.8248921129852533]",0,,,,,,,,2018_May_18_1201,59.9735009781,sequenceLearningTask,001,105,
min1.png,min2.png,min3.png,min4.png,images/allBlank.png,images/min3.png,'num_1',"['num_7', 'num_4', 'num_1', 'num_0']",['num_1'],num_1,,,,,0,9,9,9,8,2,34,2,,,,,,,,,,,,,['num_1'],,0.0548487529159,1,['num_1'],0,[0.9189157919026911],1,,,,,,,,2018_May_18_1201,59.9735009781,sequenceLearningTask,001,105,
min1.png,min2.png,min3.png,min4.png,images/allBlank.png,images/min1.png,'num_7',"['num_7', 'num_4', 'num_1', 'num_0']",['num_7'],num_7,,,,,0,9,9,9,8,3,35,0,,,,,,,,,,,,,['num_7'],,0.0549779834691,1,['num_7'],0,[1.0547913170885295],1,,,,,,,,2018_May_18_1201,59.9735009781,sequenceLearningTask,001,105,
min1.png,min2.png,min3.png,min4.png,images/allBlank.png,images/min4.png,'num_0',"['num_7', 'num_4', 'num_1', 'num_0']",['num_0'],num_0,,,,,0,9,9,9,9,0,36,3,,,,,,,,,,,,,['num_0'],,0.057409160072,1,['num_0'],0,[1.35082172206603],1,,,,,,,,2018_May_18_1201,59.9735009781,sequenceLearningTask,001,105,
min1.png,min2.png,min3.png,min4.png,images/allBlank.png,images/min1.png,'num_7',"['num_7', 'num_4', 'num_1', 'num_0']",['num_7'],num_7,,,,,0,9,9,9,9,1,37,0,,,,,,,,,,,,,['num_7'],,0.0517217826564,1,['num_7'],0,[3.0907789652701467],1,,,,,,,,2018_May_18_1201,59.9735009781,sequenceLearningTask,001,105,
min1.png,min2.png,min3.png,min4.png,images/allBlank.png,images/min3.png,'num_1',"['num_7', 'num_4', 'num_1', 'num_0']",['num_1'],num_1,,,,,0,9,9,9,9,2,38,2,,,,,,,,,,,,,['num_1'],,0.0541115230881,1,['num_1'],0,[0.8037897800095379],1,,,,,,,,2018_May_18_1201,59.9735009781,sequenceLearningTask,001,105,
min1.png,min2.png,min3.png,min4.png,images/allBlank.png,images/min2.png,'num_4',"['num_7', 'num_4', 'num_1', 'num_0']",['num_4'],num_4,,,,,0,9,9,9,9,3,39,1,,,,,,,,,,,,,['num_4'],,0.0548618813045,1,['num_4'],0,[0.7860215965192765],1,,,,,,,,2018_May_18_1201,59.9735009781,sequenceLearningTask,001,105,
min1.png,min2.png,min3.png,min4.png,images/allBlank.png,images/min2.png,'num_4',"['num_7', 'num_4', 'num_1', 'num_0']",['num_4'],num_4,,,,,0,9,9,9,10,0,40,1,,,,,,,,,,,,,['num_4'],,0.0540245489683,1,['num_4'],0,[0.7879424148704857],1,,,,,,,,2018_May_18_1201,59.9735009781,sequenceLearningTask,001,105,
min1.png,min2.png,min3.png,min4.png,images/allBlank.png,images/min1.png,'num_7',"['num_7', 'num_4', 'num_1', 'num_0']",['num_7'],num_7,,,,,0,9,9,9,10,1,41,0,,,,,,,,,,,,,['num_7'],,0.0523929612245,0,"['num_4', 'num_7', 'num_4', 'num_7']",0,"[0.4734550069551915, 0.874503128696233, 1.54099543672055]",0,,,,,,,,2018_May_18_1201,59.9735009781,sequenceLearningTask,001,105,
min1.png,min2.png,min3.png,min4.png,images/allBlank.png,images/min4.png,'num_0',"['num_7', 'num_4', 'num_1', 'num_0']",['num_0'],num_0,,,,,0,9,9,9,10,2,42,3,,,,,,,,,,,,,['num_0'],,0.0551671115682,1,['num_0'],0,[1.1536880158819258],1,,,,,,,,2018_May_18_1201,59.9735009781,sequenceLearningTask,001,105,
min1.png,min2.png,min3.png,min4.png,images/allBlank.png,images/min3.png,'num_1',"['num_7', 'num_4', 'num_1', 'num_0']",['num_1'],num_1,,,,,0,9,9,9,10,3,43,2,,,,,,,,,,,,,['num_1'],,0.0596216702834,1,['num_1'],0,[0.780435552354902],1,,,,,,,,2018_May_18_1201,59.9735009781,sequenceLearningTask,001,105,
min1.png,min2.png,min3.png,min4.png,images/allBlank.png,images/min3.png,'num_1',"['num_7', 'num_4', 'num_1', 'num_0']",['num_1'],num_1,,,,,0,9,9,9,11,0,44,2,,,,,,,,,,,,,['num_1'],,0.0559703926556,1,['num_1'],0,[0.6356775767635554],1,,,,,,,,2018_May_18_1201,59.9735009781,sequenceLearningTask,001,105,
min1.png,min2.png,min3.png,min4.png,images/allBlank.png,images/min4.png,'num_0',"['num_7', 'num_4', 'num_1', 'num_0']",['num_0'],num_0,,,,,0,9,9,9,11,1,45,3,,,,,,,,,,,,,['num_0'],,0.0583798254374,1,['num_0'],0,[0.865162012167275],1,,,,,,,,2018_May_18_1201,59.9735009781,sequenceLearningTask,001,105,
min1.png,min2.png,min3.png,min4.png,images/allBlank.png,images/min1.png,'num_7',"['num_7', 'num_4', 'num_1', 'num_0']",['num_7'],num_7,,,,,0,9,9,9,11,2,46,0,,,,,,,,,,,,,['num_7'],,0.0563211615663,1,['num_7'],0,[0.8339928197674453],1,,,,,,,,2018_May_18_1201,59.9735009781,sequenceLearningTask,001,105,
min1.png,min2.png,min3.png,min4.png,images/allBlank.png,images/min2.png,'num_4',"['num_7', 'num_4', 'num_1', 'num_0']",['num_4'],num_4,,,,,0,9,9,9,11,3,47,1,,,,,,,,,,,,,['num_4'],,0.0426670245361,1,['num_4'],0,[0.8008593220729381],1,,,,,,,,2018_May_18_1201,59.9735009781,sequenceLearningTask,001,105,
min1.png,min2.png,min3.png,min4.png,images/allBlank.png,images/min4.png,'num_0',"['num_7', 'num_4', 'num_1', 'num_0']",['num_0'],num_0,,,,,0,9,9,9,12,0,48,3,,,,,,,,,,,,,['num_0'],,0.049357888056,1,['num_0'],0,[0.9608098943717778],1,,,,,,,,2018_May_18_1201,59.9735009781,sequenceLearningTask,001,105,
min1.png,min2.png,min3.png,min4.png,images/allBlank.png,images/min3.png,'num_1',"['num_7', 'num_4', 'num_1', 'num_0']",['num_1'],num_1,,,,,0,9,9,9,12,1,49,2,,,,,,,,,,,,,['num_1'],,0.0555051625706,1,['num_1'],0,[0.936172386398539],1,,,,,,,,2018_May_18_1201,59.9735009781,sequenceLearningTask,001,105,
min1.png,min2.png,min3.png,min4.png,images/allBlank.png,images/min2.png,'num_4',"['num_7', 'num_4', 'num_1', 'num_0']",['num_4'],num_4,,,,,0,9,9,9,12,2,50,1,,,,,,,,,,,,,['num_4'],,0.0529882425908,1,['num_4'],0,[0.8728555412963033],1,,,,,,,,2018_May_18_1201,59.9735009781,sequenceLearningTask,001,105,
min1.png,min2.png,min3.png,min4.png,images/allBlank.png,images/min1.png,'num_7',"['num_7', 'num_4', 'num_1', 'num_0']",['num_7'],num_7,,,,,0,9,9,9,12,3,51,0,,,,,,,,,,,,,['num_7'],,0.056170187192,1,['num_7'],0,[1.2516509722918272],1,,,,,,,,2018_May_18_1201,59.9735009781,sequenceLearningTask,001,105,
min1.png,min2.png,min3.png,min4.png,images/allBlank.png,images/min4.png,'num_0',"['num_7', 'num_4', 'num_1', 'num_0']",['num_0'],num_0,,,,,0,9,9,9,13,0,52,3,,,,,,,,,,,,,['num_0'],,0.0497615798377,1,['num_0'],0,[1.2607951662503183],1,,,,,,,,2018_May_18_1201,59.9735009781,sequenceLearningTask,001,105,
min1.png,min2.png,min3.png,min4.png,images/allBlank.png,images/min3.png,'num_1',"['num_7', 'num_4', 'num_1', 'num_0']",['num_1'],num_1,,,,,0,9,9,9,13,1,53,2,,,,,,,,,,,,,['num_1'],,0.054276856361,1,['num_1'],0,[1.8215911940205842],1,,,,,,,,2018_May_18_1201,59.9735009781,sequenceLearningTask,001,105,
min1.png,min2.png,min3.png,min4.png,images/allBlank.png,images/min1.png,'num_7',"['num_7', 'num_4', 'num_1', 'num_0']",['num_7'],num_7,,,,,0,9,9,9,13,2,54,0,,,,,,,,,,,,,['num_7'],,0.053208139725,1,['num_7'],0,[0.9211278920993209],1,,,,,,,,2018_May_18_1201,59.9735009781,sequenceLearningTask,001,105,
min1.png,min2.png,min3.png,min4.png,images/allBlank.png,images/min2.png,'num_4',"['num_7', 'num_4', 'num_1', 'num_0']",['num_4'],num_4,,,,,0,9,9,9,13,3,55,1,,,,,,,,,,,,,['num_4'],,0.0543281382415,1,['num_4'],0,[0.720869266660884],1,,,,,,,,2018_May_18_1201,59.9735009781,sequenceLearningTask,001,105,
min1.png,min2.png,min3.png,min4.png,images/allBlank.png,images/min4.png,'num_0',"['num_7', 'num_4', 'num_1', 'num_0']",['num_0'],num_0,,,,,0,9,9,9,14,0,56,3,,,,,,,,,,,,,['num_0'],,0.0574731600937,1,['num_0'],0,[1.0357706227805465],1,,,,,,,,2018_May_18_1201,59.9735009781,sequenceLearningTask,001,105,
min1.png,min2.png,min3.png,min4.png,images/allBlank.png,images/min3.png,'num_1',"['num_7', 'num_4', 'num_1', 'num_0']",['num_1'],num_1,,,,,0,9,9,9,14,1,57,2,,,,,,,,,,,,,['num_1'],,0.0534555241466,1,['num_1'],0,[2.954384876647964],1,,,,,,,,2018_May_18_1201,59.9735009781,sequenceLearningTask,001,105,
min1.png,min2.png,min3.png,min4.png,images/allBlank.png,images/min2.png,'num_4',"['num_7', 'num_4', 'num_1', 'num_0']",['num_4'],num_4,,,,,0,9,9,9,14,2,58,1,,,,,,,,,,,,,['num_4'],,0.0543851638213,1,['num_4'],0,[1.070667400257662],1,,,,,,,,2018_May_18_1201,59.9735009781,sequenceLearningTask,001,105,
min1.png,min2.png,min3.png,min4.png,images/allBlank.png,images/min1.png,'num_7',"['num_7', 'num_4', 'num_1', 'num_0']",['num_7'],num_7,,,,,0,9,9,9,14,3,59,0,,,,,,,,,,,,,['num_7'],,0.0571954166517,1,['num_7'],0,[0.9353916691616178],1,,,,,,,,2018_May_18_1201,59.9735009781,sequenceLearningTask,001,105,
min1.png,min2.png,min3.png,min4.png,images/allBlank.png,images/min3.png,'num_1',"['num_7', 'num_4', 'num_1', 'num_0']",['num_1'],num_1,,,,,0,9,9,9,15,0,60,2,,,,,,,,,,,,,['num_1'],,0.0590801322833,1,['num_1'],0,[0.9669235278852284],1,,,,,,,,2018_May_18_1201,59.9735009781,sequenceLearningTask,001,105,
min1.png,min2.png,min3.png,min4.png,images/allBlank.png,images/min1.png,'num_7',"['num_7', 'num_4', 'num_1', 'num_0']",['num_7'],num_7,,,,,0,9,9,9,15,1,61,0,,,,,,,,,,,,,['num_7'],,0.055525675416,1,['num_7'],0,[0.9363635655026883],1,,,,,,,,2018_May_18_1201,59.9735009781,sequenceLearningTask,001,105,
min1.png,min2.png,min3.png,min4.png,images/allBlank.png,images/min2.png,'num_4',"['num_7', 'num_4', 'num_1', 'num_0']",['num_4'],num_4,,,,,0,9,9,9,15,2,62,1,,,,,,,,,,,,,['num_4'],,0.0574288524222,1,['num_4'],0,[0.7849081619642675],1,,,,,,,,2018_May_18_1201,59.9735009781,sequenceLearningTask,001,105,
min1.png,min2.png,min3.png,min4.png,images/allBlank.png,images/min4.png,'num_0',"['num_7', 'num_4', 'num_1', 'num_0']",['num_0'],num_0,,,,,0,9,9,9,15,3,63,3,,,,,,,,,,,,,['num_0'],,0.0717402193695,1,['num_0'],0,[0.8678898036014289],1,,,,,,,,2018_May_18_1201,59.9735009781,sequenceLearningTask,001,105,
min1.png,min2.png,min3.png,min4.png,images/allBlank.png,images/min4.png,'num_0',"['num_7', 'num_4', 'num_1', 'num_0']",['num_0'],num_0,,,,,0,9,9,9,16,0,64,3,,,,,,,,,,,,,['num_0'],,0.0533874214161,1,['num_0'],0,[0.788710824213922],1,,,,,,,,2018_May_18_1201,59.9735009781,sequenceLearningTask,001,105,
min1.png,min2.png,min3.png,min4.png,images/allBlank.png,images/min2.png,'num_4',"['num_7', 'num_4', 'num_1', 'num_0']",['num_4'],num_4,,,,,0,9,9,9,16,1,65,1,,,,,,,,,,,,,['num_4'],,0.0523777818307,1,['num_4'],0,[1.824065447319299],1,,,,,,,,2018_May_18_1201,59.9735009781,sequenceLearningTask,001,105,
min1.png,min2.png,min3.png,min4.png,images/allBlank.png,images/min3.png,'num_1',"['num_7', 'num_4', 'num_1', 'num_0']",['num_1'],num_1,,,,,0,9,9,9,16,2,66,2,,,,,,,,,,,,,['num_1'],,0.0495330672711,1,['num_1'],0,[0.39273879886604846],1,,,,,,,,2018_May_18_1201,59.9735009781,sequenceLearningTask,001,105,
min1.png,min2.png,min3.png,min4.png,images/allBlank.png,images/min1.png,'num_7',"['num_7', 'num_4', 'num_1', 'num_0']",['num_7'],num_7,,,,,0,9,9,9,16,3,67,0,,,,,,,,,,,,,['num_7'],,0.0582124411594,1,['num_7'],0,[0.9829214569181204],1,,,,,,,,2018_May_18_1201,59.9735009781,sequenceLearningTask,001,105,
min1.png,min2.png,min3.png,min4.png,images/allBlank.png,images/min2.png,'num_4',"['num_7', 'num_4', 'num_1', 'num_0']",['num_4'],num_4,,,,,0,9,9,9,17,0,68,1,,,,,,,,,,,,,['num_4'],,0.0460368664935,1,['num_4'],0,[1.0470534805208445],1,,,,,,,,2018_May_18_1201,59.9735009781,sequenceLearningTask,001,105,
min1.png,min2.png,min3.png,min4.png,images/allBlank.png,images/min1.png,'num_7',"['num_7', 'num_4', 'num_1', 'num_0']",['num_7'],num_7,,,,,0,9,9,9,17,1,69,0,,,,,,,,,,,,,['num_7'],,0.052904550219,1,['num_7'],0,[1.2234581864904612],1,,,,,,,,2018_May_18_1201,59.9735009781,sequenceLearningTask,001,105,
min1.png,min2.png,min3.png,min4.png,images/allBlank.png,images/min4.png,'num_0',"['num_7', 'num_4', 'num_1', 'num_0']",['num_0'],num_0,,,,,0,9,9,9,17,2,70,3,,,,,,,,,,,,,['num_0'],,0.0601307977922,1,['num_0'],0,[0.848927775863558],1,,,,,,,,2018_May_18_1201,59.9735009781,sequenceLearningTask,001,105,
min1.png,min2.png,min3.png,min4.png,images/allBlank.png,images/min3.png,'num_1',"['num_7', 'num_4', 'num_1', 'num_0']",['num_1'],num_1,,,,,0,9,9,9,17,3,71,2,,,,,,,,,,,,,['num_1'],,0.0552696755622,1,['num_1'],0,[0.987477348651737],1,,,,,,,,2018_May_18_1201,59.9735009781,sequenceLearningTask,001,105,
min1.png,min2.png,min3.png,min4.png,images/allBlank.png,images/min1.png,'num_7',"['num_7', 'num_4', 'num_1', 'num_0']",['num_7'],num_7,,,,,0,9,9,9,18,0,72,0,,,,,,,,,,,,,['num_7'],,0.0532897803932,1,['num_7'],0,[1.1715829682070762],1,,,,,,,,2018_May_18_1201,59.9735009781,sequenceLearningTask,001,105,
min1.png,min2.png,min3.png,min4.png,images/allBlank.png,images/min4.png,'num_0',"['num_7', 'num_4', 'num_1', 'num_0']",['num_0'],num_0,,,,,0,9,9,9,18,1,73,3,,,,,,,,,,,,,['num_0'],,0.0506924502552,1,['num_0'],0,[0.9588029223959893],1,,,,,,,,2018_May_18_1201,59.9735009781,sequenceLearningTask,001,105,
min1.png,min2.png,min3.png,min4.png,images/allBlank.png,images/min3.png,'num_1',"['num_7', 'num_4', 'num_1', 'num_0']",['num_1'],num_1,,,,,0,9,9,9,18,2,74,2,,,,,,,,,,,,,['num_1'],,0.0560315207113,1,['num_1'],0,[0.6525509916245937],1,,,,,,,,2018_May_18_1201,59.9735009781,sequenceLearningTask,001,105,
min1.png,min2.png,min3.png,min4.png,images/allBlank.png,images/min2.png,'num_4',"['num_7', 'num_4', 'num_1', 'num_0']",['num_4'],num_4,,,,,0,9,9,9,18,3,75,1,,,,,,,,,,,,,['num_4'],,0.0499753230251,1,['num_4'],0,[2.393059618771076],1,,,,,,,,2018_May_18_1201,59.9735009781,sequenceLearningTask,001,105,
min1.png,min2.png,min3.png,min4.png,images/allBlank.png,images/min1.png,'num_7',"['num_7', 'num_4', 'num_1', 'num_0']",['num_7'],num_7,,,,,0,9,9,9,19,0,76,0,,,,,,,,,,,,,['num_7'],,0.0583617743105,1,['num_7'],0,[0.9337572096846998],1,,,,,,,,2018_May_18_1201,59.9735009781,sequenceLearningTask,001,105,
min1.png,min2.png,min3.png,min4.png,images/allBlank.png,images/min4.png,'num_0',"['num_7', 'num_4', 'num_1', 'num_0']",['num_0'],num_0,,,,,0,9,9,9,19,1,77,3,,,,,,,,,,,,,['num_0'],,0.0588992096018,1,['num_0'],0,[0.8499201848171651],1,,,,,,,,2018_May_18_1201,59.9735009781,sequenceLearningTask,001,105,
min1.png,min2.png,min3.png,min4.png,images/allBlank.png,images/min2.png,'num_4',"['num_7', 'num_4', 'num_1', 'num_0']",['num_4'],num_4,,,,,0,9,9,9,19,2,78,1,,,,,,,,,,,,,['num_4'],,0.0545131636318,1,['num_4'],0,[1.1555267830844969],1,,,,,,,,2018_May_18_1201,59.9735009781,sequenceLearningTask,001,105,
min1.png,min2.png,min3.png,min4.png,images/allBlank.png,images/min3.png,'num_1',"['num_7', 'num_4', 'num_1', 'num_0']",['num_1'],num_1,,,,,0,9,9,9,19,3,79,2,,,,,,,,,,,,,['num_1'],,0.0527129608672,1,['num_1'],0,[1.7890697980765253],1,,,,,,,,2018_May_18_1201,59.9735009781,sequenceLearningTask,001,105,
min1.png,min2.png,min3.png,min4.png,allBlank.png,,,,['num_7'],,,,,,0,0,0,0,,,,,,,,,,,,,,,,,['num_7'],1,0.0531338832807,1,['num_7'],0,[1.157814780017361],,,,,,,,,2018_May_18_1201,59.9735009781,sequenceLearningTask,001,105,
min1.png,min2.png,min3.png,min4.png,allBlank.png,,,,['num_1'],,,,,,0,0,0,0,,,,,,,,,,,,,,,,,['num_1'],1,0.0552754192613,1,['num_1'],0,[1.1222008753102273],,,,,,,,,2018_May_18_1201,59.9735009781,sequenceLearningTask,001,105,
min1.png,min2.png,min3.png,min4.png,allBlank.png,,,,['num_4'],,,,,,0,0,0,0,,,,,,,,,,,,,,,,,['num_4'],1,0.0620224878658,1,['num_4'],0,[1.0807506698183715],,,,,,,,,2018_May_18_1201,59.9735009781,sequenceLearningTask,001,105,
min1.png,min2.png,min3.png,min4.png,allBlank.png,,,,['num_0'],,,,,,0,0,0,0,,,,,,,,,,,,,,,,,['num_0'],1,0.0532278320752,1,['num_0'],0,[0.7064290791749954],,,,,,,,,2018_May_18_1201,59.9735009781,sequenceLearningTask,001,105,
min1.png,min2.png,min3.png,min4.png,allBlank.png,,,,['num_0'],,,,,,0,0,0,0,,,,,,,,,,,,,,,,,['num_0'],1,0.0501767587848,1,['num_0'],0,[0.7786111442837864],,,,,,,,,2018_May_18_1201,59.9735009781,sequenceLearningTask,001,105,
min1.png,min2.png,min3.png,min4.png,allBlank.png,,,,['num_4'],,,,,,0,0,0,0,,,,,,,,,,,,,,,,,['num_4'],1,0.0491552215535,0,"['num_7', 'num_4']",0,"[0.9287459338083863, 1.2957272257190198]",,,,,,,,,2018_May_18_1201,59.9735009781,sequenceLearningTask,001,105,
min1.png,min2.png,min3.png,min4.png,allBlank.png,,,,['num_1'],,,,,,0,0,0,0,,,,,,,,,,,,,,,,,['num_1'],1,0.0517349108122,1,['num_1'],0,[0.8763898957986385],,,,,,,,,2018_May_18_1201,59.9735009781,sequenceLearningTask,001,105,
min1.png,min2.png,min3.png,min4.png,allBlank.png,,,,['num_0'],,,,,,0,0,0,0,,,,,,,,,,,,,,,,,['num_0'],1,0.0518530644476,1,['num_0'],0,[0.3605086845345795],,,,,,,,,2018_May_18_1201,59.9735009781,sequenceLearningTask,001,105,
min1.png,min2.png,min3.png,min4.png,allBlank.png,,,,['num_7'],,,,,,0,1,1,1,,,,,,,,,,,,,,,,,['num_7'],2,0.0569275196176,1,['num_7'],0,[0.6695716886315495],,,,,,,,,2018_May_18_1201,59.9735009781,sequenceLearningTask,001,105,
min1.png,min2.png,min3.png,min4.png,allBlank.png,,,,['num_1'],,,,,,0,1,1,1,,,,,,,,,,,,,,,,,['num_1'],2,0.04829040193,1,['num_1'],0,[1.0126485996879637],,,,,,,,,2018_May_18_1201,59.9735009781,sequenceLearningTask,001,105,
min1.png,min2.png,min3.png,min4.png,allBlank.png,,,,['num_4'],,,,,,0,1,1,1,,,,,,,,,,,,,,,,,['num_4'],2,0.0545673174784,1,['num_4'],0,[1.1730693255085498],,,,,,,,,2018_May_18_1201,59.9735009781,sequenceLearningTask,001,105,
min1.png,min2.png,min3.png,min4.png,allBlank.png,,,,['num_0'],,,,,,0,1,1,1,,,,,,,,,,,,,,,,,['num_0'],2,0.0571228014305,1,['num_0'],0,[0.4373118719086051],,,,,,,,,2018_May_18_1201,59.9735009781,sequenceLearningTask,001,105,
min1.png,min2.png,min3.png,min4.png,allBlank.png,,,,['num_0'],,,,,,0,1,1,1,,,,,,,,,,,,,,,,,['num_0'],2,0.0534797289874,1,['num_0'],0,[0.6748098360840231],,,,,,,,,2018_May_18_1201,59.9735009781,sequenceLearningTask,001,105,
min1.png,min2.png,min3.png,min4.png,allBlank.png,,,,['num_4'],,,,,,0,1,1,1,,,,,,,,,,,,,,,,,['num_4'],2,0.05069039925,1,['num_4'],0,[1.1601737514138222],,,,,,,,,2018_May_18_1201,59.9735009781,sequenceLearningTask,001,105,
min1.png,min2.png,min3.png,min4.png,allBlank.png,,,,['num_1'],,,,,,0,1,1,1,,,,,,,,,,,,,,,,,['num_1'],2,0.0496434259694,1,['num_1'],0,[0.9615471241995692],,,,,,,,,2018_May_18_1201,59.9735009781,sequenceLearningTask,001,105,
min1.png,min2.png,min3.png,min4.png,allBlank.png,,,,['num_0'],,,,,,0,1,1,1,,,,,,,,,,,,,,,,,['num_0'],2,0.0546883430798,1,['num_0'],0,[0.40627478202804923],,,,,,,,,2018_May_18_1201,59.9735009781,sequenceLearningTask,001,105,
min1.png,min2.png,min3.png,min4.png,allBlank.png,,,,['num_7'],,,,,,0,2,2,2,,,,,,,,,,,,,,,,,['num_7'],3,0.0516458849888,1,['num_7'],0,[0.9581850771792233],,,,,,,,,2018_May_18_1201,59.9735009781,sequenceLearningTask,001,105,
min1.png,min2.png,min3.png,min4.png,allBlank.png,,,,['num_1'],,,,,,0,2,2,2,,,,,,,,,,,,,,,,,['num_1'],3,0.057132237358,1,['num_1'],0,[0.7371954005211592],,,,,,,,,2018_May_18_1201,59.9735009781,sequenceLearningTask,001,105,
min1.png,min2.png,min3.png,min4.png,allBlank.png,,,,['num_4'],,,,,,0,2,2,2,,,,,,,,,,,,,,,,,['num_4'],3,0.0558387003839,1,['num_4'],0,[0.9886482190340757],,,,,,,,,2018_May_18_1201,59.9735009781,sequenceLearningTask,001,105,
min1.png,min2.png,min3.png,min4.png,allBlank.png,,,,['num_0'],,,,,,0,2,2,2,,,,,,,,,,,,,,,,,['num_0'],3,0.0572064935695,1,['num_0'],0,[0.5528415760491043],,,,,,,,,2018_May_18_1201,59.9735009781,sequenceLearningTask,001,105,
min1.png,min2.png,min3.png,min4.png,allBlank.png,,,,['num_0'],,,,,,0,2,2,2,,,,,,,,,,,,,,,,,['num_0'],3,0.0549558298662,1,['num_0'],0,[0.4555157469585538],,,,,,,,,2018_May_18_1201,59.9735009781,sequenceLearningTask,001,105,
min1.png,min2.png,min3.png,min4.png,allBlank.png,,,,['num_4'],,,,,,0,2,2,2,,,,,,,,,,,,,,,,,['num_4'],3,0.0538821900263,1,['num_4'],0,[1.3082904922775924],,,,,,,,,2018_May_18_1201,59.9735009781,sequenceLearningTask,001,105,
min1.png,min2.png,min3.png,min4.png,allBlank.png,,,,['num_1'],,,,,,0,2,2,2,,,,,,,,,,,,,,,,,['num_1'],3,0.0575785958208,1,['num_1'],0,[1.153751605655998],,,,,,,,,2018_May_18_1201,59.9735009781,sequenceLearningTask,001,105,
min1.png,min2.png,min3.png,min4.png,allBlank.png,,,,['num_0'],,,,,,0,2,2,2,,,,,,,,,,,,,,,,,['num_0'],3,0.0513271163218,1,['num_0'],0,[0.6430002343840897],,,,,,,,,2018_May_18_1201,59.9735009781,sequenceLearningTask,001,105,
min1.png,min2.png,min3.png,min4.png,allBlank.png,,,,['num_7'],,,,,,0,3,3,3,,,,,,,,,,,,,,,,,['num_7'],4,0.0515511159319,1,['num_7'],0,[0.7745307390578091],,,,,,,,,2018_May_18_1201,59.9735009781,sequenceLearningTask,001,105,
min1.png,min2.png,min3.png,min4.png,allBlank.png,,,,['num_1'],,,,,,0,3,3,3,,,,,,,,,,,,,,,,,['num_1'],4,0.0554149062373,1,['num_1'],0,[1.0068525043316185],,,,,,,,,2018_May_18_1201,59.9735009781,sequenceLearningTask,001,105,
min1.png,min2.png,min3.png,min4.png,allBlank.png,,,,['num_4'],,,,,,0,3,3,3,,,,,,,,,,,,,,,,,['num_4'],4,0.0540659846738,1,['num_4'],0,[0.5063353769946843],,,,,,,,,2018_May_18_1201,59.9735009781,sequenceLearningTask,001,105,
min1.png,min2.png,min3.png,min4.png,allBlank.png,,,,['num_0'],,,,,,0,3,3,3,,,,,,,,,,,,,,,,,['num_0'],4,0.0518194234464,1,['num_0'],0,[0.4427178141195327],,,,,,,,,2018_May_18_1201,59.9735009781,sequenceLearningTask,001,105,
min1.png,min2.png,min3.png,min4.png,allBlank.png,,,,['num_0'],,,,,,0,3,3,3,,,,,,,,,,,,,,,,,['num_0'],4,0.0471470188349,1,['num_0'],0,[0.8640235520433635],,,,,,,,,2018_May_18_1201,59.9735009781,sequenceLearningTask,001,105,
min1.png,min2.png,min3.png,min4.png,allBlank.png,,,,['num_4'],,,,,,0,3,3,3,,,,,,,,,,,,,,,,,['num_4'],4,0.05192157696,1,['num_4'],0,[0.8941014637239277],,,,,,,,,2018_May_18_1201,59.9735009781,sequenceLearningTask,001,105,
min1.png,min2.png,min3.png,min4.png,allBlank.png,,,,['num_1'],,,,,,0,3,3,3,,,,,,,,,,,,,,,,,['num_1'],4,0.0520015771035,1,['num_1'],0,[0.9579257953446358],,,,,,,,,2018_May_18_1201,59.9735009781,sequenceLearningTask,001,105,
min1.png,min2.png,min3.png,min4.png,allBlank.png,,,,['num_0'],,,,,,0,3,3,3,,,,,,,,,,,,,,,,,['num_0'],4,0.0542891637888,1,['num_0'],0,[0.4247801953461021],,,,,,,,,2018_May_18_1201,59.9735009781,sequenceLearningTask,001,105,
min1.png,min2.png,min3.png,min4.png,allBlank.png,,,,['num_7'],,,,,,0,4,4,4,,,,,,,,,,,,,,,,,['num_7'],5,0.0565074176993,1,['num_7'],0,[0.818669761531055],,,,,,,,,2018_May_18_1201,59.9735009781,sequenceLearningTask,001,105,
min1.png,min2.png,min3.png,min4.png,allBlank.png,,,,['num_1'],,,,,,0,4,4,4,,,,,,,,,,,,,,,,,['num_1'],5,0.054200138431,1,['num_1'],0,[0.9735955197829753],,,,,,,,,2018_May_18_1201,59.9735009781,sequenceLearningTask,001,105,
min1.png,min2.png,min3.png,min4.png,allBlank.png,,,,['num_4'],,,,,,0,4,4,4,,,,,,,,,,,,,,,,,['num_4'],5,0.0550046502613,1,['num_4'],0,[1.090344093972817],,,,,,,,,2018_May_18_1201,59.9735009781,sequenceLearningTask,001,105,
min1.png,min2.png,min3.png,min4.png,allBlank.png,,,,['num_0'],,,,,,0,4,4,4,,,,,,,,,,,,,,,,,['num_0'],5,0.0545857788529,1,['num_0'],0,[0.6393354183528572],,,,,,,,,2018_May_18_1201,59.9735009781,sequenceLearningTask,001,105,
min1.png,min2.png,min3.png,min4.png,allBlank.png,,,,['num_0'],,,,,,0,4,4,4,,,,,,,,,,,,,,,,,['num_0'],5,0.0572869039606,1,['num_0'],0,[0.8698253910988569],,,,,,,,,2018_May_18_1201,59.9735009781,sequenceLearningTask,001,105,
min1.png,min2.png,min3.png,min4.png,allBlank.png,,,,['num_4'],,,,,,0,4,4,4,,,,,,,,,,,,,,,,,['num_4'],5,0.0324865242001,1,['num_4'],0,[0.9797924351878464],,,,,,,,,2018_May_18_1201,59.9735009781,sequenceLearningTask,001,105,
min1.png,min2.png,min3.png,min4.png,allBlank.png,,,,['num_1'],,,,,,0,4,4,4,,,,,,,,,,,,,,,,,['num_1'],5,0.0390173878986,1,['num_1'],0,[0.6562112949322909],,,,,,,,,2018_May_18_1201,59.9735009781,sequenceLearningTask,001,105,
min1.png,min2.png,min3.png,min4.png,allBlank.png,,,,['num_0'],,,,,,0,4,4,4,,,,,,,,,,,,,,,,,['num_0'],5,0.0504253737163,1,['num_0'],0,[0.660539084346965],,,,,,,,,2018_May_18_1201,59.9735009781,sequenceLearningTask,001,105,
min1.png,min2.png,min3.png,min4.png,allBlank.png,,,,['num_7'],,,,,,0,5,5,5,,,,,,,,,,,,,,,,,['num_7'],6,0.0456475336105,1,['num_7'],0,[0.6477222798857838],,,,,,,,,2018_May_18_1201,59.9735009781,sequenceLearningTask,001,105,
min1.png,min2.png,min3.png,min4.png,allBlank.png,,,,['num_1'],,,,,,0,5,5,5,,,,,,,,,,,,,,,,,['num_1'],6,0.0474428134039,0,"['num_4', 'num_1']",0,"[0.9466088861227036, 1.4470808855257928]",,,,,,,,,2018_May_18_1201,59.9735009781,sequenceLearningTask,001,105,
min1.png,min2.png,min3.png,min4.png,allBlank.png,,,,['num_4'],,,,,,0,5,5,5,,,,,,,,,,,,,,,,,['num_4'],6,0.0523917304818,1,['num_4'],0,[0.5906626575160772],,,,,,,,,2018_May_18_1201,59.9735009781,sequenceLearningTask,001,105,
min1.png,min2.png,min3.png,min4.png,allBlank.png,,,,['num_0'],,,,,,0,5,5,5,,,,,,,,,,,,,,,,,['num_0'],6,0.0536914211698,1,['num_0'],0,[0.6240894882939756],,,,,,,,,2018_May_18_1201,59.9735009781,sequenceLearningTask,001,105,
min1.png,min2.png,min3.png,min4.png,allBlank.png,,,,['num_0'],,,,,,0,5,5,5,,,,,,,,,,,,,,,,,['num_0'],6,0.0506912197452,1,['num_0'],0,[1.1434751055203378],,,,,,,,,2018_May_18_1201,59.9735009781,sequenceLearningTask,001,105,
min1.png,min2.png,min3.png,min4.png,allBlank.png,,,,['num_4'],,,,,,0,5,5,5,,,,,,,,,,,,,,,,,['num_4'],6,0.0552282398567,1,['num_4'],0,[1.0555572649464011],,,,,,,,,2018_May_18_1201,59.9735009781,sequenceLearningTask,001,105,
min1.png,min2.png,min3.png,min4.png,allBlank.png,,,,['num_1'],,,,,,0,5,5,5,,,,,,,,,,,,,,,,,['num_1'],6,0.0568988018204,1,['num_1'],0,[0.9546626200899482],,,,,,,,,2018_May_18_1201,59.9735009781,sequenceLearningTask,001,105,
min1.png,min2.png,min3.png,min4.png,allBlank.png,,,,['num_0'],,,,,,0,5,5,5,,,,,,,,,,,,,,,,,['num_0'],6,0.0514670135453,1,['num_0'],0,[0.8592215066310018],,,,,,,,,2018_May_18_1201,59.9735009781,sequenceLearningTask,001,105,
min1.png,min2.png,min3.png,min4.png,allBlank.png,,,,['num_7'],,,,,,0,6,6,6,,,,,,,,,,,,,,,,,['num_7'],7,0.0500528614502,1,['num_7'],0,[0.3254506764933467],,,,,,,,,2018_May_18_1201,59.9735009781,sequenceLearningTask,001,105,
min1.png,min2.png,min3.png,min4.png,allBlank.png,,,,['num_1'],,,,,,0,6,6,6,,,,,,,,,,,,,,,,,['num_1'],7,0.0544512148481,1,['num_1'],0,[0.989973756019026],,,,,,,,,2018_May_18_1201,59.9735009781,sequenceLearningTask,001,105,
min1.png,min2.png,min3.png,min4.png,allBlank.png,,,,['num_4'],,,,,,0,6,6,6,,,,,,,,,,,,,,,,,['num_4'],7,0.0589447480161,1,['num_4'],0,[1.4692818839102983],,,,,,,,,2018_May_18_1201,59.9735009781,sequenceLearningTask,001,105,
min1.png,min2.png,min3.png,min4.png,allBlank.png,,,,['num_0'],,,,,,0,6,6,6,,,,,,,,,,,,,,,,,['num_0'],7,0.0524384996388,1,['num_0'],0,[0.35809514904394746],,,,,,,,,2018_May_18_1201,59.9735009781,sequenceLearningTask,001,105,
min1.png,min2.png,min3.png,min4.png,allBlank.png,,,,['num_0'],,,,,,0,6,6,6,,,,,,,,,,,,,,,,,['num_0'],7,0.0550501886755,0,"['num_1', 'num_0']",0,"[0.6054322803393006, 1.0724741672165692]",,,,,,,,,2018_May_18_1201,59.9735009781,sequenceLearningTask,001,105,
min1.png,min2.png,min3.png,min4.png,allBlank.png,,,,['num_4'],,,,,,0,6,6,6,,,,,,,,,,,,,,,,,['num_4'],7,0.050212451024,1,['num_4'],0,[0.9605264074634761],,,,,,,,,2018_May_18_1201,59.9735009781,sequenceLearningTask,001,105,
min1.png,min2.png,min3.png,min4.png,allBlank.png,,,,['num_1'],,,,,,0,6,6,6,,,,,,,,,,,,,,,,,['num_1'],7,0.0541989076883,1,['num_1'],0,[0.4078833954408765],,,,,,,,,2018_May_18_1201,59.9735009781,sequenceLearningTask,001,105,
min1.png,min2.png,min3.png,min4.png,allBlank.png,,,,['num_0'],,,,,,0,6,6,6,,,,,,,,,,,,,,,,,['num_0'],7,0.0532914216164,1,['num_0'],0,[0.40850411262363195],,,,,,,,,2018_May_18_1201,59.9735009781,sequenceLearningTask,001,105,
min1.png,min2.png,min3.png,min4.png,allBlank.png,,,,['num_7'],,,,,,0,7,7,7,,,,,,,,,,,,,,,,,['num_7'],8,0.0512787059415,1,['num_7'],0,[0.3402096324134618],,,,,,,,,2018_May_18_1201,59.9735009781,sequenceLearningTask,001,105,
min1.png,min2.png,min3.png,min4.png,allBlank.png,,,,['num_1'],,,,,,0,7,7,7,,,,,,,,,,,,,,,,,['num_1'],8,0.0625582819339,1,['num_1'],0,[0.9814080230426043],,,,,,,,,2018_May_18_1201,59.9735009781,sequenceLearningTask,001,105,
min1.png,min2.png,min3.png,min4.png,allBlank.png,,,,['num_4'],,,,,,0,7,7,7,,,,,,,,,,,,,,,,,['num_4'],8,0.0538173697423,1,['num_4'],0,[0.4907230883836746],,,,,,,,,2018_May_18_1201,59.9735009781,sequenceLearningTask,001,105,
min1.png,min2.png,min3.png,min4.png,allBlank.png,,,,['num_0'],,,,,,0,7,7,7,,,,,,,,,,,,,,,,,['num_0'],8,0.054411420133,1,['num_0'],0,[0.9223709672223777],,,,,,,,,2018_May_18_1201,59.9735009781,sequenceLearningTask,001,105,
min1.png,min2.png,min3.png,min4.png,allBlank.png,,,,['num_0'],,,,,,0,7,7,7,,,,,,,,,,,,,,,,,['num_0'],8,0.0578177750576,1,['num_0'],0,[0.6193604683503509],,,,,,,,,2018_May_18_1201,59.9735009781,sequenceLearningTask,001,105,
min1.png,min2.png,min3.png,min4.png,allBlank.png,,,,['num_4'],,,,,,0,7,7,7,,,,,,,,,,,,,,,,,['num_4'],8,0.055040752748,1,['num_4'],0,[0.9385645885486156],,,,,,,,,2018_May_18_1201,59.9735009781,sequenceLearningTask,001,105,
min1.png,min2.png,min3.png,min4.png,allBlank.png,,,,['num_1'],,,,,,0,7,7,7,,,,,,,,,,,,,,,,,['num_1'],8,0.0549394197296,1,['num_1'],0,[0.6566371405497193],,,,,,,,,2018_May_18_1201,59.9735009781,sequenceLearningTask,001,105,
min1.png,min2.png,min3.png,min4.png,allBlank.png,,,,['num_0'],,,,,,0,7,7,7,,,,,,,,,,,,,,,,,['num_0'],8,0.0512577830814,1,['num_0'],0,[0.8594483779743314],,,,,,,,,2018_May_18_1201,59.9735009781,sequenceLearningTask,001,105,
min1.png,min2.png,min3.png,min4.png,allBlank.png,,,,['num_7'],,,,,,0,8,8,8,,,,,,,,,,,,,,,,,['num_7'],9,0.0541312154382,1,['num_7'],0,[0.8551472551189363],,,,,,,,,2018_May_18_1201,59.9735009781,sequenceLearningTask,001,105,
min1.png,min2.png,min3.png,min4.png,allBlank.png,,,,['num_1'],,,,,,0,8,8,8,,,,,,,,,,,,,,,,,['num_1'],9,0.0555675211363,1,['num_1'],0,[0.6885464345104992],,,,,,,,,2018_May_18_1201,59.9735009781,sequenceLearningTask,001,105,
min1.png,min2.png,min3.png,min4.png,allBlank.png,,,,['num_4'],,,,,,0,8,8,8,,,,,,,,,,,,,,,,,['num_4'],9,0.0510337832384,1,['num_4'],0,[1.110143864294514],,,,,,,,,2018_May_18_1201,59.9735009781,sequenceLearningTask,001,105,
min1.png,min2.png,min3.png,min4.png,allBlank.png,,,,['num_0'],,,,,,0,8,8,8,,,,,,,,,,,,,,,,,['num_0'],9,0.0528914220631,1,['num_0'],0,[0.5580358260776848],,,,,,,,,2018_May_18_1201,59.9735009781,sequenceLearningTask,001,105,
min1.png,min2.png,min3.png,min4.png,allBlank.png,,,,['num_0'],,,,,,0,8,8,8,,,,,,,,,,,,,,,,,['num_0'],9,0.050792142516,1,['num_0'],0,[0.7439580587670207],,,,,,,,,2018_May_18_1201,59.9735009781,sequenceLearningTask,001,105,
min1.png,min2.png,min3.png,min4.png,allBlank.png,,,,['num_4'],,,,,,0,8,8,8,,,,,,,,,,,,,,,,,['num_4'],9,0.0581463898998,1,['num_4'],0,[1.3026810633018613],,,,,,,,,2018_May_18_1201,59.9735009781,sequenceLearningTask,001,105,
min1.png,min2.png,min3.png,min4.png,allBlank.png,,,,['num_1'],,,,,,0,8,8,8,,,,,,,,,,,,,,,,,['num_1'],9,0.0574555189814,0,"['num_0', 'num_1']",0,"[1.1198878523427993, 1.4706558310426772]",,,,,,,,,2018_May_18_1201,59.9735009781,sequenceLearningTask,001,105,
min1.png,min2.png,min3.png,min4.png,allBlank.png,,,,['num_0'],,,,,,0,8,8,8,,,,,,,,,,,,,,,,,['num_0'],9,0.0504655789118,1,['num_0'],0,[0.5774376483168453],,,,,,,,,2018_May_18_1201,59.9735009781,sequenceLearningTask,001,105,
min1.png,min2.png,min3.png,min4.png,allBlank.png,,,,['num_7'],,,,,,0,9,9,9,,,,,,,,,,,,,,,,,['num_7'],10,0.0612114118412,1,['num_7'],0,[0.6974752442911267],,,,,,,,,2018_May_18_1201,59.9735009781,sequenceLearningTask,001,105,
min1.png,min2.png,min3.png,min4.png,allBlank.png,,,,['num_1'],,,,,,0,9,9,9,,,,,,,,,,,,,,,,,['num_1'],10,0.0585751072504,1,['num_1'],0,[1.1526127352844924],,,,,,,,,2018_May_18_1201,59.9735009781,sequenceLearningTask,001,105,
min1.png,min2.png,min3.png,min4.png,allBlank.png,,,,['num_4'],,,,,,0,9,9,9,,,,,,,,,,,,,,,,,['num_4'],10,0.0548487531487,1,['num_4'],0,[3.0558464953210205],,,,,,,,,2018_May_18_1201,59.9735009781,sequenceLearningTask,001,105,
min1.png,min2.png,min3.png,min4.png,allBlank.png,,,,['num_0'],,,,,,0,9,9,9,,,,,,,,,,,,,,,,,['num_0'],10,0.0494567595888,1,['num_0'],0,[1.177331063663587],,,,,,,,,2018_May_18_1201,59.9735009781,sequenceLearningTask,001,105,
min1.png,min2.png,min3.png,min4.png,allBlank.png,,,,['num_0'],,,,,,0,9,9,9,,,,,,,,,,,,,,,,,['num_0'],10,0.0530132679269,1,['num_0'],0,[1.3748389231041074],,,,,,,,,2018_May_18_1201,59.9735009781,sequenceLearningTask,001,105,
min1.png,min2.png,min3.png,min4.png,allBlank.png,,,,['num_4'],,,,,,0,9,9,9,,,,,,,,,,,,,,,,,['num_4'],10,0.0505390146282,1,['num_4'],0,[1.8606409919448197],,,,,,,,,2018_May_18_1201,59.9735009781,sequenceLearningTask,001,105,
min1.png,min2.png,min3.png,min4.png,allBlank.png,,,,['num_1'],,,,,,0,9,9,9,,,,,,,,,,,,,,,,,['num_1'],10,0.0511215780862,1,['num_1'],0,[1.4432737107854337],,,,,,,,,2018_May_18_1201,59.9735009781,sequenceLearningTask,001,105,
min1.png,min2.png,min3.png,min4.png,allBlank.png,,,,['num_0'],,,,,,0,9,9,9,,,,,,,,,,,,,,,,,['num_0'],10,0.0555695726071,1,['num_0'],0,[0.9559028234798461],,,,,,,,,2018_May_18_1201,59.9735009781,sequenceLearningTask,001,105,
min1.png,min2.png,min3.png,min4.png,allBlank.png,,,,,,,,,,0,9,9,9,,,,,0,-1,-1,0,,,,,,,,,,,,,,,,,,,,,,,,2018_May_18_1201,59.9735009781,sequenceLearningTask,001,105,
min1.png,min2.png,min3.png,min4.png,allBlank.png,,,,,,,,,,0,9,9,9,,,,,0,-1,-1,0,,,,,,,,,,,,,,,,,['1'],,,,,,,2018_May_18_1201,59.9735009781,sequenceLearningTask,001,105,
min1.png,min2.png,min3.png,min4.png,allBlank.png,,,,,,,,,,0,9,9,9,,,,,0,-1,-1,0,,,,,,,,,,,,,,,,,['3'],,,,,,,2018_May_18_1201,59.9735009781,sequenceLearningTask,001,105,
min1.png,min2.png,min3.png,min4.png,allBlank.png,,,,,,,,,,0,9,9,9,,,,,0,-1,-1,0,,,,,,,,,,,,,,,,,['2'],,,,,,,2018_May_18_1201,59.9735009781,sequenceLearningTask,001,105,
min1.png,min2.png,min3.png,min4.png,allBlank.png,,,,,,,,,,0,9,9,9,,,,,0,-1,-1,0,,,,,,,,,,,,,,,,,['2'],,,,,,,2018_May_18_1201,59.9735009781,sequenceLearningTask,001,105,
min1.png,min2.png,min3.png,min4.png,allBlank.png,,,,,,0,0,0,0,0,9,9,9,,,,,0,-1,-1,0,,,,,,,,,,,,,,,,,,return,5.87295072037,none,"[3.2760899167042226, 4.010221526026726, 4.526316070230678, 4.994484109338373]",,,2018_May_18_1201,59.9735009781,sequenceLearningTask,001,105,
min1.png,min2.png,min3.png,min4.png,allBlank.png,,,,['3'],,,,,,0,9,9,9,,,,,0,-1,-1,0,0,0,0,0,,,,,['3'],1,,1,,,,,,,,,,['3'],10.404714989,2018_May_18_1201,59.9735009781,sequenceLearningTask,001,105,
min1.png,min2.png,min3.png,min4.png,allBlank.png,,,,['2'],,,,,,0,9,9,9,,,,,0,-1,-1,0,0,0,0,0,,,,,['2'],1,,1,,,,,,,,,,['2'],5.54904711922,2018_May_18_1201,59.9735009781,sequenceLearningTask,001,105,
min1.png,min2.png,min3.png,min4.png,allBlank.png,,,,['4'],,,,,,0,9,9,9,,,,,0,-1,-1,0,0,0,0,0,,,,,['4'],1,,1,,,,,,,,,,['4'],3.0661012521,2018_May_18_1201,59.9735009781,sequenceLearningTask,001,105,
min1.png,min2.png,min3.png,min4.png,allBlank.png,,,,['4'],,,,,,0,9,9,9,,,,,0,-1,-1,0,0,0,0,0,,,,,['4'],1,,0,,,,,,,,,,['1'],7.63227983727,2018_May_18_1201,59.9735009781,sequenceLearningTask,001,105,
min1.png,min2.png,min3.png,min4.png,allBlank.png,,,,['2'],,,,,,0,9,9,9,,,,,0,-1,-1,0,0,0,0,0,,,,,['2'],1,,0,,,,,,,,,,['3'],5.81588248303,2018_May_18_1201,59.9735009781,sequenceLearningTask,001,105,
min1.png,min2.png,min3.png,min4.png,allBlank.png,,,,['3'],,,,,,0,9,9,9,,,,,0,-1,-1,0,0,0,0,0,,,,,['3'],1,,0,,,,,,,,,,['4'],4.21666681021,2018_May_18_1201,59.9735009781,sequenceLearningTask,001,105,
min1.png,min2.png,min3.png,min4.png,allBlank.png,,,,['4'],,,,,,0,9,9,9,,,,,0,-1,-1,0,0,0,0,0,,,,,['4'],1,,0,,,,,,,,,,['1'],4.0487544015,2018_May_18_1201,59.9735009781,sequenceLearningTask,001,105,
min1.png,min2.png,min3.png,min4.png,allBlank.png,,,,['2'],,,,,,0,9,9,9,,,,,0,-1,-1,0,0,0,0,0,,,,,['2'],1,,0,,,,,,,,,,['1'],4.84903895482,2018_May_18_1201,59.9735009781,sequenceLearningTask,001,105,
min1.png,min2.png,min3.png,min4.png,allBlank.png,,,,['1'],,,,,,0,9,9,9,,,,,0,-1,-1,0,0,0,0,0,,,,,['1'],1,,0,,,,,,,,,,['3'],6.2159492725,2018_May_18_1201,59.9735009781,sequenceLearningTask,001,105,
min1.png,min2.png,min3.png,min4.png,allBlank.png,,,,['1'],,,,,,0,9,9,9,,,,,0,-1,-1,0,0,0,0,0,0,0,0,0,['1'],1,,0,,,,,,,,,,['3'],12.6182737006,2018_May_18_1201,59.9735009781,sequenceLearningTask,001,105,
min1.png,min2.png,min3.png,min4.png,allBlank.png,,,,['3'],,,,,,0,9,9,9,,,,,0,-1,-1,0,0,0,0,0,0,0,0,0,['3'],1,,0,,,,,,,,,,['2'],10.6791540359,2018_May_18_1201,59.9735009781,sequenceLearningTask,001,105,
