pawPatrol1,pawPatrol2,pawPatrol3,pawPatrol4,blank,allowableKey,correctKey,correctKeyPressNum,posLoc,correctKeyPress,randomPaw,im_size,trials.thisRepN,trials.thisTrialN,trials.thisN,trials.thisIndex,trials_3.thisRepN,trials_3.thisTrialN,trials_3.thisN,trials_3.thisIndex,trials_2.thisRepN,trials_2.thisTrialN,trials_2.thisN,trials_2.thisIndex,trials_questions.thisRepN,trials_questions.thisTrialN,trials_questions.thisN,trials_questions.thisIndex,correctLocation,correctImage,repetitionNumber,responseTimeIncorrect,trialIncorrect,stimulusPresent.t,responseTimeCorrect,pressLoc,anticipatoryResponse,date,frameRate,expName,session,participant,
min1.png,min2.png,min3.png,min4.png,allBlank.png,,,,,,,,,,,,0,0,0,0,,,,,,,,,"(-0.75, -0.04)",images/min1.png,1,0.00213210168295,1,0.0585575144505,1.17955397762,[ 0.75625     0.01944444],,2018_Jun_25_1255,59.7587829975,sequenceLearningTask,001,117,
min1.png,min2.png,min3.png,min4.png,allBlank.png,,,,,,,,,,,,0,0,0,0,,,,,,,,,"(0.25, -0.04)",images/min3.png,1,,,0.0533353627252,0.808178540232,[-0.709375 -0.1     ],,2018_Jun_25_1255,59.7587829975,sequenceLearningTask,001,117,
min1.png,min2.png,min3.png,min4.png,allBlank.png,,,,,,,,,,,,0,0,0,0,,,,,,,,,"(-0.25, -0.04)",images/min2.png,1,,,0.0571605919395,0.804027977836,[ 0.1921875 -0.025    ],,2018_Jun_25_1255,59.7587829975,sequenceLearningTask,001,117,
min1.png,min2.png,min3.png,min4.png,allBlank.png,,,,,,,,,,,,0,0,0,0,,,,,,,,,"(0.75, -0.04)",images/min4.png,1,,,0.0578481813718,0.696109252895,[-0.2984375  -0.15555556],,2018_Jun_25_1255,59.7587829975,sequenceLearningTask,001,117,
min1.png,min2.png,min3.png,min4.png,allBlank.png,,,,,,,,,,,,0,0,0,0,,,,,,,,,"(0.75, -0.04)",images/min4.png,1,,,0.0561000795569,0.80269177325,[ 0.7953125   0.00277778],,2018_Jun_25_1255,59.7587829975,sequenceLearningTask,001,117,
min1.png,min2.png,min3.png,min4.png,allBlank.png,,,,,,,,,,,,0,0,0,0,,,,,,,,,"(-0.25, -0.04)",images/min2.png,1,,,0.0567142331274,0.854650316032,[ 0.659375   -0.17222222],,2018_Jun_25_1255,59.7587829975,sequenceLearningTask,001,117,
min1.png,min2.png,min3.png,min4.png,allBlank.png,,,,,,,,,,,,0,0,0,0,,,,,,,,,"(0.25, -0.04)",images/min3.png,1,,,0.0654805884988,0.588791553339,[-0.284375   -0.18055556],,2018_Jun_25_1255,59.7587829975,sequenceLearningTask,001,117,
min1.png,min2.png,min3.png,min4.png,allBlank.png,,,,,,,,,,,,0,0,0,0,,,,,,,,,"(0.75, -0.04)",images/min4.png,1,,,0.0638916660973,0.606426828133,[ 0.3        -0.14722222],,2018_Jun_25_1255,59.7587829975,sequenceLearningTask,001,117,
min1.png,min2.png,min3.png,min4.png,allBlank.png,,,,,,,,,,,,0,1,1,1,,,,,,,,,"(-0.75, -0.04)",images/min1.png,2,,,0.0576602840447,0.833974221954,[ 0.71875    -0.01944444],,2018_Jun_25_1255,59.7587829975,sequenceLearningTask,001,117,
min1.png,min2.png,min3.png,min4.png,allBlank.png,,,,,,,,,,,,0,1,1,1,,,,,,,,,"(0.25, -0.04)",images/min3.png,2,,,0.0562846948451,0.872363949806,[-0.853125   -0.04166667],,2018_Jun_25_1255,59.7587829975,sequenceLearningTask,001,117,
min1.png,min2.png,min3.png,min4.png,allBlank.png,,,,,,,,,,,,0,1,1,1,,,,,,,,,"(-0.25, -0.04)",images/min2.png,2,,,0.0783568909101,0.84938467716,[ 0.246875   -0.18611111],,2018_Jun_25_1255,59.7587829975,sequenceLearningTask,001,117,
min1.png,min2.png,min3.png,min4.png,allBlank.png,,,,,,,,,,,,0,1,1,1,,,,,,,,,"(0.75, -0.04)",images/min4.png,2,,,0.064016794262,0.695082381513,[-0.2453125  -0.16111111],,2018_Jun_25_1255,59.7587829975,sequenceLearningTask,001,117,
min1.png,min2.png,min3.png,min4.png,allBlank.png,,,,,,,,,,,,0,1,1,1,,,,,,,,,"(0.75, -0.04)",images/min4.png,2,,,0.0593497192312,1.05109536365,[ 0.6515625  -0.11388889],,2018_Jun_25_1255,59.7587829975,sequenceLearningTask,001,117,
min1.png,min2.png,min3.png,min4.png,allBlank.png,,,,,,,,,,,,0,1,1,1,,,,,,,,,"(-0.25, -0.04)",images/min2.png,2,,,0.0620738206781,0.707884017291,[ 0.7140625  -0.11666667],,2018_Jun_25_1255,59.7587829975,sequenceLearningTask,001,117,
min1.png,min2.png,min3.png,min4.png,allBlank.png,,,,,,,,,,,,0,1,1,1,,,,,,,,,"(0.25, -0.04)",images/min3.png,2,,,0.066600588063,0.522668503545,[-0.215625   -0.14166667],,2018_Jun_25_1255,59.7587829975,sequenceLearningTask,001,117,
min1.png,min2.png,min3.png,min4.png,allBlank.png,,,,,,,,,,,,0,1,1,1,,,,,,,,,"(0.75, -0.04)",images/min4.png,2,,,0.0554498234123,0.60552631566,[ 0.2671875  -0.10277778],,2018_Jun_25_1255,59.7587829975,sequenceLearningTask,001,117,
min1.png,min2.png,min3.png,min4.png,allBlank.png,,,,,,,,,,,,0,2,2,2,,,,,,,,,"(-0.75, -0.04)",images/min1.png,3,,,0.0599388472037,0.764439070976,[ 0.728125    0.00833333],,2018_Jun_25_1255,59.7587829975,sequenceLearningTask,001,117,
min1.png,min2.png,min3.png,min4.png,allBlank.png,,,,,,,,,,,,0,2,2,2,,,,,,,,,"(0.25, -0.04)",images/min3.png,3,0.260659995634,1,0.0514260302007,0.73645303119,[-0.725      -0.24444444],,2018_Jun_25_1255,59.7587829975,sequenceLearningTask,001,117,
min1.png,min2.png,min3.png,min4.png,allBlank.png,,,,,,,,,,,,0,2,2,2,,,,,,,,,"(-0.25, -0.04)",images/min2.png,3,,,0.0626030512212,0.881172561552,[ 0.1984375  -0.10555556],,2018_Jun_25_1255,59.7587829975,sequenceLearningTask,001,117,
min1.png,min2.png,min3.png,min4.png,allBlank.png,,,,,,,,,,,,0,2,2,2,,,,,,,,,"(0.75, -0.04)",images/min4.png,3,,,0.0508237740141,0.774419784866,[-0.2296875  -0.13055556],,2018_Jun_25_1255,59.7587829975,sequenceLearningTask,001,117,
min1.png,min2.png,min3.png,min4.png,allBlank.png,,,,,,,,,,,,0,2,2,2,,,,,,,,,"(0.75, -0.04)",images/min4.png,3,,,0.0574670533533,0.749832718022,[ 0.7078125  -0.17222222],,2018_Jun_25_1255,59.7587829975,sequenceLearningTask,001,117,
min1.png,min2.png,min3.png,min4.png,allBlank.png,,,,,,,,,,,,0,2,2,2,,,,,,,,,"(-0.25, -0.04)",images/min2.png,3,,,0.0686719718215,0.725416317757,[ 0.6921875 -0.025    ],,2018_Jun_25_1255,59.7587829975,sequenceLearningTask,001,117,
min1.png,min2.png,min3.png,min4.png,allBlank.png,,,,,,,,,,,,0,2,2,2,,,,,,,,,"(0.25, -0.04)",images/min3.png,3,,,0.0576286943106,0.468043705419,[-0.3078125  -0.11944444],,2018_Jun_25_1255,59.7587829975,sequenceLearningTask,001,117,
min1.png,min2.png,min3.png,min4.png,allBlank.png,,,,,,,,,,,,0,2,2,2,,,,,,,,,"(0.75, -0.04)",images/min4.png,3,,,0.0571724893525,0.713951296842,[ 0.2171875  -0.03888889],,2018_Jun_25_1255,59.7587829975,sequenceLearningTask,001,117,
min1.png,min2.png,min3.png,min4.png,allBlank.png,,,,,,,,,,,,0,3,3,3,,,,,,,,,"(-0.75, -0.04)",images/min1.png,4,,,0.0562621307618,1.80382613177,[ 0.7640625  -0.06388889],,2018_Jun_25_1255,59.7587829975,sequenceLearningTask,001,117,
min1.png,min2.png,min3.png,min4.png,allBlank.png,,,,,,,,,,,,0,3,3,3,,,,,,,,,"(0.25, -0.04)",images/min3.png,4,,,0.0594543346087,0.835874939134,[-0.7234375  -0.33055556],,2018_Jun_25_1255,59.7587829975,sequenceLearningTask,001,117,
min1.png,min2.png,min3.png,min4.png,allBlank.png,,,,,,,,,,,,0,3,3,3,,,,,,,,,"(-0.25, -0.04)",images/min2.png,4,,,0.055885515525,1.76074061097,[ 0.225      -0.22777778],,2018_Jun_25_1255,59.7587829975,sequenceLearningTask,001,117,
min1.png,min2.png,min3.png,min4.png,allBlank.png,,,,,,,,,,,,0,3,3,3,,,,,,,,,"(0.75, -0.04)",images/min4.png,4,,,0.0545837724931,0.0,[-0.2359375  -0.21944444],1,2018_Jun_25_1255,59.7587829975,sequenceLearningTask,001,117,
min1.png,min2.png,min3.png,min4.png,allBlank.png,,,,,,,,,,,,0,3,3,3,,,,,,,,,"(0.75, -0.04)",images/min4.png,4,,,0.0535359780479,0.0,[ 0.703125   -0.06944444],1,2018_Jun_25_1255,59.7587829975,sequenceLearningTask,001,117,
min1.png,min2.png,min3.png,min4.png,allBlank.png,,,,,,,,,,,,0,3,3,3,,,,,,,,,"(-0.25, -0.04)",images/min2.png,4,,,0.024414348969,0.0,[ 0.6859375  -0.10833333],1,2018_Jun_25_1255,59.7587829975,sequenceLearningTask,001,117,
min1.png,min2.png,min3.png,min4.png,allBlank.png,,,,,,,,,,,,0,3,3,3,,,,,,,,,"(0.25, -0.04)",images/min3.png,4,,,0.0257837842801,0.0,[-0.2765625 -0.275    ],1,2018_Jun_25_1255,59.7587829975,sequenceLearningTask,001,117,
min1.png,min2.png,min3.png,min4.png,allBlank.png,,,,,,,,,,,,0,3,3,3,,,,,,,,,"(0.75, -0.04)",images/min4.png,4,,,0.0349911651283,0.0,[ 0.2796875  -0.00833333],1,2018_Jun_25_1255,59.7587829975,sequenceLearningTask,001,117,
min1.png,min2.png,min3.png,min4.png,allBlank.png,,,,,,,,,,,,0,4,4,4,,,,,,,,,"(-0.75, -0.04)",images/min1.png,5,,,0.0555265413132,4.04617475028,[ 0.7203125  -0.12222222],,2018_Jun_25_1255,59.7587829975,sequenceLearningTask,001,117,
min1.png,min2.png,min3.png,min4.png,allBlank.png,,,,,,,,,,,,0,4,4,4,,,,,,,,,"(0.25, -0.04)",images/min3.png,5,,,0.0577583352861,0.818353715556,[-0.7265625   0.03888889],,2018_Jun_25_1255,59.7587829975,sequenceLearningTask,001,117,
min1.png,min2.png,min3.png,min4.png,allBlank.png,,,,,,,,,,,,0,4,4,4,,,,,,,,,"(-0.25, -0.04)",images/min2.png,5,,,0.0615646927035,0.558489617018,[ 0.159375   -0.06944444],,2018_Jun_25_1255,59.7587829975,sequenceLearningTask,001,117,
min1.png,min2.png,min3.png,min4.png,allBlank.png,,,,,,,,,,,,0,4,4,4,,,,,,,,,"(0.75, -0.04)",images/min4.png,5,,,0.0583700273419,0.734544108913,[-0.203125   -0.09722222],,2018_Jun_25_1255,59.7587829975,sequenceLearningTask,001,117,
min1.png,min2.png,min3.png,min4.png,allBlank.png,,,,,,,,,,,,0,4,4,4,,,,,,,,,"(0.75, -0.04)",images/min4.png,5,,,0.0600520779262,1.52049168391,[ 0.7625     -0.18055556],,2018_Jun_25_1255,59.7587829975,sequenceLearningTask,001,117,
min1.png,min2.png,min3.png,min4.png,allBlank.png,,,,,,,,,,,,0,4,4,4,,,,,,,,,"(-0.25, -0.04)",images/min2.png,5,,,0.0597603857459,1.42108249394,[ 0.7671875  -0.31666667],,2018_Jun_25_1255,59.7587829975,sequenceLearningTask,001,117,
min1.png,min2.png,min3.png,min4.png,allBlank.png,,,,,,,,,,,,0,4,4,4,,,,,,,,,"(0.25, -0.04)",images/min3.png,5,,,0.0599486933788,0.697209970356,[-0.2375     -0.13333333],,2018_Jun_25_1255,59.7587829975,sequenceLearningTask,001,117,
min1.png,min2.png,min3.png,min4.png,allBlank.png,,,,,,,,,,,,0,4,4,4,,,,,,,,,"(0.75, -0.04)",images/min4.png,5,,,0.0510490046872,3.00322748584,[ 0.159375    0.03055556],,2018_Jun_25_1255,59.7587829975,sequenceLearningTask,001,117,
min1.png,min2.png,min3.png,min4.png,allBlank.png,,,,,,,,,,,,0,5,5,5,,,,,,,,,"(-0.75, -0.04)",images/min1.png,6,,,0.0573694123595,1.8557522643,[ 0.7234375   0.01388889],,2018_Jun_25_1255,59.7587829975,sequenceLearningTask,001,117,
min1.png,min2.png,min3.png,min4.png,allBlank.png,,,,,,,,,,,,0,5,5,5,,,,,,,,,"(0.25, -0.04)",images/min3.png,6,,,0.0535441831744,0.765868813993,[-0.8046875  -0.03611111],,2018_Jun_25_1255,59.7587829975,sequenceLearningTask,001,117,
min1.png,min2.png,min3.png,min4.png,allBlank.png,,,,,,,,,,,,0,5,5,5,,,,,,,,,"(-0.25, -0.04)",images/min2.png,6,0.0,1,0.0605673597893,0.0,[ 0.2828125   0.01944444],1,2018_Jun_25_1255,59.7587829975,sequenceLearningTask,001,117,
min1.png,min2.png,min3.png,min4.png,allBlank.png,,,,,,,,,,,,0,5,5,5,,,,,,,,,"(0.75, -0.04)",images/min4.png,6,,,0.0615130004007,0.607226007269,[-0.1765625   0.06111111],,2018_Jun_25_1255,59.7587829975,sequenceLearningTask,001,117,
min1.png,min2.png,min3.png,min4.png,allBlank.png,,,,,,,,,,,,0,5,5,5,,,,,,,,,"(0.75, -0.04)",images/min4.png,6,,,0.0639363840164,0.0,[ 0.7828125  -0.09166667],1,2018_Jun_25_1255,59.7587829975,sequenceLearningTask,001,117,
min1.png,min2.png,min3.png,min4.png,allBlank.png,,,,,,,,,,,,0,5,5,5,,,,,,,,,"(-0.25, -0.04)",images/min2.png,6,0.0,1,0.0577813096461,1.20255171179,[ 0.7734375  -0.09722222],,2018_Jun_25_1255,59.7587829975,sequenceLearningTask,001,117,
min1.png,min2.png,min3.png,min4.png,allBlank.png,,,,,,,,,,,,0,5,5,5,,,,,,,,,"(0.25, -0.04)",images/min3.png,6,0.0,1,0.0614924875845,1.6337014836,[-0.25       -0.08611111],,2018_Jun_25_1255,59.7587829975,sequenceLearningTask,001,117,
min1.png,min2.png,min3.png,min4.png,allBlank.png,,,,,,,,,,,,0,5,5,5,,,,,,,,,"(0.75, -0.04)",images/min4.png,6,,,0.0575679763861,0.903574603639,[ 0.1984375  -0.09444444],,2018_Jun_25_1255,59.7587829975,sequenceLearningTask,001,117,
min1.png,min2.png,min3.png,min4.png,allBlank.png,,,,,,,,,,,,0,6,6,6,,,,,,,,,"(-0.75, -0.04)",images/min1.png,7,,,0.0594732063764,1.19838063655,[ 0.653125   -0.09166667],,2018_Jun_25_1255,59.7587829975,sequenceLearningTask,001,117,
min1.png,min2.png,min3.png,min4.png,allBlank.png,,,,,,,,,,,,0,6,6,6,,,,,,,,,"(0.25, -0.04)",images/min3.png,7,,,0.054173516226,1.10972713449,[-0.8234375  -0.07777778],,2018_Jun_25_1255,59.7587829975,sequenceLearningTask,001,117,
min1.png,min2.png,min3.png,min4.png,allBlank.png,,,,,,,,,,,,0,6,6,6,,,,,,,,,"(-0.25, -0.04)",images/min2.png,7,,,0.0622974103317,0.0797107365506,[ 0.1171875  -0.21111111],,2018_Jun_25_1255,59.7587829975,sequenceLearningTask,001,117,
min1.png,min2.png,min3.png,min4.png,allBlank.png,,,,,,,,,,,,0,6,6,6,,,,,,,,,"(0.75, -0.04)",images/min4.png,7,,,0.0636036662036,0.915618906409,[-0.2703125  -0.06666667],,2018_Jun_25_1255,59.7587829975,sequenceLearningTask,001,117,
min1.png,min2.png,min3.png,min4.png,allBlank.png,,,,,,,,,,,,0,6,6,6,,,,,,,,,"(0.75, -0.04)",images/min4.png,7,,,0.0647675631626,1.11235769748,[ 0.7265625  -0.13611111],,2018_Jun_25_1255,59.7587829975,sequenceLearningTask,001,117,
min1.png,min2.png,min3.png,min4.png,allBlank.png,,,,,,,,,,,,0,6,6,6,,,,,,,,,"(-0.25, -0.04)",images/min2.png,7,,,0.0696988432028,1.12429246184,[ 0.696875   -0.22222222],,2018_Jun_25_1255,59.7587829975,sequenceLearningTask,001,117,
min1.png,min2.png,min3.png,min4.png,allBlank.png,,,,,,,,,,,,0,6,6,6,,,,,,,,,"(0.25, -0.04)",images/min3.png,7,,,0.0530231577286,0.925207825552,[-0.1765625  -0.19722222],,2018_Jun_25_1255,59.7587829975,sequenceLearningTask,001,117,
min1.png,min2.png,min3.png,min4.png,allBlank.png,,,,,,,,,,,,0,6,6,6,,,,,,,,,"(0.75, -0.04)",images/min4.png,7,,,0.0506662356202,0.586262733821,[ 0.196875   -0.14444444],,2018_Jun_25_1255,59.7587829975,sequenceLearningTask,001,117,
min1.png,min2.png,min3.png,min4.png,allBlank.png,,,,,,,,,,,,0,7,7,7,,,,,,,,,"(-0.75, -0.04)",images/min1.png,8,,,0.0669411007548,0.458278786362,[ 0.659375  0.      ],,2018_Jun_25_1255,59.7587829975,sequenceLearningTask,001,117,
min1.png,min2.png,min3.png,min4.png,allBlank.png,,,,,,,,,,,,0,7,7,7,,,,,,,,,"(0.25, -0.04)",images/min3.png,8,,,0.0642625377513,1.02358399032,[-0.725       0.01666667],,2018_Jun_25_1255,59.7587829975,sequenceLearningTask,001,117,
min1.png,min2.png,min3.png,min4.png,allBlank.png,,,,,,,,,,,,0,7,7,7,,,,,,,,,"(-0.25, -0.04)",images/min2.png,8,,,0.051251671277,0.808109206933,[ 0.2453125  -0.16388889],,2018_Jun_25_1255,59.7587829975,sequenceLearningTask,001,117,
min1.png,min2.png,min3.png,min4.png,allBlank.png,,,,,,,,,,,,0,7,7,7,,,,,,,,,"(0.75, -0.04)",images/min4.png,8,,,0.0622535129078,0.947753047076,[-0.2625     -0.12222222],,2018_Jun_25_1255,59.7587829975,sequenceLearningTask,001,117,
min1.png,min2.png,min3.png,min4.png,allBlank.png,,,,,,,,,,,,0,7,7,7,,,,,,,,,"(0.75, -0.04)",images/min4.png,8,,,0.0585817195533,1.50415815215,[ 0.775      -0.07222222],,2018_Jun_25_1255,59.7587829975,sequenceLearningTask,001,117,
min1.png,min2.png,min3.png,min4.png,allBlank.png,,,,,,,,,,,,0,7,7,7,,,,,,,,,"(-0.25, -0.04)",images/min2.png,8,,,0.0771031478362,0.934706488333,[ 0.6734375   0.02222222],,2018_Jun_25_1255,59.7587829975,sequenceLearningTask,001,117,
min1.png,min2.png,min3.png,min4.png,allBlank.png,,,,,,,,,,,,0,7,7,7,,,,,,,,,"(0.25, -0.04)",images/min3.png,8,,,0.0624537179829,1.18098331036,[-0.3265625 -0.075    ],,2018_Jun_25_1255,59.7587829975,sequenceLearningTask,001,117,
min1.png,min2.png,min3.png,min4.png,allBlank.png,,,,,,,,,,,,0,7,7,7,,,,,,,,,"(0.75, -0.04)",images/min4.png,8,,,0.0522929016151,1.1082436479,[ 0.2640625  -0.11944444],,2018_Jun_25_1255,59.7587829975,sequenceLearningTask,001,117,
min1.png,min2.png,min3.png,min4.png,allBlank.png,,,,,,,,,,,,0,8,8,8,,,,,,,,,"(-0.75, -0.04)",images/min1.png,9,,,0.0554875669768,0.965175398887,[ 0.7015625  -0.06944444],,2018_Jun_25_1255,59.7587829975,sequenceLearningTask,001,117,
min1.png,min2.png,min3.png,min4.png,allBlank.png,,,,,,,,,,,,0,8,8,8,,,,,,,,,"(0.25, -0.04)",images/min3.png,9,,,0.0534046960238,1.21286678445,[-0.725 -0.075],,2018_Jun_25_1255,59.7587829975,sequenceLearningTask,001,117,
min1.png,min2.png,min3.png,min4.png,allBlank.png,,,,,,,,,,,,0,8,8,8,,,,,,,,,"(-0.25, -0.04)",images/min2.png,9,,,0.0546846955258,0.760295072716,[ 0.24375    -0.04444444],,2018_Jun_25_1255,59.7587829975,sequenceLearningTask,001,117,
min1.png,min2.png,min3.png,min4.png,allBlank.png,,,,,,,,,,,,0,8,8,8,,,,,,,,,"(0.75, -0.04)",images/min4.png,9,,,0.0602691034728,1.23465303192,[-0.2671875 -0.075    ],,2018_Jun_25_1255,59.7587829975,sequenceLearningTask,001,117,
min1.png,min2.png,min3.png,min4.png,allBlank.png,,,,,,,,,,,,0,8,8,8,,,,,,,,,"(0.75, -0.04)",images/min4.png,9,,,0.0564188486314,1.38837071246,[ 0.6921875  -0.03333333],,2018_Jun_25_1255,59.7587829975,sequenceLearningTask,001,117,
min1.png,min2.png,min3.png,min4.png,allBlank.png,,,,,,,,,,,,0,8,8,8,,,,,,,,,"(-0.25, -0.04)",images/min2.png,9,,,0.0645000760851,1.02449024635,[ 0.81875    -0.20277778],,2018_Jun_25_1255,59.7587829975,sequenceLearningTask,001,117,
min1.png,min2.png,min3.png,min4.png,allBlank.png,,,,,,,,,,,,0,8,8,8,,,,,,,,,"(0.25, -0.04)",images/min3.png,9,,,0.0610662313411,0.950296635798,[-0.2484375  -0.08611111],,2018_Jun_25_1255,59.7587829975,sequenceLearningTask,001,117,
min1.png,min2.png,min3.png,min4.png,allBlank.png,,,,,,,,,,,,0,8,8,8,,,,,,,,,"(0.75, -0.04)",images/min4.png,9,,,0.058580899029,0.900690502283,[ 0.1328125  -0.14722222],,2018_Jun_25_1255,59.7587829975,sequenceLearningTask,001,117,
min1.png,min2.png,min3.png,min4.png,allBlank.png,,,,,,,,,,,,0,9,9,9,,,,,,,,,"(-0.75, -0.04)",images/min1.png,10,,,0.0517127992935,1.39222506987,[ 0.759375   -0.16388889],,2018_Jun_25_1255,59.7587829975,sequenceLearningTask,001,117,
min1.png,min2.png,min3.png,min4.png,allBlank.png,,,,,,,,,,,,0,9,9,9,,,,,,,,,"(0.25, -0.04)",images/min3.png,10,,,0.0532200807356,1.14229942879,[-0.80625    -0.00555556],,2018_Jun_25_1255,59.7587829975,sequenceLearningTask,001,117,
min1.png,min2.png,min3.png,min4.png,allBlank.png,,,,,,,,,,,,0,9,9,9,,,,,,,,,"(-0.25, -0.04)",images/min2.png,10,0.856432058878,1,0.0597903344315,1.48727282573,[ 0.215625    0.05833333],,2018_Jun_25_1255,59.7587829975,sequenceLearningTask,001,117,
min1.png,min2.png,min3.png,min4.png,allBlank.png,,,,,,,,,,,,0,9,9,9,,,,,,,,,"(0.75, -0.04)",images/min4.png,10,0.751224717445,1,0.0595486935053,1.28420747316,[-0.25        0.00277778],,2018_Jun_25_1255,59.7587829975,sequenceLearningTask,001,117,
min1.png,min2.png,min3.png,min4.png,allBlank.png,,,,,,,,,,,,0,9,9,9,,,,,,,,,"(0.75, -0.04)",images/min4.png,10,,,0.056909515115,1.08906991215,[ 0.740625   -0.00277778],,2018_Jun_25_1255,59.7587829975,sequenceLearningTask,001,117,
min1.png,min2.png,min3.png,min4.png,allBlank.png,,,,,,,,,,,,0,9,9,9,,,,,,,,,"(-0.25, -0.04)",images/min2.png,10,,,0.0626038717455,1.56543976802,[ 0.765625    0.11388889],,2018_Jun_25_1255,59.7587829975,sequenceLearningTask,001,117,
min1.png,min2.png,min3.png,min4.png,allBlank.png,,,,,,,,,,,,0,9,9,9,,,,,,,,,"(0.25, -0.04)",images/min3.png,10,0.334013811691,1,0.0584040786198,0.946757765429,[-0.234375   -0.15555556],,2018_Jun_25_1255,59.7587829975,sequenceLearningTask,001,117,
min1.png,min2.png,min3.png,min4.png,allBlank.png,,,,,,,,,,,,0,9,9,9,,,,,,,,,"(0.75, -0.04)",images/min4.png,10,,,0.0603909495694,1.03658829269,[ 0.2296875   0.04166667],,2018_Jun_25_1255,59.7587829975,sequenceLearningTask,001,117,
min1.png,min2.png,min3.png,min4.png,allBlank.png,,,,,,,,,,,,0,0,0,0,,,,,,,,,"(-0.75, -0.04)",images/min1.png,1,0.270945940109,1,0.0385197790747,1.12604097393,[-0.0078125 -0.025    ],,2018_Jun_25_1255,59.7587829975,sequenceLearningTask,001,117,
min1.png,min2.png,min3.png,min4.png,allBlank.png,,,,,,,,,,,,0,0,0,0,,,,,,,,,"(0.25, -0.04)",images/min3.png,1,1.36677851621,1,0.0575084892334,2.8397596555,[-0.7546875  -0.22222222],,2018_Jun_25_1255,59.7587829975,sequenceLearningTask,001,117,
min1.png,min2.png,min3.png,min4.png,allBlank.png,,,,,,,,,,,,0,0,0,0,,,,,,,,,"(-0.25, -0.04)",images/min2.png,1,,,0.0583265401656,0.819510638161,[ 0.3234375  -0.05277778],,2018_Jun_25_1255,59.7587829975,sequenceLearningTask,001,117,
min1.png,min2.png,min3.png,min4.png,allBlank.png,,,,,,,,,,,,0,0,0,0,,,,,,,,,"(0.75, -0.04)",images/min4.png,1,,,0.0505845946318,0.772144503746,[-0.2609375  -0.08611111],,2018_Jun_25_1255,59.7587829975,sequenceLearningTask,001,117,
min1.png,min2.png,min3.png,min4.png,allBlank.png,,,,,,,,,,,,0,0,0,0,,,,,,,,,"(0.75, -0.04)",images/min4.png,1,,,0.0521111581184,0.652120347862,[ 0.7703125  -0.07222222],,2018_Jun_25_1255,59.7587829975,sequenceLearningTask,001,117,
min1.png,min2.png,min3.png,min4.png,allBlank.png,,,,,,,,,,,,0,0,0,0,,,,,,,,,"(-0.25, -0.04)",images/min2.png,1,,,0.0597566934302,0.626371435355,[ 0.7078125  -0.08611111],,2018_Jun_25_1255,59.7587829975,sequenceLearningTask,001,117,
min1.png,min2.png,min3.png,min4.png,allBlank.png,,,,,,,,,,,,0,0,0,0,,,,,,,,,"(0.25, -0.04)",images/min3.png,1,,,0.0570563868678,0.783224294049,[-0.1921875   0.03333333],,2018_Jun_25_1255,59.7587829975,sequenceLearningTask,001,117,
min1.png,min2.png,min3.png,min4.png,allBlank.png,,,,,,,,,,,,0,0,0,0,,,,,,,,,"(0.75, -0.04)",images/min4.png,1,,,0.053180285875,0.768377941189,[ 0.2484375  -0.14166667],,2018_Jun_25_1255,59.7587829975,sequenceLearningTask,001,117,
min1.png,min2.png,min3.png,min4.png,allBlank.png,,,,,,,,,,,,0,1,1,1,,,,,,,,,"(-0.75, -0.04)",images/min1.png,2,,,0.0546227468294,0.769749838044,[ 0.7234375  0.       ],,2018_Jun_25_1255,59.7587829975,sequenceLearningTask,001,117,
min1.png,min2.png,min3.png,min4.png,allBlank.png,,,,,,,,,,,,0,1,1,1,,,,,,,,,"(0.25, -0.04)",images/min3.png,2,,,0.0497230565234,0.654560962226,[-0.7109375  -0.08888889],,2018_Jun_25_1255,59.7587829975,sequenceLearningTask,001,117,
min1.png,min2.png,min3.png,min4.png,allBlank.png,,,,,,,,,,,,0,1,1,1,,,,,,,,,"(-0.25, -0.04)",images/min2.png,2,,,0.0618170002708,0.546113416989,[ 0.2140625  -0.06111111],,2018_Jun_25_1255,59.7587829975,sequenceLearningTask,001,117,
min1.png,min2.png,min3.png,min4.png,allBlank.png,,,,,,,,,,,,0,1,1,1,,,,,,,,,"(0.75, -0.04)",images/min4.png,2,,,0.0533078755834,0.668038700271,[-0.3515625  -0.15555556],,2018_Jun_25_1255,59.7587829975,sequenceLearningTask,001,117,
min1.png,min2.png,min3.png,min4.png,allBlank.png,,,,,,,,,,,,0,1,1,1,,,,,,,,,"(0.75, -0.04)",images/min4.png,2,,,0.0547429519065,0.850676984352,[ 0.7390625  -0.13333333],,2018_Jun_25_1255,59.7587829975,sequenceLearningTask,001,117,
min1.png,min2.png,min3.png,min4.png,allBlank.png,,,,,,,,,,,,0,1,1,1,,,,,,,,,"(-0.25, -0.04)",images/min2.png,2,,,0.0642526916054,0.728573239554,[ 0.73125     0.03333333],,2018_Jun_25_1255,59.7587829975,sequenceLearningTask,001,117,
min1.png,min2.png,min3.png,min4.png,allBlank.png,,,,,,,,,,,,0,1,1,1,,,,,,,,,"(0.25, -0.04)",images/min3.png,2,,,0.0567975151353,0.78542737008,[-0.26875    -0.13611111],,2018_Jun_25_1255,59.7587829975,sequenceLearningTask,001,117,
min1.png,min2.png,min3.png,min4.png,allBlank.png,,,,,,,,,,,,0,1,1,1,,,,,,,,,"(0.75, -0.04)",images/min4.png,2,,,0.062818846025,0.677716645063,[ 0.1953125  -0.12222222],,2018_Jun_25_1255,59.7587829975,sequenceLearningTask,001,117,
min1.png,min2.png,min3.png,min4.png,allBlank.png,,,,,,,,,,,,0,2,2,2,,,,,,,,,"(-0.75, -0.04)",images/min1.png,3,,,0.0546846955258,0.704120326525,[ 0.8015625  -0.13333333],,2018_Jun_25_1255,59.7587829975,sequenceLearningTask,001,117,
min1.png,min2.png,min3.png,min4.png,allBlank.png,,,,,,,,,,,,0,2,2,2,,,,,,,,,"(0.25, -0.04)",images/min3.png,3,0.498002257227,1,0.059814949811,1.06666335728,[-0.8046875  -0.08055556],,2018_Jun_25_1255,59.7587829975,sequenceLearningTask,001,117,
min1.png,min2.png,min3.png,min4.png,allBlank.png,,,,,,,,,,,,0,2,2,2,,,,,,,,,"(-0.25, -0.04)",images/min2.png,3,,,0.0571142329718,2.37169133467,[ 0.23125     0.01111111],,2018_Jun_25_1255,59.7587829975,sequenceLearningTask,001,117,
min1.png,min2.png,min3.png,min4.png,allBlank.png,,,,,,,,,,,,0,2,2,2,,,,,,,,,"(0.75, -0.04)",images/min4.png,3,0.0,1,0.0683466386399,0.650563015137,[-0.29375     0.17222222],,2018_Jun_25_1255,59.7587829975,sequenceLearningTask,001,117,
min1.png,min2.png,min3.png,min4.png,allBlank.png,,,,,,,,,,,,0,2,2,2,,,,,,,,,"(0.75, -0.04)",images/min4.png,3,,,0.0338412169076,0.0547441826493,[ 0.7375      0.14166667],,2018_Jun_25_1255,59.7587829975,sequenceLearningTask,001,117,
min1.png,min2.png,min3.png,min4.png,allBlank.png,,,,,,,,,,,,0,2,2,2,,,,,,,,,"(-0.25, -0.04)",images/min2.png,3,,,0.0549694133515,0.789603368379,[ 0.7203125   0.06666667],,2018_Jun_25_1255,59.7587829975,sequenceLearningTask,001,117,
min1.png,min2.png,min3.png,min4.png,allBlank.png,,,,,,,,,,,,0,2,2,2,,,,,,,,,"(0.25, -0.04)",images/min3.png,3,0.387056661712,1,0.0315606024233,0.889336250519,[-0.2265625  -0.11944444],,2018_Jun_25_1255,59.7587829975,sequenceLearningTask,001,117,
min1.png,min2.png,min3.png,min4.png,allBlank.png,,,,,,,,,,,,0,2,2,2,,,,,,,,,"(0.75, -0.04)",images/min4.png,3,0.042140290403,1,0.0240254260425,0.695256740408,[ 0.278125 -0.05    ],,2018_Jun_25_1255,59.7587829975,sequenceLearningTask,001,117,
min1.png,min2.png,min3.png,min4.png,allBlank.png,,,,,,,,,,,,0,3,3,3,,,,,,,,,"(-0.75, -0.04)",images/min1.png,4,0.0,1,0.0662990497367,0.670571212075,[ 0.796875   -0.01944444],,2018_Jun_25_1255,59.7587829975,sequenceLearningTask,001,117,
min1.png,min2.png,min3.png,min4.png,allBlank.png,,,,,,,,,,,,0,3,3,3,,,,,,,,,"(0.25, -0.04)",images/min3.png,4,,,0.0651893065951,0.689047512191,[-0.69375    -0.04166667],,2018_Jun_25_1255,59.7587829975,sequenceLearningTask,001,117,
min1.png,min2.png,min3.png,min4.png,allBlank.png,,,,,,,,,,,,0,3,3,3,,,,,,,,,"(-0.25, -0.04)",images/min2.png,4,,,0.0523835682543,0.651434399391,[ 0.2796875  -0.06666667],,2018_Jun_25_1255,59.7587829975,sequenceLearningTask,001,117,
min1.png,min2.png,min3.png,min4.png,allBlank.png,,,,,,,,,,,,0,3,3,3,,,,,,,,,"(0.75, -0.04)",images/min4.png,4,0.00255343486788,1,0.0220566063363,0.782932191622,[-0.328125   -0.06388889],,2018_Jun_25_1255,59.7587829975,sequenceLearningTask,001,117,
min1.png,min2.png,min3.png,min4.png,allBlank.png,,,,,,,,,,,,0,3,3,3,,,,,,,,,"(0.75, -0.04)",images/min4.png,4,,,0.0684647924209,0.705851197592,[ 0.6671875  -0.00555556],,2018_Jun_25_1255,59.7587829975,sequenceLearningTask,001,117,
min1.png,min2.png,min3.png,min4.png,allBlank.png,,,,,,,,,,,,0,3,3,3,,,,,,,,,"(-0.25, -0.04)",images/min2.png,4,,,0.0530042859318,0.639632558101,[ 0.6984375  -0.01111111],,2018_Jun_25_1255,59.7587829975,sequenceLearningTask,001,117,
min1.png,min2.png,min3.png,min4.png,allBlank.png,,,,,,,,,,,,0,3,3,3,,,,,,,,,"(0.25, -0.04)",images/min3.png,4,0.0270063478965,1,0.0573739251704,0.733056930039,[-0.26875    -0.10277778],,2018_Jun_25_1255,59.7587829975,sequenceLearningTask,001,117,
min1.png,min2.png,min3.png,min4.png,allBlank.png,,,,,,,,,,,,0,3,3,3,,,,,,,,,"(0.75, -0.04)",images/min4.png,4,,,0.0589669501642,0.600980676507,[ 0.2109375  -0.01944444],,2018_Jun_25_1255,59.7587829975,sequenceLearningTask,001,117,
min1.png,min2.png,min3.png,min4.png,allBlank.png,,,,,,,,,,,,0,4,4,4,,,,,,,,,"(-0.75, -0.04)",images/min1.png,5,0.0,1,0.0248931180104,0.968048833631,[ 0.771875   -0.11111111],,2018_Jun_25_1255,59.7587829975,sequenceLearningTask,001,117,
min1.png,min2.png,min3.png,min4.png,allBlank.png,,,,,,,,,,,,0,4,4,4,,,,,,,,,"(0.25, -0.04)",images/min3.png,5,0.10717123808,1,0.050841415039,0.637705174275,[-0.8515625  -0.12777778],,2018_Jun_25_1255,59.7587829975,sequenceLearningTask,001,117,
min1.png,min2.png,min3.png,min4.png,allBlank.png,,,,,,,,,,,,0,4,4,4,,,,,,,,,"(-0.25, -0.04)",images/min2.png,5,0.102466829761,1,0.064376588969,0.810503462359,[ 0.2390625 -0.075    ],,2018_Jun_25_1255,59.7587829975,sequenceLearningTask,001,117,
min1.png,min2.png,min3.png,min4.png,allBlank.png,,,,,,,,,,,,0,4,4,4,,,,,,,,,"(0.75, -0.04)",images/min4.png,5,0.0280881936196,1,0.0571581303957,0.797538954881,[-0.1546875  -0.13888889],,2018_Jun_25_1255,59.7587829975,sequenceLearningTask,001,117,
min1.png,min2.png,min3.png,min4.png,allBlank.png,,,,,,,,,,,,0,4,4,4,,,,,,,,,"(0.75, -0.04)",images/min4.png,5,,,0.0536840805435,0.0536582343921,[ 0.678125   -0.01944444],1,2018_Jun_25_1255,59.7587829975,sequenceLearningTask,001,117,
min1.png,min2.png,min3.png,min4.png,allBlank.png,,,,,,,,,,,,0,4,4,4,,,,,,,,,"(-0.25, -0.04)",images/min2.png,5,,,0.0508660304185,0.792393521086,[ 0.665625   -0.09166667],,2018_Jun_25_1255,59.7587829975,sequenceLearningTask,001,117,
min1.png,min2.png,min3.png,min4.png,allBlank.png,,,,,,,,,,,,0,4,4,4,,,,,,,,,"(0.25, -0.04)",images/min3.png,5,,,0.0600364881684,0.660551523877,[-0.2546875  -0.08055556],,2018_Jun_25_1255,59.7587829975,sequenceLearningTask,001,117,
min1.png,min2.png,min3.png,min4.png,allBlank.png,,,,,,,,,,,,0,4,4,4,,,,,,,,,"(0.75, -0.04)",images/min4.png,5,,,0.0593735140865,0.545034853305,[ 0.2765625 -0.025    ],,2018_Jun_25_1255,59.7587829975,sequenceLearningTask,001,117,
min1.png,min2.png,min3.png,min4.png,allBlank.png,,,,,,,,,,,,0,5,5,5,,,,,,,,,"(-0.75, -0.04)",images/min1.png,6,,,0.059240591072,0.612607748655,[ 0.6890625 -0.025    ],,2018_Jun_25_1255,59.7587829975,sequenceLearningTask,001,117,
min1.png,min2.png,min3.png,min4.png,allBlank.png,,,,,,,,,,,,0,5,5,5,,,,,,,,,"(0.25, -0.04)",images/min3.png,6,0.440076537401,1,0.0615802824323,1.34967780526,[-0.6640625  -0.05277778],,2018_Jun_25_1255,59.7587829975,sequenceLearningTask,001,117,
min1.png,min2.png,min3.png,min4.png,allBlank.png,,,,,,,,,,,,0,5,5,5,,,,,,,,,"(-0.25, -0.04)",images/min2.png,6,,,0.0597759755037,0.586398118379,[ 0.1921875  -0.13611111],,2018_Jun_25_1255,59.7587829975,sequenceLearningTask,001,117,
min1.png,min2.png,min3.png,min4.png,allBlank.png,,,,,,,,,,,,0,5,5,5,,,,,,,,,"(0.75, -0.04)",images/min4.png,6,,,0.0601948471158,1.03457557556,[-0.2171875  -0.09166667],,2018_Jun_25_1255,59.7587829975,sequenceLearningTask,001,117,
min1.png,min2.png,min3.png,min4.png,allBlank.png,,,,,,,,,,,,0,5,5,5,,,,,,,,,"(0.75, -0.04)",images/min4.png,6,,,0.0630161792797,0.661574292695,[ 0.7453125   0.11111111],,2018_Jun_25_1255,59.7587829975,sequenceLearningTask,001,117,
min1.png,min2.png,min3.png,min4.png,allBlank.png,,,,,,,,,,,,0,5,5,5,,,,,,,,,"(-0.25, -0.04)",images/min2.png,6,,,0.0519199786941,1.14555276081,[ 0.7296875  -0.05277778],,2018_Jun_25_1255,59.7587829975,sequenceLearningTask,001,117,
min1.png,min2.png,min3.png,min4.png,allBlank.png,,,,,,,,,,,,0,5,5,5,,,,,,,,,"(0.25, -0.04)",images/min3.png,6,,,0.0647983323724,0.521764709032,[-0.2625     -0.09166667],,2018_Jun_25_1255,59.7587829975,sequenceLearningTask,001,117,
min1.png,min2.png,min3.png,min4.png,allBlank.png,,,,,,,,,,,,0,5,5,5,,,,,,,,,"(0.75, -0.04)",images/min4.png,6,,,0.0621808975411,0.511212918471,[ 0.184375   -0.08055556],,2018_Jun_25_1255,59.7587829975,sequenceLearningTask,001,117,
min1.png,min2.png,min3.png,min4.png,allBlank.png,,,,,,,,,,,,0,6,6,6,,,,,,,,,"(-0.75, -0.04)",images/min1.png,7,,,0.0572291047138,0.667458187701,[ 0.6546875  -0.10555556],,2018_Jun_25_1255,59.7587829975,sequenceLearningTask,001,117,
min1.png,min2.png,min3.png,min4.png,allBlank.png,,,,,,,,,,,,0,6,6,6,,,,,,,,,"(0.25, -0.04)",images/min3.png,7,,,0.0552122850495,0.921152442577,[-0.6625     -0.20555556],,2018_Jun_25_1255,59.7587829975,sequenceLearningTask,001,117,
min1.png,min2.png,min3.png,min4.png,allBlank.png,,,,,,,,,,,,0,6,6,6,,,,,,,,,"(-0.25, -0.04)",images/min2.png,7,,,0.0619273592019,1.26810040284,[ 0.2515625  -0.06944444],,2018_Jun_25_1255,59.7587829975,sequenceLearningTask,001,117,
min1.png,min2.png,min3.png,min4.png,allBlank.png,,,,,,,,,,,,0,6,6,6,,,,,,,,,"(0.75, -0.04)",images/min4.png,7,,,0.0526580296573,0.890248250129,[-0.3546875  -0.18611111],,2018_Jun_25_1255,59.7587829975,sequenceLearningTask,001,117,
min1.png,min2.png,min3.png,min4.png,allBlank.png,,,,,,,,,,,,0,6,6,6,,,,,,,,,"(0.75, -0.04)",images/min4.png,7,,,0.0565041819355,1.11626908049,[ 0.7265625 -0.125    ],,2018_Jun_25_1255,59.7587829975,sequenceLearningTask,001,117,
min1.png,min2.png,min3.png,min4.png,allBlank.png,,,,,,,,,,,,0,6,6,6,,,,,,,,,"(-0.25, -0.04)",images/min2.png,7,0.688404640649,1,0.0527679783409,1.30875433487,[ 0.6625     -0.00833333],,2018_Jun_25_1255,59.7587829975,sequenceLearningTask,001,117,
min1.png,min2.png,min3.png,min4.png,allBlank.png,,,,,,,,,,,,0,6,6,6,,,,,,,,,"(0.25, -0.04)",images/min3.png,7,,,0.054079567577,1.61179872337,[-0.3546875  0.       ],,2018_Jun_25_1255,59.7587829975,sequenceLearningTask,001,117,
min1.png,min2.png,min3.png,min4.png,allBlank.png,,,,,,,,,,,,0,6,6,6,,,,,,,,,"(0.75, -0.04)",images/min4.png,7,,,0.0557681822393,1.04975423598,[ 0.2578125 -0.15     ],,2018_Jun_25_1255,59.7587829975,sequenceLearningTask,001,117,
min1.png,min2.png,min3.png,min4.png,allBlank.png,,,,,,,,,,,,0,7,7,7,,,,,,,,,"(-0.75, -0.04)",images/min1.png,8,,,0.0585086939391,1.63115256157,[ 0.746875   -0.08611111],,2018_Jun_25_1255,59.7587829975,sequenceLearningTask,001,117,
min1.png,min2.png,min3.png,min4.png,allBlank.png,,,,,,,,,,,,0,7,7,7,,,,,,,,,"(0.25, -0.04)",images/min3.png,8,0.199085867032,1,0.0555056182493,1.00048984596,[-0.878125   -0.34444444],,2018_Jun_25_1255,59.7587829975,sequenceLearningTask,001,117,
min1.png,min2.png,min3.png,min4.png,allBlank.png,,,,,,,,,,,,0,7,7,7,,,,,,,,,"(-0.25, -0.04)",images/min2.png,8,,,0.057955258264,1.4505454562,[ 0.209375    0.05833333],,2018_Jun_25_1255,59.7587829975,sequenceLearningTask,001,117,
min1.png,min2.png,min3.png,min4.png,allBlank.png,,,,,,,,,,,,0,7,7,7,,,,,,,,,"(0.75, -0.04)",images/min4.png,8,,,0.0641484865046,1.48353826319,[-0.3375      0.08055556],,2018_Jun_25_1255,59.7587829975,sequenceLearningTask,001,117,
min1.png,min2.png,min3.png,min4.png,allBlank.png,,,,,,,,,,,,0,7,7,7,,,,,,,,,"(0.75, -0.04)",images/min4.png,8,,,0.0657357678865,1.91507736818,[ 0.6828125   0.14722222],,2018_Jun_25_1255,59.7587829975,sequenceLearningTask,001,117,
min1.png,min2.png,min3.png,min4.png,allBlank.png,,,,,,,,,,,,0,7,7,7,,,,,,,,,"(-0.25, -0.04)",images/min2.png,8,,,0.0618412054027,2.37122282208,[ 0.6515625  -0.01111111],,2018_Jun_25_1255,59.7587829975,sequenceLearningTask,001,117,
min1.png,min2.png,min3.png,min4.png,allBlank.png,,,,,,,,,,,,0,7,7,7,,,,,,,,,"(0.25, -0.04)",images/min3.png,8,,,0.0560381308605,0.786360292783,[-0.3        -0.01111111],,2018_Jun_25_1255,59.7587829975,sequenceLearningTask,001,117,
min1.png,min2.png,min3.png,min4.png,allBlank.png,,,,,,,,,,,,0,7,7,7,,,,,,,,,"(0.75, -0.04)",images/min4.png,8,,,0.0592356680136,1.16811644385,[ 0.215625   -0.11944444],,2018_Jun_25_1255,59.7587829975,sequenceLearningTask,001,117,
min1.png,min2.png,min3.png,min4.png,allBlank.png,,,,,,,,,,,,0,8,8,8,,,,,,,,,"(-0.75, -0.04)",images/min1.png,9,,,0.0528303373139,3.13475440626,[ 0.5921875  -0.23333333],,2018_Jun_25_1255,59.7587829975,sequenceLearningTask,001,117,
min1.png,min2.png,min3.png,min4.png,allBlank.png,,,,,,,,,,,,0,8,8,8,,,,,,,,,"(0.25, -0.04)",images/min3.png,9,,,0.0545845929882,1.94980843086,[-0.7859375 -0.15     ],,2018_Jun_25_1255,59.7587829975,sequenceLearningTask,001,117,
min1.png,min2.png,min3.png,min4.png,allBlank.png,,,,,,,,,,,,0,8,8,8,,,,,,,,,"(-0.25, -0.04)",images/min2.png,9,,,0.0572963867453,1.12310928284,[ 0.1734375  -0.15277778],,2018_Jun_25_1255,59.7587829975,sequenceLearningTask,001,117,
min1.png,min2.png,min3.png,min4.png,allBlank.png,,,,,,,,,,,,0,8,8,8,,,,,,,,,"(0.75, -0.04)",images/min4.png,9,,,0.054603464785,1.52558706643,[-0.2546875  -0.11388889],,2018_Jun_25_1255,59.7587829975,sequenceLearningTask,001,117,
min1.png,min2.png,min3.png,min4.png,allBlank.png,,,,,,,,,,,,0,8,8,8,,,,,,,,,"(0.75, -0.04)",images/min4.png,9,,,0.053052285919,1.36041380087,[ 0.6265625  -0.02777778],,2018_Jun_25_1255,59.7587829975,sequenceLearningTask,001,117,
min1.png,min2.png,min3.png,min4.png,allBlank.png,,,,,,,,,,,,0,8,8,8,,,,,,,,,"(-0.25, -0.04)",images/min2.png,9,0.0,1,0.0674859210267,0.824683969375,[ 0.7453125  -0.03888889],,2018_Jun_25_1255,59.7587829975,sequenceLearningTask,001,117,
min1.png,min2.png,min3.png,min4.png,allBlank.png,,,,,,,,,,,,0,8,8,8,,,,,,,,,"(0.25, -0.04)",images/min3.png,9,0.147886708553,1,0.053423157573,0.90661419215,[-0.3359375  -0.15277778],,2018_Jun_25_1255,59.7587829975,sequenceLearningTask,001,117,
min1.png,min2.png,min3.png,min4.png,allBlank.png,,,,,,,,,,,,0,8,8,8,,,,,,,,,"(0.75, -0.04)",images/min4.png,9,,,0.0565821306081,0.802305722114,[ 0.2125     -0.20833333],,2018_Jun_25_1255,59.7587829975,sequenceLearningTask,001,117,
min1.png,min2.png,min3.png,min4.png,allBlank.png,,,,,,,,,,,,0,9,9,9,,,,,,,,,"(-0.75, -0.04)",images/min1.png,10,1.10172467623,1,0.0529952603101,1.8922486596,[ 0.6921875  -0.02222222],,2018_Jun_25_1255,59.7587829975,sequenceLearningTask,001,117,
min1.png,min2.png,min3.png,min4.png,allBlank.png,,,,,,,,,,,,0,9,9,9,,,,,,,,,"(0.25, -0.04)",images/min3.png,10,,,0.0592278731347,0.885327636788,[-0.628125    0.01666667],,2018_Jun_25_1255,59.7587829975,sequenceLearningTask,001,117,
min1.png,min2.png,min3.png,min4.png,allBlank.png,,,,,,,,,,,,0,9,9,9,,,,,,,,,"(-0.25, -0.04)",images/min2.png,10,,,0.0611700261943,0.965044116921,[ 0.1453125  -0.06111111],,2018_Jun_25_1255,59.7587829975,sequenceLearningTask,001,117,
min1.png,min2.png,min3.png,min4.png,allBlank.png,,,,,,,,,,,,0,9,9,9,,,,,,,,,"(0.75, -0.04)",images/min4.png,10,,,0.0515019275772,1.72894985479,[-0.2921875   0.03055556],,2018_Jun_25_1255,59.7587829975,sequenceLearningTask,001,117,
min1.png,min2.png,min3.png,min4.png,allBlank.png,,,,,,,,,,,,0,9,9,9,,,,,,,,,"(0.75, -0.04)",images/min4.png,10,,,0.0660085883283,1.28978941956,[ 0.6453125   0.08055556],,2018_Jun_25_1255,59.7587829975,sequenceLearningTask,001,117,
min1.png,min2.png,min3.png,min4.png,allBlank.png,,,,,,,,,,,,0,9,9,9,,,,,,,,,"(-0.25, -0.04)",images/min2.png,10,,,0.0577476686158,4.10215216322,[ 0.6859375  -0.19722222],,2018_Jun_25_1255,59.7587829975,sequenceLearningTask,001,117,
min1.png,min2.png,min3.png,min4.png,allBlank.png,,,,,,,,,,,,0,9,9,9,,,,,,,,,"(0.25, -0.04)",images/min3.png,10,,,0.0612073595112,1.20212463502,[-0.2484375 -0.05     ],,2018_Jun_25_1255,59.7587829975,sequenceLearningTask,001,117,
min1.png,min2.png,min3.png,min4.png,allBlank.png,,,,,,,,,,,,0,9,9,9,,,,,,,,,"(0.75, -0.04)",images/min4.png,10,,,0.0539413111983,3.8052772081,[ 0.2203125  -0.23055556],,2018_Jun_25_1255,59.7587829975,sequenceLearningTask,001,117,
min1.png,min2.png,min3.png,min4.png,images/allBlank.png,"['num_7', 'num_4', 'num_1', 'num_0']",['num_0'],num_0,[4],'num_0',images/min4.png,"[(0.45, 0.79)]",,,,,0,-1,-1,0,0,0,0,3,,,,,"(-0.25, 0.04)",images/min2.png,1,,,0.0751330973872,0.987423594896,[-0.065625    0.00833333],,2018_Jun_25_1255,59.7587829975,sequenceLearningTask,001,117,
min1.png,min2.png,min3.png,min4.png,images/allBlank.png,"['num_7', 'num_4', 'num_1', 'num_0']",['num_0'],num_0,[4],'num_0',images/min4.png,"[(0.45, 0.79)]",,,,,0,-1,-1,0,0,0,0,3,,,,,"(0.75, 0.04)",images/min4.png,1,,,0.0575597712595,0.768144095142,[-0.3609375   0.05277778],,2018_Jun_25_1255,59.7587829975,sequenceLearningTask,001,117,
min1.png,min2.png,min3.png,min4.png,images/allBlank.png,"['num_7', 'num_4', 'num_1', 'num_0']",['num_0'],num_0,[4],'num_0',images/min4.png,"[(0.45, 0.79)]",,,,,0,-1,-1,0,0,0,0,3,,,,,"(-0.75, 0.04)",images/min1.png,1,,,0.0567002844182,0.870865283738,[ 0.7578125  -0.08611111],,2018_Jun_25_1255,59.7587829975,sequenceLearningTask,001,117,
min1.png,min2.png,min3.png,min4.png,images/allBlank.png,"['num_7', 'num_4', 'num_1', 'num_0']",['num_0'],num_0,[4],'num_0',images/min4.png,"[(0.45, 0.79)]",,,,,0,-1,-1,0,0,0,0,3,,,,,"(0.75, 0.04)",images/min4.png,1,,,0.0596332062851,1.57079074017,[-0.5890625  -0.08611111],,2018_Jun_25_1255,59.7587829975,sequenceLearningTask,001,117,
min1.png,min2.png,min3.png,min4.png,images/allBlank.png,"['num_7', 'num_4', 'num_1', 'num_0']",['num_4'],num_4,[2],'num_4',images/min2.png,"[(0.45, 0.79)]",,,,,0,-1,-1,0,0,1,1,1,,,,,"(-0.25, 0.04)",images/min2.png,2,,,0.0812368897605,0.604926521075,[ 0.790625 -0.075   ],,2018_Jun_25_1255,59.7587829975,sequenceLearningTask,001,117,
min1.png,min2.png,min3.png,min4.png,images/allBlank.png,"['num_7', 'num_4', 'num_1', 'num_0']",['num_4'],num_4,[2],'num_4',images/min2.png,"[(0.45, 0.79)]",,,,,0,-1,-1,0,0,1,1,1,,,,,"(-0.75, 0.04)",images/min1.png,2,,,0.0570678740332,0.95576042842,[-0.240625   -0.17777778],,2018_Jun_25_1255,59.7587829975,sequenceLearningTask,001,117,
min1.png,min2.png,min3.png,min4.png,images/allBlank.png,"['num_7', 'num_4', 'num_1', 'num_0']",['num_4'],num_4,[2],'num_4',images/min2.png,"[(0.45, 0.79)]",,,,,0,-1,-1,0,0,1,1,1,,,,,"(-0.25, 0.04)",images/min2.png,2,,,0.0784352498595,0.832462837949,[-0.7875      0.01388889],,2018_Jun_25_1255,59.7587829975,sequenceLearningTask,001,117,
min1.png,min2.png,min3.png,min4.png,images/allBlank.png,"['num_7', 'num_4', 'num_1', 'num_0']",['num_4'],num_4,[2],'num_4',images/min2.png,"[(0.45, 0.79)]",,,,,0,-1,-1,0,0,1,1,1,,,,,"(0.25, 0.04)",images/min3.png,2,,,0.0610916672449,0.816829203366,[-0.2484375  -0.14722222],,2018_Jun_25_1255,59.7587829975,sequenceLearningTask,001,117,
min1.png,min2.png,min3.png,min4.png,images/allBlank.png,"['num_7', 'num_4', 'num_1', 'num_0']",['num_1'],num_1,[3],'num_1',images/min3.png,"[(0.45, 0.79)]",,,,,0,-1,-1,0,0,2,2,2,,,,,"(0.25, 0.04)",images/min3.png,3,,,0.0642974095244,0.793596802599,[ 0.2515625  -0.16944444],,2018_Jun_25_1255,59.7587829975,sequenceLearningTask,001,117,
min1.png,min2.png,min3.png,min4.png,images/allBlank.png,"['num_7', 'num_4', 'num_1', 'num_0']",['num_1'],num_1,[3],'num_1',images/min3.png,"[(0.45, 0.79)]",,,,,0,-1,-1,0,0,2,2,2,,,,,"(0.25, 0.04)",images/min3.png,3,,,0.0552680798864,0.775830656057,[ 0.2171875  -0.00277778],,2018_Jun_25_1255,59.7587829975,sequenceLearningTask,001,117,
min1.png,min2.png,min3.png,min4.png,images/allBlank.png,"['num_7', 'num_4', 'num_1', 'num_0']",['num_1'],num_1,[3],'num_1',images/min3.png,"[(0.45, 0.79)]",,,,,0,-1,-1,0,0,2,2,2,,,,,"(-0.75, 0.04)",images/min1.png,3,,,0.0596286935033,0.784305319277,[ 0.2203125  -0.16944444],,2018_Jun_25_1255,59.7587829975,sequenceLearningTask,001,117,
min1.png,min2.png,min3.png,min4.png,images/allBlank.png,"['num_7', 'num_4', 'num_1', 'num_0']",['num_1'],num_1,[3],'num_1',images/min3.png,"[(0.45, 0.79)]",,,,,0,-1,-1,0,0,2,2,2,,,,,"(0.75, 0.04)",images/min4.png,3,,,0.05929761671,1.0519527992,[-0.7046875  -0.29722222],,2018_Jun_25_1255,59.7587829975,sequenceLearningTask,001,117,
min1.png,min2.png,min3.png,min4.png,images/allBlank.png,"['num_7', 'num_4', 'num_1', 'num_0']",['num_7'],num_7,[1],'num_7',images/min1.png,"[(0.45, 0.79)]",,,,,0,-1,-1,0,0,3,3,0,,,,,"(0.25, 0.04)",images/min3.png,4,,,0.0504024408583,0.967092936597,[ 0.60625    -0.14722222],,2018_Jun_25_1255,59.7587829975,sequenceLearningTask,001,117,
min1.png,min2.png,min3.png,min4.png,images/allBlank.png,"['num_7', 'num_4', 'num_1', 'num_0']",['num_7'],num_7,[1],'num_7',images/min1.png,"[(0.45, 0.79)]",,,,,0,-1,-1,0,0,3,3,0,,,,,"(-0.25, 0.04)",images/min2.png,4,,,0.064310947957,1.12984733135,[ 0.2390625  -0.14166667],,2018_Jun_25_1255,59.7587829975,sequenceLearningTask,001,117,
min1.png,min2.png,min3.png,min4.png,images/allBlank.png,"['num_7', 'num_4', 'num_1', 'num_0']",['num_7'],num_7,[1],'num_7',images/min1.png,"[(0.45, 0.79)]",,,,,0,-1,-1,0,0,3,3,0,,,,,"(0.75, 0.04)",images/min4.png,4,,,0.0528422347561,2.78825854839,[-0.3703125  -0.16666667],,2018_Jun_25_1255,59.7587829975,sequenceLearningTask,001,117,
min1.png,min2.png,min3.png,min4.png,images/allBlank.png,"['num_7', 'num_4', 'num_1', 'num_0']",['num_7'],num_7,[1],'num_7',images/min1.png,"[(0.45, 0.79)]",,,,,0,-1,-1,0,0,3,3,0,,,,,"(0.25, 0.04)",images/min3.png,4,,,0.0578723865037,2.31548910134,[ 0.6109375  -0.14166667],,2018_Jun_25_1255,59.7587829975,sequenceLearningTask,001,117,
min1.png,min2.png,min3.png,min4.png,images/allBlank.png,"['num_7', 'num_4', 'num_1', 'num_0']",['num_1'],num_1,[3],'num_1',images/min3.png,"[(0.45, 0.79)]",,,,,0,-1,-1,0,1,0,4,2,,,,,"(0.75, 0.04)",images/min4.png,5,,,0.0620972052857,1.03913188138,[ 0.234375   -0.21388889],,2018_Jun_25_1255,59.7587829975,sequenceLearningTask,001,117,
min1.png,min2.png,min3.png,min4.png,images/allBlank.png,"['num_7', 'num_4', 'num_1', 'num_0']",['num_1'],num_1,[3],'num_1',images/min3.png,"[(0.45, 0.79)]",,,,,0,-1,-1,0,1,0,4,2,,,,,"(-0.75, 0.04)",images/min1.png,5,0.0,1,0.0726625343086,0.0,[ 0.7234375   0.04166667],1,2018_Jun_25_1255,59.7587829975,sequenceLearningTask,001,117,
min1.png,min2.png,min3.png,min4.png,images/allBlank.png,"['num_7', 'num_4', 'num_1', 'num_0']",['num_1'],num_1,[3],'num_1',images/min3.png,"[(0.45, 0.79)]",,,,,0,-1,-1,0,1,0,4,2,,,,,"(0.25, 0.04)",images/min3.png,5,0.0,1,0.068128792569,0.0,[-0.9734375  -0.02222222],1,2018_Jun_25_1255,59.7587829975,sequenceLearningTask,001,117,
min1.png,min2.png,min3.png,min4.png,images/allBlank.png,"['num_7', 'num_4', 'num_1', 'num_0']",['num_1'],num_1,[3],'num_1',images/min3.png,"[(0.45, 0.79)]",,,,,0,-1,-1,0,1,0,4,2,,,,,"(-0.75, 0.04)",images/min1.png,5,0.0,1,0.0680647925765,0.0,[ 0.23125    -0.46666667],1,2018_Jun_25_1255,59.7587829975,sequenceLearningTask,001,117,
min1.png,min2.png,min3.png,min4.png,images/allBlank.png,"['num_7', 'num_4', 'num_1', 'num_0']",['num_4'],num_4,[2],'num_4',images/min2.png,"[(0.45, 0.79)]",,,,,0,-1,-1,0,1,1,5,1,,,,,"(-0.25, 0.04)",images/min2.png,6,0.0,1,0.0655720756622,0.0,[-0.8578125  -0.15833333],1,2018_Jun_25_1255,59.7587829975,sequenceLearningTask,001,117,
min1.png,min2.png,min3.png,min4.png,images/allBlank.png,"['num_7', 'num_4', 'num_1', 'num_0']",['num_4'],num_4,[2],'num_4',images/min2.png,"[(0.45, 0.79)]",,,,,0,-1,-1,0,1,1,5,1,,,,,"(0.25, 0.04)",images/min3.png,6,0.0,1,0.0687880743644,0.0,[ 0.003125   -0.18055556],1,2018_Jun_25_1255,59.7587829975,sequenceLearningTask,001,117,
min1.png,min2.png,min3.png,min4.png,images/allBlank.png,"['num_7', 'num_4', 'num_1', 'num_0']",['num_4'],num_4,[2],'num_4',images/min2.png,"[(0.45, 0.79)]",,,,,0,-1,-1,0,1,1,5,1,,,,,"(-0.75, 0.04)",images/min1.png,6,0.0,1,0.0684126898996,0.0,[ 0.3890625  -0.36388889],1,2018_Jun_25_1255,59.7587829975,sequenceLearningTask,001,117,
min1.png,min2.png,min3.png,min4.png,images/allBlank.png,"['num_7', 'num_4', 'num_1', 'num_0']",['num_4'],num_4,[2],'num_4',images/min2.png,"[(0.45, 0.79)]",,,,,0,-1,-1,0,1,1,5,1,,,,,"(-0.75, 0.04)",images/min1.png,6,,,0.0671478699078,0.0,[-0.734375   -0.23611111],1,2018_Jun_25_1255,59.7587829975,sequenceLearningTask,001,117,
min1.png,min2.png,min3.png,min4.png,images/allBlank.png,"['num_7', 'num_4', 'num_1', 'num_0']",['num_0'],num_0,[4],'num_0',images/min4.png,"[(0.45, 0.79)]",,,,,0,-1,-1,0,1,2,6,3,,,,,"(-0.75, 0.04)",images/min1.png,7,0.0,1,0.065786639665,0.0,[-0.71875  0.15   ],1,2018_Jun_25_1255,59.7587829975,sequenceLearningTask,001,117,
min1.png,min2.png,min3.png,min4.png,images/allBlank.png,"['num_7', 'num_4', 'num_1', 'num_0']",['num_0'],num_0,[4],'num_0',images/min4.png,"[(0.45, 0.79)]",,,,,0,-1,-1,0,1,2,6,3,,,,,"(0.75, 0.04)",images/min4.png,7,0.0,1,0.0664758701751,0.0,[-0.7046875  -0.05833333],1,2018_Jun_25_1255,59.7587829975,sequenceLearningTask,001,117,
min1.png,min2.png,min3.png,min4.png,images/allBlank.png,"['num_7', 'num_4', 'num_1', 'num_0']",['num_0'],num_0,[4],'num_0',images/min4.png,"[(0.45, 0.79)]",,,,,0,-1,-1,0,1,2,6,3,,,,,"(-0.25, 0.04)",images/min2.png,7,0.0,1,0.0669628443138,0.0,[ 0.7234375 -0.2      ],1,2018_Jun_25_1255,59.7587829975,sequenceLearningTask,001,117,
min1.png,min2.png,min3.png,min4.png,images/allBlank.png,"['num_7', 'num_4', 'num_1', 'num_0']",['num_0'],num_0,[4],'num_0',images/min4.png,"[(0.45, 0.79)]",,,,,0,-1,-1,0,1,2,6,3,,,,,"(-0.75, 0.04)",images/min1.png,7,,,0.0649653066648,0.0,[-0.909375   -0.08611111],1,2018_Jun_25_1255,59.7587829975,sequenceLearningTask,001,117,
min1.png,min2.png,min3.png,min4.png,images/allBlank.png,"['num_7', 'num_4', 'num_1', 'num_0']",['num_7'],num_7,[1],'num_7',images/min1.png,"[(0.45, 0.79)]",,,,,0,-1,-1,0,1,3,7,0,,,,,"(-0.75, 0.04)",images/min1.png,8,,,0.0653337167751,0.0,[-0.4703125  -0.02777778],1,2018_Jun_25_1255,59.7587829975,sequenceLearningTask,001,117,
min1.png,min2.png,min3.png,min4.png,images/allBlank.png,"['num_7', 'num_4', 'num_1', 'num_0']",['num_7'],num_7,[1],'num_7',images/min1.png,"[(0.45, 0.79)]",,,,,0,-1,-1,0,1,3,7,0,,,,,"(-0.75, 0.04)",images/min1.png,8,0.0,1,0.0656332038343,2.65447768022,[-0.99375 -0.225  ],,2018_Jun_25_1255,59.7587829975,sequenceLearningTask,001,117,
min1.png,min2.png,min3.png,min4.png,images/allBlank.png,"['num_7', 'num_4', 'num_1', 'num_0']",['num_7'],num_7,[1],'num_7',images/min1.png,"[(0.45, 0.79)]",,,,,0,-1,-1,0,1,3,7,0,,,,,"(0.25, 0.04)",images/min3.png,8,,,0.062874640862,1.13184035616,[-0.7859375  -0.08333333],,2018_Jun_25_1255,59.7587829975,sequenceLearningTask,001,117,
min1.png,min2.png,min3.png,min4.png,images/allBlank.png,"['num_7', 'num_4', 'num_1', 'num_0']",['num_7'],num_7,[1],'num_7',images/min1.png,"[(0.45, 0.79)]",,,,,0,-1,-1,0,1,3,7,0,,,,,"(0.75, 0.04)",images/min4.png,8,,,0.0561562846415,0.781739986996,[ 0.2953125  -0.05555556],,2018_Jun_25_1255,59.7587829975,sequenceLearningTask,001,117,
min1.png,min2.png,min3.png,min4.png,images/allBlank.png,"['num_7', 'num_4', 'num_1', 'num_0']",['num_1'],num_1,[3],'num_1',images/min3.png,"[(0.45, 0.79)]",,,,,0,-1,-1,0,2,0,8,2,,,,,"(-0.25, 0.04)",images/min2.png,9,,,0.0592799756851,0.90900762708,[ 0.6265625   0.06388889],,2018_Jun_25_1255,59.7587829975,sequenceLearningTask,001,117,
min1.png,min2.png,min3.png,min4.png,images/allBlank.png,"['num_7', 'num_4', 'num_1', 'num_0']",['num_1'],num_1,[3],'num_1',images/min3.png,"[(0.45, 0.79)]",,,,,0,-1,-1,0,2,0,8,2,,,,,"(0.75, 0.04)",images/min4.png,9,,,0.0655683833756,1.63076774124,[-0.3078125   0.04722222],,2018_Jun_25_1255,59.7587829975,sequenceLearningTask,001,117,
min1.png,min2.png,min3.png,min4.png,images/allBlank.png,"['num_7', 'num_4', 'num_1', 'num_0']",['num_1'],num_1,[3],'num_1',images/min3.png,"[(0.45, 0.79)]",,,,,0,-1,-1,0,2,0,8,2,,,,,"(-0.75, 0.04)",images/min1.png,9,,,0.0597123857588,1.57083997093,[ 0.7703125   0.11388889],,2018_Jun_25_1255,59.7587829975,sequenceLearningTask,001,117,
min1.png,min2.png,min3.png,min4.png,images/allBlank.png,"['num_7', 'num_4', 'num_1', 'num_0']",['num_1'],num_1,[3],'num_1',images/min3.png,"[(0.45, 0.79)]",,,,,0,-1,-1,0,2,0,8,2,,,,,"(-0.25, 0.04)",images/min2.png,9,,,0.0656311525381,0.653340449906,[-0.8015625  -0.18611111],,2018_Jun_25_1255,59.7587829975,sequenceLearningTask,001,117,
min1.png,min2.png,min3.png,min4.png,images/allBlank.png,"['num_7', 'num_4', 'num_1', 'num_0']",['num_7'],num_7,[1],'num_7',images/min1.png,"[(0.45, 0.79)]",,,,,0,-1,-1,0,2,1,9,0,,,,,"(0.25, 0.04)",images/min3.png,10,,,0.0627527947654,0.227245445218,[-0.1109375  0.05     ],,2018_Jun_25_1255,59.7587829975,sequenceLearningTask,001,117,
min1.png,min2.png,min3.png,min4.png,images/allBlank.png,"['num_7', 'num_4', 'num_1', 'num_0']",['num_7'],num_7,[1],'num_7',images/min1.png,"[(0.45, 0.79)]",,,,,0,-1,-1,0,2,1,9,0,,,,,"(0.75, 0.04)",images/min4.png,10,0.0347573190811,1,0.0647261272825,0.725161548646,[ 0.1328125  -0.07222222],,2018_Jun_25_1255,59.7587829975,sequenceLearningTask,001,117,
min1.png,min2.png,min3.png,min4.png,images/allBlank.png,"['num_7', 'num_4', 'num_1', 'num_0']",['num_7'],num_7,[1],'num_7',images/min1.png,"[(0.45, 0.79)]",,,,,0,-1,-1,0,2,1,9,0,,,,,"(0.25, 0.04)",images/min3.png,10,,,0.0633956663078,0.555817207845,[ 0.765625    0.12222222],,2018_Jun_25_1255,59.7587829975,sequenceLearningTask,001,117,
min1.png,min2.png,min3.png,min4.png,images/allBlank.png,"['num_7', 'num_4', 'num_1', 'num_0']",['num_7'],num_7,[1],'num_7',images/min1.png,"[(0.45, 0.79)]",,,,,0,-1,-1,0,2,1,9,0,,,,,"(-0.75, 0.04)",images/min1.png,10,0.566930639208,1,0.059404693573,1.26355148162,[ 0.425       0.04722222],,2018_Jun_25_1255,59.7587829975,sequenceLearningTask,001,117,
min1.png,min2.png,min3.png,min4.png,images/allBlank.png,"['num_7', 'num_4', 'num_1', 'num_0']",['num_0'],num_0,[4],'num_0',images/min4.png,"[(0.45, 0.79)]",,,,,0,-1,-1,0,2,2,10,3,,,,,"(-0.75, 0.04)",images/min1.png,11,,,0.0805103259627,0.30444418281,[-0.6546875  -0.09444444],,2018_Jun_25_1255,59.7587829975,sequenceLearningTask,001,117,
min1.png,min2.png,min3.png,min4.png,images/allBlank.png,"['num_7', 'num_4', 'num_1', 'num_0']",['num_0'],num_0,[4],'num_0',images/min4.png,"[(0.45, 0.79)]",,,,,0,-1,-1,0,2,2,10,3,,,,,"(0.25, 0.04)",images/min3.png,11,0.0,1,0.0694637663546,0.0,[-0.4625      0.21388889],1,2018_Jun_25_1255,59.7587829975,sequenceLearningTask,001,117,
min1.png,min2.png,min3.png,min4.png,images/allBlank.png,"['num_7', 'num_4', 'num_1', 'num_0']",['num_0'],num_0,[4],'num_0',images/min4.png,"[(0.45, 0.79)]",,,,,0,-1,-1,0,2,2,10,3,,,,,"(0.75, 0.04)",images/min4.png,11,0.272599683027,1,0.0511294149037,0.954169864941,[ 0.3671875  -0.05833333],,2018_Jun_25_1255,59.7587829975,sequenceLearningTask,001,117,
min1.png,min2.png,min3.png,min4.png,images/allBlank.png,"['num_7', 'num_4', 'num_1', 'num_0']",['num_0'],num_0,[4],'num_0',images/min4.png,"[(0.45, 0.79)]",,,,,0,-1,-1,0,2,2,10,3,,,,,"(-0.25, 0.04)",images/min2.png,11,,,0.0586465400411,0.617989079794,[ 0.6796875  -0.01944444],,2018_Jun_25_1255,59.7587829975,sequenceLearningTask,001,117,
min1.png,min2.png,min3.png,min4.png,images/allBlank.png,"['num_7', 'num_4', 'num_1', 'num_0']",['num_4'],num_4,[2],'num_4',images/min2.png,"[(0.45, 0.79)]",,,,,0,-1,-1,0,2,3,11,1,,,,,"(-0.75, 0.04)",images/min1.png,12,0.130000356934,1,0.0560446949676,0.785204190674,[-0.3515625  -0.20277778],,2018_Jun_25_1255,59.7587829975,sequenceLearningTask,001,117,
min1.png,min2.png,min3.png,min4.png,images/allBlank.png,"['num_7', 'num_4', 'num_1', 'num_0']",['num_4'],num_4,[2],'num_4',images/min2.png,"[(0.45, 0.79)]",,,,,0,-1,-1,0,2,3,11,1,,,,,"(0.25, 0.04)",images/min3.png,12,1.38184558693,1,0.0586420272302,1.38184558693,[-0.6828125  -0.06111111],,2018_Jun_25_1255,59.7587829975,sequenceLearningTask,001,117,
min1.png,min2.png,min3.png,min4.png,images/allBlank.png,"['num_7', 'num_4', 'num_1', 'num_0']",['num_4'],num_4,[2],'num_4',images/min2.png,"[(0.45, 0.79)]",,,,,0,-1,-1,0,2,3,11,1,,,,,"(0.25, 0.04)",images/min3.png,12,,,0.0630969997728,0.292555367138,[ 0.303125   -0.13611111],,2018_Jun_25_1255,59.7587829975,sequenceLearningTask,001,117,
min1.png,min2.png,min3.png,min4.png,images/allBlank.png,"['num_7', 'num_4', 'num_1', 'num_0']",['num_4'],num_4,[2],'num_4',images/min2.png,"[(0.45, 0.79)]",,,,,0,-1,-1,0,2,3,11,1,,,,,"(0.75, 0.04)",images/min4.png,12,0.438071204902,1,0.0555708489846,1.37720312731,[ 0.2234375  -0.08055556],,2018_Jun_25_1255,59.7587829975,sequenceLearningTask,001,117,
min1.png,min2.png,min3.png,min4.png,images/allBlank.png,"['num_7', 'num_4', 'num_1', 'num_0']",['num_1'],num_1,[3],'num_1',images/min3.png,"[(0.45, 0.79)]",,,,,0,-1,-1,0,3,0,12,2,,,,,"(0.25, 0.04)",images/min3.png,13,,,0.0596352575812,0.946828329499,[ 0.6484375   0.09444444],,2018_Jun_25_1255,59.7587829975,sequenceLearningTask,001,117,
min1.png,min2.png,min3.png,min4.png,images/allBlank.png,"['num_7', 'num_4', 'num_1', 'num_0']",['num_1'],num_1,[3],'num_1',images/min3.png,"[(0.45, 0.79)]",,,,,0,-1,-1,0,3,0,12,2,,,,,"(-0.75, 0.04)",images/min1.png,13,1.53761701018,1,0.0759548406349,1.53761701018,[ 0.2109375   0.08611111],,2018_Jun_25_1255,59.7587829975,sequenceLearningTask,001,117,
min1.png,min2.png,min3.png,min4.png,images/allBlank.png,"['num_7', 'num_4', 'num_1', 'num_0']",['num_1'],num_1,[3],'num_1',images/min3.png,"[(0.45, 0.79)]",,,,,0,-1,-1,0,3,0,12,2,,,,,"(0.75, 0.04)",images/min4.png,13,0.198358482739,1,0.0588701296947,1.13399994504,[-0.8203125  -0.01666667],,2018_Jun_25_1255,59.7587829975,sequenceLearningTask,001,117,
min1.png,min2.png,min3.png,min4.png,images/allBlank.png,"['num_7', 'num_4', 'num_1', 'num_0']",['num_1'],num_1,[3],'num_1',images/min3.png,"[(0.45, 0.79)]",,,,,0,-1,-1,0,3,0,12,2,,,,,"(-0.75, 0.04)",images/min1.png,13,0.0,1,0.0741419183032,1.63895030197,[ 0.6890625  -0.20555556],,2018_Jun_25_1255,59.7587829975,sequenceLearningTask,001,117,
min1.png,min2.png,min3.png,min4.png,images/allBlank.png,"['num_7', 'num_4', 'num_1', 'num_0']",['num_7'],num_7,[1],'num_7',images/min1.png,"[(0.45, 0.79)]",,,,,0,-1,-1,0,3,1,13,0,,,,,"(0.25, 0.04)",images/min3.png,14,,,0.0653538193437,0.943675920542,[-0.734375 -0.025   ],,2018_Jun_25_1255,59.7587829975,sequenceLearningTask,001,117,
min1.png,min2.png,min3.png,min4.png,images/allBlank.png,"['num_7', 'num_4', 'num_1', 'num_0']",['num_7'],num_7,[1],'num_7',images/min1.png,"[(0.45, 0.79)]",,,,,0,-1,-1,0,3,1,13,0,,,,,"(0.75, 0.04)",images/min4.png,14,0.415252752689,1,0.0578768993437,1.31936109974,[ 0.0984375  -0.09166667],,2018_Jun_25_1255,59.7587829975,sequenceLearningTask,001,117,
min1.png,min2.png,min3.png,min4.png,images/allBlank.png,"['num_7', 'num_4', 'num_1', 'num_0']",['num_7'],num_7,[1],'num_7',images/min1.png,"[(0.45, 0.79)]",,,,,0,-1,-1,0,3,1,13,0,,,,,"(-0.25, 0.04)",images/min2.png,14,0.870512873633,1,0.0569981304579,0.870512873633,[ 0.728125   -0.10833333],,2018_Jun_25_1255,59.7587829975,sequenceLearningTask,001,117,
min1.png,min2.png,min3.png,min4.png,images/allBlank.png,"['num_7', 'num_4', 'num_1', 'num_0']",['num_7'],num_7,[1],'num_7',images/min1.png,"[(0.45, 0.79)]",,,,,0,-1,-1,0,3,1,13,0,,,,,"(0.25, 0.04)",images/min3.png,14,0.42048023775,1,0.0685747410753,0.42048023775,[-0.225      -0.01111111],,2018_Jun_25_1255,59.7587829975,sequenceLearningTask,001,117,
min1.png,min2.png,min3.png,min4.png,images/allBlank.png,"['num_7', 'num_4', 'num_1', 'num_0']",['num_4'],num_4,[2],'num_4',images/min2.png,"[(0.45, 0.79)]",,,,,0,-1,-1,0,3,2,14,1,,,,,"(0.25, 0.04)",images/min3.png,15,,,0.0691884844273,0.0,[ 0.271875   -0.06666667],1,2018_Jun_25_1255,59.7587829975,sequenceLearningTask,001,117,
min1.png,min2.png,min3.png,min4.png,images/allBlank.png,"['num_7', 'num_4', 'num_1', 'num_0']",['num_4'],num_4,[2],'num_4',images/min2.png,"[(0.45, 0.79)]",,,,,0,-1,-1,0,3,2,14,1,,,,,"(-0.75, 0.04)",images/min1.png,15,0.0,1,0.0655593577249,0.0,[ 0.271875   -0.09722222],1,2018_Jun_25_1255,59.7587829975,sequenceLearningTask,001,117,
min1.png,min2.png,min3.png,min4.png,images/allBlank.png,"['num_7', 'num_4', 'num_1', 'num_0']",['num_4'],num_4,[2],'num_4',images/min2.png,"[(0.45, 0.79)]",,,,,0,-1,-1,0,3,2,14,1,,,,,"(0.75, 0.04)",images/min4.png,15,0.0,1,0.0694293048582,1.17492341541,[-0.8328125  -0.08055556],,2018_Jun_25_1255,59.7587829975,sequenceLearningTask,001,117,
min1.png,min2.png,min3.png,min4.png,images/allBlank.png,"['num_7', 'num_4', 'num_1', 'num_0']",['num_4'],num_4,[2],'num_4',images/min2.png,"[(0.45, 0.79)]",,,,,0,-1,-1,0,3,2,14,1,,,,,"(0.75, 0.04)",images/min4.png,15,,,0.0531441833009,0.25168071728,[ 0.4765625  -0.05833333],,2018_Jun_25_1255,59.7587829975,sequenceLearningTask,001,117,
min1.png,min2.png,min3.png,min4.png,images/allBlank.png,"['num_7', 'num_4', 'num_1', 'num_0']",['num_0'],num_0,[4],'num_0',images/min4.png,"[(0.45, 0.79)]",,,,,0,-1,-1,0,3,3,15,3,,,,,"(-0.25, 0.04)",images/min2.png,16,0.00187446078053,1,0.0526178245782,0.735605852067,[ 0.6796875  -0.11388889],,2018_Jun_25_1255,59.7587829975,sequenceLearningTask,001,117,
min1.png,min2.png,min3.png,min4.png,images/allBlank.png,"['num_7', 'num_4', 'num_1', 'num_0']",['num_0'],num_0,[4],'num_0',images/min4.png,"[(0.45, 0.79)]",,,,,0,-1,-1,0,3,3,15,3,,,,,"(0.25, 0.04)",images/min3.png,16,,,0.0624918717949,0.88184989462,[-0.334375   -0.07777778],,2018_Jun_25_1255,59.7587829975,sequenceLearningTask,001,117,
min1.png,min2.png,min3.png,min4.png,images/allBlank.png,"['num_7', 'num_4', 'num_1', 'num_0']",['num_0'],num_0,[4],'num_0',images/min4.png,"[(0.45, 0.79)]",,,,,0,-1,-1,0,3,3,15,3,,,,,"(-0.75, 0.04)",images/min1.png,16,,,0.0576688994188,0.712929348549,[ 0.25        0.03611111],,2018_Jun_25_1255,59.7587829975,sequenceLearningTask,001,117,
min1.png,min2.png,min3.png,min4.png,images/allBlank.png,"['num_7', 'num_4', 'num_1', 'num_0']",['num_0'],num_0,[4],'num_0',images/min4.png,"[(0.45, 0.79)]",,,,,0,-1,-1,0,3,3,15,3,,,,,"(0.75, 0.04)",images/min4.png,16,0.00183794795885,1,0.0224890164391,0.750007076917,[-0.765625   -0.09166667],,2018_Jun_25_1255,59.7587829975,sequenceLearningTask,001,117,
min1.png,min2.png,min3.png,min4.png,images/allBlank.png,"['num_7', 'num_4', 'num_1', 'num_0']",['num_0'],num_0,[4],'num_0',images/min4.png,"[(0.45, 0.79)]",,,,,0,-1,-1,0,4,0,16,3,,,,,"(-0.25, 0.04)",images/min2.png,17,0.116818823881,1,0.0408356755506,0.662566292274,[ 0.6390625   0.05833333],,2018_Jun_25_1255,59.7587829975,sequenceLearningTask,001,117,
min1.png,min2.png,min3.png,min4.png,images/allBlank.png,"['num_7', 'num_4', 'num_1', 'num_0']",['num_0'],num_0,[4],'num_0',images/min4.png,"[(0.45, 0.79)]",,,,,0,-1,-1,0,4,0,16,3,,,,,"(-0.75, 0.04)",images/min1.png,17,0.113944158395,1,0.0403556757665,0.729107803461,[-0.1421875  -0.14722222],,2018_Jun_25_1255,59.7587829975,sequenceLearningTask,001,117,
min1.png,min2.png,min3.png,min4.png,images/allBlank.png,"['num_7', 'num_4', 'num_1', 'num_0']",['num_0'],num_0,[4],'num_0',images/min4.png,"[(0.45, 0.79)]",,,,,0,-1,-1,0,4,0,16,3,,,,,"(0.75, 0.04)",images/min4.png,17,,,0.0700697148277,0.717053654545,[-0.778125   -0.21666667],,2018_Jun_25_1255,59.7587829975,sequenceLearningTask,001,117,
min1.png,min2.png,min3.png,min4.png,images/allBlank.png,"['num_7', 'num_4', 'num_1', 'num_0']",['num_0'],num_0,[4],'num_0',images/min4.png,"[(0.45, 0.79)]",,,,,0,-1,-1,0,4,0,16,3,,,,,"(0.75, 0.04)",images/min4.png,17,,,0.0670416135108,0.869812566234,[ 0.6265625  -0.03888889],,2018_Jun_25_1255,59.7587829975,sequenceLearningTask,001,117,
min1.png,min2.png,min3.png,min4.png,images/allBlank.png,"['num_7', 'num_4', 'num_1', 'num_0']",['num_4'],num_4,[2],'num_4',images/min2.png,"[(0.45, 0.79)]",,,,,0,-1,-1,0,4,1,17,1,,,,,"(-0.75, 0.04)",images/min1.png,18,0.0,1,0.0636172046652,1.04307895669,[ 0.79375    -0.14722222],,2018_Jun_25_1255,59.7587829975,sequenceLearningTask,001,117,
min1.png,min2.png,min3.png,min4.png,images/allBlank.png,"['num_7', 'num_4', 'num_1', 'num_0']",['num_4'],num_4,[2],'num_4',images/min2.png,"[(0.45, 0.79)]",,,,,0,-1,-1,0,4,1,17,1,,,,,"(0.75, 0.04)",images/min4.png,18,0.411934189964,1,0.0552520799101,0.929753464705,[-0.7234375   0.05833333],,2018_Jun_25_1255,59.7587829975,sequenceLearningTask,001,117,
min1.png,min2.png,min3.png,min4.png,images/allBlank.png,"['num_7', 'num_4', 'num_1', 'num_0']",['num_4'],num_4,[2],'num_4',images/min2.png,"[(0.45, 0.79)]",,,,,0,-1,-1,0,4,1,17,1,,,,,"(0.25, 0.04)",images/min3.png,18,0.0,1,0.0556746438378,0.602992573142,[ 0.7546875  -0.16111111],,2018_Jun_25_1255,59.7587829975,sequenceLearningTask,001,117,
min1.png,min2.png,min3.png,min4.png,images/allBlank.png,"['num_7', 'num_4', 'num_1', 'num_0']",['num_4'],num_4,[2],'num_4',images/min2.png,"[(0.45, 0.79)]",,,,,0,-1,-1,0,4,1,17,1,,,,,"(-0.25, 0.04)",images/min2.png,18,,,0.0607125904644,0.593530423183,[ 0.2578125 -0.075    ],,2018_Jun_25_1255,59.7587829975,sequenceLearningTask,001,117,
min1.png,min2.png,min3.png,min4.png,images/allBlank.png,"['num_7', 'num_4', 'num_1', 'num_0']",['num_7'],num_7,[1],'num_7',images/min1.png,"[(0.45, 0.79)]",,,,,0,-1,-1,0,4,2,18,0,,,,,"(0.25, 0.04)",images/min3.png,19,,,0.0518014146364,1.10027359988,[-0.4015625  -0.31388889],,2018_Jun_25_1255,59.7587829975,sequenceLearningTask,001,117,
min1.png,min2.png,min3.png,min4.png,images/allBlank.png,"['num_7', 'num_4', 'num_1', 'num_0']",['num_7'],num_7,[1],'num_7',images/min1.png,"[(0.45, 0.79)]",,,,,0,-1,-1,0,4,2,18,0,,,,,"(0.25, 0.04)",images/min3.png,19,,,0.0594928986684,1.27159824755,[ 0.2953125   0.14444444],,2018_Jun_25_1255,59.7587829975,sequenceLearningTask,001,117,
min1.png,min2.png,min3.png,min4.png,images/allBlank.png,"['num_7', 'num_4', 'num_1', 'num_0']",['num_7'],num_7,[1],'num_7',images/min1.png,"[(0.45, 0.79)]",,,,,0,-1,-1,0,4,2,18,0,,,,,"(0.75, 0.04)",images/min4.png,19,0.329821813415,1,0.0607548468688,1.08290991469,[ 0.2296875   0.01944444],,2018_Jun_25_1255,59.7587829975,sequenceLearningTask,001,117,
min1.png,min2.png,min3.png,min4.png,images/allBlank.png,"['num_7', 'num_4', 'num_1', 'num_0']",['num_7'],num_7,[1],'num_7',images/min1.png,"[(0.45, 0.79)]",,,,,0,-1,-1,0,4,2,18,0,,,,,"(-0.75, 0.04)",images/min1.png,19,,,0.0673673569981,1.31169710288,[ 0.7296875  -0.01388889],,2018_Jun_25_1255,59.7587829975,sequenceLearningTask,001,117,
min1.png,min2.png,min3.png,min4.png,images/allBlank.png,"['num_7', 'num_4', 'num_1', 'num_0']",['num_1'],num_1,[3],'num_1',images/min3.png,"[(0.45, 0.79)]",,,,,0,-1,-1,0,4,3,19,2,,,,,"(0.75, 0.04)",images/min4.png,20,,,0.0562116692308,3.06156674397,[-0.7078125  -0.21388889],,2018_Jun_25_1255,59.7587829975,sequenceLearningTask,001,117,
min1.png,min2.png,min3.png,min4.png,images/allBlank.png,"['num_7', 'num_4', 'num_1', 'num_0']",['num_1'],num_1,[3],'num_1',images/min3.png,"[(0.45, 0.79)]",,,,,0,-1,-1,0,4,3,19,2,,,,,"(0.25, 0.04)",images/min3.png,20,,,0.0882444766175,1.17118187848,[ 0.7296875  -0.20833333],,2018_Jun_25_1255,59.7587829975,sequenceLearningTask,001,117,
min1.png,min2.png,min3.png,min4.png,images/allBlank.png,"['num_7', 'num_4', 'num_1', 'num_0']",['num_1'],num_1,[3],'num_1',images/min3.png,"[(0.45, 0.79)]",,,,,0,-1,-1,0,4,3,19,2,,,,,"(-0.25, 0.04)",images/min2.png,20,,,0.0570284894202,0.796893211518,[ 0.4453125   0.11111111],,2018_Jun_25_1255,59.7587829975,sequenceLearningTask,001,117,
min1.png,min2.png,min3.png,min4.png,images/allBlank.png,"['num_7', 'num_4', 'num_1', 'num_0']",['num_1'],num_1,[3],'num_1',images/min3.png,"[(0.45, 0.79)]",,,,,0,-1,-1,0,4,3,19,2,,,,,"(0.75, 0.04)",images/min4.png,20,,,0.0719675602159,0.932138284261,[-0.290625   -0.06388889],,2018_Jun_25_1255,59.7587829975,sequenceLearningTask,001,117,
min1.png,min2.png,min3.png,min4.png,allBlank.png,"['num_7', 'num_4', 'num_1', 'num_0']",['num_1'],num_1,[3],'num_1',images/min3.png,"[(0.45, 0.79)]",,,,,0,0,0,0,4,3,19,2,,,,,"(-0.75, -0.04)",images/min1.png,1,0.0873817077372,1,0.0402239834948,0.927522491285,[ 0.7328125   0.00277778],,2018_Jun_25_1255,59.7587829975,sequenceLearningTask,001,117,
min1.png,min2.png,min3.png,min4.png,allBlank.png,"['num_7', 'num_4', 'num_1', 'num_0']",['num_1'],num_1,[3],'num_1',images/min3.png,"[(0.45, 0.79)]",,,,,0,0,0,0,4,3,19,2,,,,,"(0.25, -0.04)",images/min3.png,1,,,0.0567187459674,0.655253474775,[-0.6875 -0.025 ],,2018_Jun_25_1255,59.7587829975,sequenceLearningTask,001,117,
min1.png,min2.png,min3.png,min4.png,allBlank.png,"['num_7', 'num_4', 'num_1', 'num_0']",['num_1'],num_1,[3],'num_1',images/min3.png,"[(0.45, 0.79)]",,,,,0,0,0,0,4,3,19,2,,,,,"(-0.25, -0.04)",images/min2.png,1,,,0.060831154522,0.564520383778,[ 0.103125    0.14444444],,2018_Jun_25_1255,59.7587829975,sequenceLearningTask,001,117,
min1.png,min2.png,min3.png,min4.png,allBlank.png,"['num_7', 'num_4', 'num_1', 'num_0']",['num_1'],num_1,[3],'num_1',images/min3.png,"[(0.45, 0.79)]",,,,,0,0,0,0,4,3,19,2,,,,,"(0.75, -0.04)",images/min4.png,1,,,0.0589870527328,0.718042782362,[-0.2203125   0.06666667],,2018_Jun_25_1255,59.7587829975,sequenceLearningTask,001,117,
min1.png,min2.png,min3.png,min4.png,allBlank.png,"['num_7', 'num_4', 'num_1', 'num_0']",['num_1'],num_1,[3],'num_1',images/min3.png,"[(0.45, 0.79)]",,,,,0,0,0,0,4,3,19,2,,,,,"(0.75, -0.04)",images/min4.png,1,,,0.0555827464268,0.840144475835,[ 0.7         0.06944444],,2018_Jun_25_1255,59.7587829975,sequenceLearningTask,001,117,
min1.png,min2.png,min3.png,min4.png,allBlank.png,"['num_7', 'num_4', 'num_1', 'num_0']",['num_1'],num_1,[3],'num_1',images/min3.png,"[(0.45, 0.79)]",,,,,0,0,0,0,4,3,19,2,,,,,"(-0.25, -0.04)",images/min2.png,1,,,0.0600159753812,0.583603863139,[ 0.7453125  -0.01388889],,2018_Jun_25_1255,59.7587829975,sequenceLearningTask,001,117,
min1.png,min2.png,min3.png,min4.png,allBlank.png,"['num_7', 'num_4', 'num_1', 'num_0']",['num_1'],num_1,[3],'num_1',images/min3.png,"[(0.45, 0.79)]",,,,,0,0,0,0,4,3,19,2,,,,,"(0.25, -0.04)",images/min3.png,1,,,0.0590055142529,0.769646863744,[-0.2140625  -0.08611111],,2018_Jun_25_1255,59.7587829975,sequenceLearningTask,001,117,
min1.png,min2.png,min3.png,min4.png,allBlank.png,"['num_7', 'num_4', 'num_1', 'num_0']",['num_1'],num_1,[3],'num_1',images/min3.png,"[(0.45, 0.79)]",,,,,0,0,0,0,4,3,19,2,,,,,"(0.75, -0.04)",images/min4.png,1,,,0.0725378163916,0.601730624912,[ 0.2546875  -0.08611111],,2018_Jun_25_1255,59.7587829975,sequenceLearningTask,001,117,
min1.png,min2.png,min3.png,min4.png,allBlank.png,"['num_7', 'num_4', 'num_1', 'num_0']",['num_1'],num_1,[3],'num_1',images/min3.png,"[(0.45, 0.79)]",,,,,0,1,1,1,4,3,19,2,,,,,"(-0.75, -0.04)",images/min1.png,2,,,0.060212077864,0.667323213391,[ 0.775       0.00833333],,2018_Jun_25_1255,59.7587829975,sequenceLearningTask,001,117,
min1.png,min2.png,min3.png,min4.png,allBlank.png,"['num_7', 'num_4', 'num_1', 'num_0']",['num_1'],num_1,[3],'num_1',images/min3.png,"[(0.45, 0.79)]",,,,,0,1,1,1,4,3,19,2,,,,,"(0.25, -0.04)",images/min3.png,2,,,0.0598334113602,0.683592334943,[-0.7796875  -0.21666667],,2018_Jun_25_1255,59.7587829975,sequenceLearningTask,001,117,
min1.png,min2.png,min3.png,min4.png,allBlank.png,"['num_7', 'num_4', 'num_1', 'num_0']",['num_1'],num_1,[3],'num_1',images/min3.png,"[(0.45, 0.79)]",,,,,0,1,1,1,4,3,19,2,,,,,"(-0.25, -0.04)",images/min2.png,2,,,0.0507515689242,0.790353316785,[ 0.20625    -0.03888889],,2018_Jun_25_1255,59.7587829975,sequenceLearningTask,001,117,
min1.png,min2.png,min3.png,min4.png,allBlank.png,"['num_7', 'num_4', 'num_1', 'num_0']",['num_1'],num_1,[3],'num_1',images/min3.png,"[(0.45, 0.79)]",,,,,0,1,1,1,4,3,19,2,,,,,"(0.75, -0.04)",images/min4.png,2,,,0.0564939255419,0.835490529018,[-0.190625    0.03611111],,2018_Jun_25_1255,59.7587829975,sequenceLearningTask,001,117,
min1.png,min2.png,min3.png,min4.png,allBlank.png,"['num_7', 'num_4', 'num_1', 'num_0']",['num_1'],num_1,[3],'num_1',images/min3.png,"[(0.45, 0.79)]",,,,,0,1,1,1,4,3,19,2,,,,,"(0.75, -0.04)",images/min4.png,2,,,0.0540090035065,1.00061784589,[ 0.7328125  -0.01666667],,2018_Jun_25_1255,59.7587829975,sequenceLearningTask,001,117,
min1.png,min2.png,min3.png,min4.png,allBlank.png,"['num_7', 'num_4', 'num_1', 'num_0']",['num_1'],num_1,[3],'num_1',images/min3.png,"[(0.45, 0.79)]",,,,,0,1,1,1,4,3,19,2,,,,,"(-0.25, -0.04)",images/min2.png,2,,,0.0616504362551,0.663716240524,[ 0.715625   -0.11666667],,2018_Jun_25_1255,59.7587829975,sequenceLearningTask,001,117,
min1.png,min2.png,min3.png,min4.png,allBlank.png,"['num_7', 'num_4', 'num_1', 'num_0']",['num_1'],num_1,[3],'num_1',images/min3.png,"[(0.45, 0.79)]",,,,,0,1,1,1,4,3,19,2,,,,,"(0.25, -0.04)",images/min3.png,2,,,0.0534366960346,0.667067213508,[-0.2859375  -0.05833333],,2018_Jun_25_1255,59.7587829975,sequenceLearningTask,001,117,
min1.png,min2.png,min3.png,min4.png,allBlank.png,"['num_7', 'num_4', 'num_1', 'num_0']",['num_1'],num_1,[3],'num_1',images/min3.png,"[(0.45, 0.79)]",,,,,0,1,1,1,4,3,19,2,,,,,"(0.75, -0.04)",images/min4.png,2,,,0.0554133105907,0.790324188594,[ 0.1921875  -0.03333333],,2018_Jun_25_1255,59.7587829975,sequenceLearningTask,001,117,
min1.png,min2.png,min3.png,min4.png,allBlank.png,"['num_7', 'num_4', 'num_1', 'num_0']",['num_1'],num_1,[3],'num_1',images/min3.png,"[(0.45, 0.79)]",,,,,0,2,2,2,4,3,19,2,,,,,"(-0.75, -0.04)",images/min1.png,3,,,0.050710133044,1.27678798902,[ 0.7171875   0.01944444],,2018_Jun_25_1255,59.7587829975,sequenceLearningTask,001,117,
min1.png,min2.png,min3.png,min4.png,allBlank.png,"['num_7', 'num_4', 'num_1', 'num_0']",['num_1'],num_1,[3],'num_1',images/min3.png,"[(0.45, 0.79)]",,,,,0,2,2,2,4,3,19,2,,,,,"(0.25, -0.04)",images/min3.png,3,,,0.0518289018364,0.889448250469,[-0.6609375  -0.11944444],,2018_Jun_25_1255,59.7587829975,sequenceLearningTask,001,117,
min1.png,min2.png,min3.png,min4.png,allBlank.png,"['num_7', 'num_4', 'num_1', 'num_0']",['num_1'],num_1,[3],'num_1',images/min3.png,"[(0.45, 0.79)]",,,,,0,2,2,2,4,3,19,2,,,,,"(-0.25, -0.04)",images/min2.png,3,,,0.0588762835541,0.634304970532,[ 0.1953125  -0.20555556],,2018_Jun_25_1255,59.7587829975,sequenceLearningTask,001,117,
min1.png,min2.png,min3.png,min4.png,allBlank.png,"['num_7', 'num_4', 'num_1', 'num_0']",['num_1'],num_1,[3],'num_1',images/min3.png,"[(0.45, 0.79)]",,,,,0,2,2,2,4,3,19,2,,,,,"(0.75, -0.04)",images/min4.png,3,,,0.0551913619565,1.0248516821,[-0.1875     -0.04722222],,2018_Jun_25_1255,59.7587829975,sequenceLearningTask,001,117,
min1.png,min2.png,min3.png,min4.png,allBlank.png,"['num_7', 'num_4', 'num_1', 'num_0']",['num_1'],num_1,[3],'num_1',images/min3.png,"[(0.45, 0.79)]",,,,,0,2,2,2,4,3,19,2,,,,,"(0.75, -0.04)",images/min4.png,3,,,0.0614371029951,1.13167009983,[ 0.6265625  -0.09722222],,2018_Jun_25_1255,59.7587829975,sequenceLearningTask,001,117,
min1.png,min2.png,min3.png,min4.png,allBlank.png,"['num_7', 'num_4', 'num_1', 'num_0']",['num_1'],num_1,[3],'num_1',images/min3.png,"[(0.45, 0.79)]",,,,,0,2,2,2,4,3,19,2,,,,,"(-0.25, -0.04)",images/min2.png,3,,,0.0220069653296,0.722170370398,[ 0.6125     -0.04722222],,2018_Jun_25_1255,59.7587829975,sequenceLearningTask,001,117,
min1.png,min2.png,min3.png,min4.png,allBlank.png,"['num_7', 'num_4', 'num_1', 'num_0']",['num_1'],num_1,[3],'num_1',images/min3.png,"[(0.45, 0.79)]",,,,,0,2,2,2,4,3,19,2,,,,,"(0.25, -0.04)",images/min3.png,3,,,0.0574756687274,1.00382194715,[-0.33125     0.01111111],,2018_Jun_25_1255,59.7587829975,sequenceLearningTask,001,117,
min1.png,min2.png,min3.png,min4.png,allBlank.png,"['num_7', 'num_4', 'num_1', 'num_0']",['num_1'],num_1,[3],'num_1',images/min3.png,"[(0.45, 0.79)]",,,,,0,2,2,2,4,3,19,2,,,,,"(0.75, -0.04)",images/min4.png,3,,,0.0583347453212,0.88009645947,[ 0.146875   -0.11944444],,2018_Jun_25_1255,59.7587829975,sequenceLearningTask,001,117,
min1.png,min2.png,min3.png,min4.png,allBlank.png,"['num_7', 'num_4', 'num_1', 'num_0']",['num_1'],num_1,[3],'num_1',images/min3.png,"[(0.45, 0.79)]",,,,,0,3,3,3,4,3,19,2,,,,,"(-0.75, -0.04)",images/min1.png,4,,,0.0700537148514,0.780099372263,[ 0.6984375  -0.14166667],,2018_Jun_25_1255,59.7587829975,sequenceLearningTask,001,117,
min1.png,min2.png,min3.png,min4.png,allBlank.png,"['num_7', 'num_4', 'num_1', 'num_0']",['num_1'],num_1,[3],'num_1',images/min3.png,"[(0.45, 0.79)]",,,,,0,3,3,3,4,3,19,2,,,,,"(0.25, -0.04)",images/min3.png,4,,,0.0617439746857,0.779696090409,[-0.6484375 -0.25     ],,2018_Jun_25_1255,59.7587829975,sequenceLearningTask,001,117,
min1.png,min2.png,min3.png,min4.png,allBlank.png,"['num_7', 'num_4', 'num_1', 'num_0']",['num_1'],num_1,[3],'num_1',images/min3.png,"[(0.45, 0.79)]",,,,,0,3,3,3,4,3,19,2,,,,,"(-0.25, -0.04)",images/min2.png,4,,,0.0542736187635,0.653140655137,[ 0.2515625  -0.20833333],,2018_Jun_25_1255,59.7587829975,sequenceLearningTask,001,117,
min1.png,min2.png,min3.png,min4.png,allBlank.png,"['num_7', 'num_4', 'num_1', 'num_0']",['num_1'],num_1,[3],'num_1',images/min3.png,"[(0.45, 0.79)]",,,,,0,3,3,3,4,3,19,2,,,,,"(0.75, -0.04)",images/min4.png,4,,,0.0608007955598,0.614837081084,[-0.3015625  -0.16388889],,2018_Jun_25_1255,59.7587829975,sequenceLearningTask,001,117,
min1.png,min2.png,min3.png,min4.png,allBlank.png,"['num_7', 'num_4', 'num_1', 'num_0']",['num_1'],num_1,[3],'num_1',images/min3.png,"[(0.45, 0.79)]",,,,,0,3,3,3,4,3,19,2,,,,,"(0.75, -0.04)",images/min4.png,4,,,0.0510387482645,1.00952163714,[ 0.6515625  -0.19722222],,2018_Jun_25_1255,59.7587829975,sequenceLearningTask,001,117,
min1.png,min2.png,min3.png,min4.png,allBlank.png,"['num_7', 'num_4', 'num_1', 'num_0']",['num_1'],num_1,[3],'num_1',images/min3.png,"[(0.45, 0.79)]",,,,,0,3,3,3,4,3,19,2,,,,,"(-0.25, -0.04)",images/min2.png,4,0.740683183307,1,0.0525160810212,1.13712896936,[ 0.7390625  -0.12222222],,2018_Jun_25_1255,59.7587829975,sequenceLearningTask,001,117,
min1.png,min2.png,min3.png,min4.png,allBlank.png,"['num_7', 'num_4', 'num_1', 'num_0']",['num_1'],num_1,[3],'num_1',images/min3.png,"[(0.45, 0.79)]",,,,,0,3,3,3,4,3,19,2,,,,,"(0.25, -0.04)",images/min3.png,4,,,0.0425608030346,0.953852326609,[-0.3015625   0.00833333],,2018_Jun_25_1255,59.7587829975,sequenceLearningTask,001,117,
min1.png,min2.png,min3.png,min4.png,allBlank.png,"['num_7', 'num_4', 'num_1', 'num_0']",['num_1'],num_1,[3],'num_1',images/min3.png,"[(0.45, 0.79)]",,,,,0,3,3,3,4,3,19,2,,,,,"(0.75, -0.04)",images/min4.png,4,,,0.0564102332573,0.770856299147,[ 0.20625  0.025  ],,2018_Jun_25_1255,59.7587829975,sequenceLearningTask,001,117,
min1.png,min2.png,min3.png,min4.png,allBlank.png,"['num_7', 'num_4', 'num_1', 'num_0']",['num_1'],num_1,[3],'num_1',images/min3.png,"[(0.45, 0.79)]",,,,,0,4,4,4,4,3,19,2,,,,,"(-0.75, -0.04)",images/min1.png,5,,,0.0554658233887,0.35387759842,[ 0.7        -0.07777778],,2018_Jun_25_1255,59.7587829975,sequenceLearningTask,001,117,
min1.png,min2.png,min3.png,min4.png,allBlank.png,"['num_7', 'num_4', 'num_1', 'num_0']",['num_1'],num_1,[3],'num_1',images/min3.png,"[(0.45, 0.79)]",,,,,0,4,4,4,4,3,19,2,,,,,"(0.25, -0.04)",images/min3.png,5,,,0.0537181317923,0.683480334963,[-0.7390625  -0.33611111],,2018_Jun_25_1255,59.7587829975,sequenceLearningTask,001,117,
min1.png,min2.png,min3.png,min4.png,allBlank.png,"['num_7', 'num_4', 'num_1', 'num_0']",['num_1'],num_1,[3],'num_1',images/min3.png,"[(0.45, 0.79)]",,,,,0,4,4,4,4,3,19,2,,,,,"(-0.25, -0.04)",images/min2.png,5,,,0.0637644866656,0.86443820945,[ 0.2078125   0.10277778],,2018_Jun_25_1255,59.7587829975,sequenceLearningTask,001,117,
min1.png,min2.png,min3.png,min4.png,allBlank.png,"['num_7', 'num_4', 'num_1', 'num_0']",['num_1'],num_1,[3],'num_1',images/min3.png,"[(0.45, 0.79)]",,,,,0,4,4,4,4,3,19,2,,,,,"(0.75, -0.04)",images/min4.png,5,,,0.0645123837749,0.676421876327,[-0.25625    -0.16388889],,2018_Jun_25_1255,59.7587829975,sequenceLearningTask,001,117,
min1.png,min2.png,min3.png,min4.png,allBlank.png,"['num_7', 'num_4', 'num_1', 'num_0']",['num_1'],num_1,[3],'num_1',images/min3.png,"[(0.45, 0.79)]",,,,,0,4,4,4,4,3,19,2,,,,,"(0.75, -0.04)",images/min4.png,5,1.10843810937,1,0.0525821322808,2.04608080161,[ 0.5953125  -0.11388889],,2018_Jun_25_1255,59.7587829975,sequenceLearningTask,001,117,
min1.png,min2.png,min3.png,min4.png,allBlank.png,"['num_7', 'num_4', 'num_1', 'num_0']",['num_1'],num_1,[3],'num_1',images/min3.png,"[(0.45, 0.79)]",,,,,0,4,4,4,4,3,19,2,,,,,"(-0.25, -0.04)",images/min2.png,5,,,0.0588647963596,1.11987236107,[ 0.725      -0.07777778],,2018_Jun_25_1255,59.7587829975,sequenceLearningTask,001,117,
min1.png,min2.png,min3.png,min4.png,allBlank.png,"['num_7', 'num_4', 'num_1', 'num_0']",['num_1'],num_1,[3],'num_1',images/min3.png,"[(0.45, 0.79)]",,,,,0,4,4,4,4,3,19,2,,,,,"(0.25, -0.04)",images/min3.png,5,,,0.0671043827315,0.87392620559,[-0.3140625   0.00833333],,2018_Jun_25_1255,59.7587829975,sequenceLearningTask,001,117,
min1.png,min2.png,min3.png,min4.png,allBlank.png,"['num_7', 'num_4', 'num_1', 'num_0']",['num_1'],num_1,[3],'num_1',images/min3.png,"[(0.45, 0.79)]",,,,,0,4,4,4,4,3,19,2,,,,,"(0.75, -0.04)",images/min4.png,5,,,0.0726822265715,1.92666874803,[ 0.2203125  -0.08888889],,2018_Jun_25_1255,59.7587829975,sequenceLearningTask,001,117,
min1.png,min2.png,min3.png,min4.png,allBlank.png,"['num_7', 'num_4', 'num_1', 'num_0']",['num_1'],num_1,[3],'num_1',images/min3.png,"[(0.45, 0.79)]",,,,,0,5,5,5,4,3,19,2,,,,,"(-0.75, -0.04)",images/min1.png,6,,,0.0508278765774,4.71073858021,[ 0.7359375   0.13611111],,2018_Jun_25_1255,59.7587829975,sequenceLearningTask,001,117,
min1.png,min2.png,min3.png,min4.png,allBlank.png,"['num_7', 'num_4', 'num_1', 'num_0']",['num_1'],num_1,[3],'num_1',images/min3.png,"[(0.45, 0.79)]",,,,,0,5,5,5,4,3,19,2,,,,,"(0.25, -0.04)",images/min3.png,6,,,0.0601718727557,3.67782085013,[-0.7109375   0.01111111],,2018_Jun_25_1255,59.7587829975,sequenceLearningTask,001,117,
min1.png,min2.png,min3.png,min4.png,allBlank.png,"['num_7', 'num_4', 'num_1', 'num_0']",['num_1'],num_1,[3],'num_1',images/min3.png,"[(0.45, 0.79)]",,,,,0,5,5,5,4,3,19,2,,,,,"(-0.25, -0.04)",images/min2.png,6,,,0.047174544743,1.26373117385,[ 0.309375 -0.125   ],,2018_Jun_25_1255,59.7587829975,sequenceLearningTask,001,117,
min1.png,min2.png,min3.png,min4.png,allBlank.png,"['num_7', 'num_4', 'num_1', 'num_0']",['num_1'],num_1,[3],'num_1',images/min3.png,"[(0.45, 0.79)]",,,,,0,5,5,5,4,3,19,2,,,,,"(0.75, -0.04)",images/min4.png,6,,,0.0588533091941,1.18790187163,[-0.2359375   0.05555556],,2018_Jun_25_1255,59.7587829975,sequenceLearningTask,001,117,
min1.png,min2.png,min3.png,min4.png,allBlank.png,"['num_7', 'num_4', 'num_1', 'num_0']",['num_1'],num_1,[3],'num_1',images/min3.png,"[(0.45, 0.79)]",,,,,0,5,5,5,4,3,19,2,,,,,"(0.75, -0.04)",images/min4.png,6,,,0.066699049552,0.770441119821,[ 0.6640625  -0.14166667],,2018_Jun_25_1255,59.7587829975,sequenceLearningTask,001,117,
min1.png,min2.png,min3.png,min4.png,allBlank.png,"['num_7', 'num_4', 'num_1', 'num_0']",['num_1'],num_1,[3],'num_1',images/min3.png,"[(0.45, 0.79)]",,,,,0,5,5,5,4,3,19,2,,,,,"(-0.25, -0.04)",images/min2.png,6,,,0.0665111521957,0.58906314295,[ 0.73125     0.12777778],,2018_Jun_25_1255,59.7587829975,sequenceLearningTask,001,117,
min1.png,min2.png,min3.png,min4.png,allBlank.png,"['num_7', 'num_4', 'num_1', 'num_0']",['num_1'],num_1,[3],'num_1',images/min3.png,"[(0.45, 0.79)]",,,,,0,5,5,5,4,3,19,2,,,,,"(0.25, -0.04)",images/min3.png,6,,,0.0521579273336,0.791250136914,[-0.31875    -0.13888889],,2018_Jun_25_1255,59.7587829975,sequenceLearningTask,001,117,
min1.png,min2.png,min3.png,min4.png,allBlank.png,"['num_7', 'num_4', 'num_1', 'num_0']",['num_1'],num_1,[3],'num_1',images/min3.png,"[(0.45, 0.79)]",,,,,0,5,5,5,4,3,19,2,,,,,"(0.75, -0.04)",images/min4.png,6,,,0.0563064384332,0.7693498382,[ 0.2953125  -0.08888889],,2018_Jun_25_1255,59.7587829975,sequenceLearningTask,001,117,
min1.png,min2.png,min3.png,min4.png,allBlank.png,"['num_7', 'num_4', 'num_1', 'num_0']",['num_1'],num_1,[3],'num_1',images/min3.png,"[(0.45, 0.79)]",,,,,0,6,6,6,4,3,19,2,,,,,"(-0.75, -0.04)",images/min1.png,7,,,0.0556869515276,0.634615534509,[ 0.6640625  -0.16388889],,2018_Jun_25_1255,59.7587829975,sequenceLearningTask,001,117,
min1.png,min2.png,min3.png,min4.png,allBlank.png,"['num_7', 'num_4', 'num_1', 'num_0']",['num_1'],num_1,[3],'num_1',images/min3.png,"[(0.45, 0.79)]",,,,,0,6,6,6,4,3,19,2,,,,,"(0.25, -0.04)",images/min3.png,7,,,0.0633591535152,0.942393049278,[-0.7625     -0.13611111],,2018_Jun_25_1255,59.7587829975,sequenceLearningTask,001,117,
min1.png,min2.png,min3.png,min4.png,allBlank.png,"['num_7', 'num_4', 'num_1', 'num_0']",['num_1'],num_1,[3],'num_1',images/min3.png,"[(0.45, 0.79)]",,,,,0,6,6,6,4,3,19,2,,,,,"(-0.25, -0.04)",images/min2.png,7,,,0.0560311565059,0.671293673309,[ 0.1953125  -0.10277778],,2018_Jun_25_1255,59.7587829975,sequenceLearningTask,001,117,
min1.png,min2.png,min3.png,min4.png,allBlank.png,"['num_7', 'num_4', 'num_1', 'num_0']",['num_1'],num_1,[3],'num_1',images/min3.png,"[(0.45, 0.79)]",,,,,0,6,6,6,4,3,19,2,,,,,"(0.75, -0.04)",images/min4.png,7,,,0.0431536233227,0.910703626374,[-0.2703125  -0.18611111],,2018_Jun_25_1255,59.7587829975,sequenceLearningTask,001,117,
min1.png,min2.png,min3.png,min4.png,allBlank.png,"['num_7', 'num_4', 'num_1', 'num_0']",['num_1'],num_1,[3],'num_1',images/min3.png,"[(0.45, 0.79)]",,,,,0,6,6,6,4,3,19,2,,,,,"(0.75, -0.04)",images/min4.png,7,,,0.0568705407495,1.00507117741,[ 0.709375   -0.24166667],,2018_Jun_25_1255,59.7587829975,sequenceLearningTask,001,117,
min1.png,min2.png,min3.png,min4.png,allBlank.png,"['num_7', 'num_4', 'num_1', 'num_0']",['num_1'],num_1,[3],'num_1',images/min3.png,"[(0.45, 0.79)]",,,,,0,6,6,6,4,3,19,2,,,,,"(-0.25, -0.04)",images/min2.png,7,,,0.0610100262566,1.11520897839,[ 0.7140625  -0.00555556],,2018_Jun_25_1255,59.7587829975,sequenceLearningTask,001,117,
min1.png,min2.png,min3.png,min4.png,allBlank.png,"['num_7', 'num_4', 'num_1', 'num_0']",['num_1'],num_1,[3],'num_1',images/min3.png,"[(0.45, 0.79)]",,,,,0,6,6,6,4,3,19,2,,,,,"(0.25, -0.04)",images/min3.png,7,,,0.0565017203917,0.603993598343,[-0.3515625 -0.225    ],,2018_Jun_25_1255,59.7587829975,sequenceLearningTask,001,117,
min1.png,min2.png,min3.png,min4.png,allBlank.png,"['num_7', 'num_4', 'num_1', 'num_0']",['num_1'],num_1,[3],'num_1',images/min3.png,"[(0.45, 0.79)]",,,,,0,6,6,6,4,3,19,2,,,,,"(0.75, -0.04)",images/min4.png,7,0.573962841445,1,0.0553251054953,1.4913909779,[ 0.234375   -0.14722222],,2018_Jun_25_1255,59.7587829975,sequenceLearningTask,001,117,
min1.png,min2.png,min3.png,min4.png,allBlank.png,"['num_7', 'num_4', 'num_1', 'num_0']",['num_1'],num_1,[3],'num_1',images/min3.png,"[(0.45, 0.79)]",,,,,0,7,7,7,4,3,19,2,,,,,"(-0.75, -0.04)",images/min1.png,8,0.605253085028,1,0.0488180312386,0.605253085028,[ 0.5984375 -0.125    ],,2018_Jun_25_1255,59.7587829975,sequenceLearningTask,001,117,
min1.png,min2.png,min3.png,min4.png,allBlank.png,"['num_7', 'num_4', 'num_1', 'num_0']",['num_1'],num_1,[3],'num_1',images/min3.png,"[(0.45, 0.79)]",,,,,0,7,7,7,4,3,19,2,,,,,"(0.25, -0.04)",images/min3.png,8,0.0,1,0.0688963819994,1.108019648,[-0.678125   -0.10833333],,2018_Jun_25_1255,59.7587829975,sequenceLearningTask,001,117,
min1.png,min2.png,min3.png,min4.png,allBlank.png,"['num_7', 'num_4', 'num_1', 'num_0']",['num_1'],num_1,[3],'num_1',images/min3.png,"[(0.45, 0.79)]",,,,,0,7,7,7,4,3,19,2,,,,,"(-0.25, -0.04)",images/min2.png,8,,,0.0528689014027,0.674841159052,[ 0.1828125   0.08055556],,2018_Jun_25_1255,59.7587829975,sequenceLearningTask,001,117,
min1.png,min2.png,min3.png,min4.png,allBlank.png,"['num_7', 'num_4', 'num_1', 'num_0']",['num_1'],num_1,[3],'num_1',images/min3.png,"[(0.45, 0.79)]",,,,,0,7,7,7,4,3,19,2,,,,,"(0.75, -0.04)",images/min4.png,8,0.0,1,0.0566116690752,6.44877191845,[-0.3453125   0.01388889],,2018_Jun_25_1255,59.7587829975,sequenceLearningTask,001,117,
min1.png,min2.png,min3.png,min4.png,allBlank.png,"['num_7', 'num_4', 'num_1', 'num_0']",['num_1'],num_1,[3],'num_1',images/min3.png,"[(0.45, 0.79)]",,,,,0,7,7,7,4,3,19,2,,,,,"(0.75, -0.04)",images/min4.png,8,,,0.0600405907317,1.21288975881,[ 0.65       -0.03055556],,2018_Jun_25_1255,59.7587829975,sequenceLearningTask,001,117,
min1.png,min2.png,min3.png,min4.png,allBlank.png,"['num_7', 'num_4', 'num_1', 'num_0']",['num_1'],num_1,[3],'num_1',images/min3.png,"[(0.45, 0.79)]",,,,,0,7,7,7,4,3,19,2,,,,,"(-0.25, -0.04)",images/min2.png,8,,,0.0568803869246,1.32352807242,[ 0.675      -0.06388889],,2018_Jun_25_1255,59.7587829975,sequenceLearningTask,001,117,
min1.png,min2.png,min3.png,min4.png,allBlank.png,"['num_7', 'num_4', 'num_1', 'num_0']",['num_1'],num_1,[3],'num_1',images/min3.png,"[(0.45, 0.79)]",,,,,0,7,7,7,4,3,19,2,,,,,"(0.25, -0.04)",images/min3.png,8,,,0.0571006945393,0.700999507273,[-0.2984375  -0.03611111],,2018_Jun_25_1255,59.7587829975,sequenceLearningTask,001,117,
min1.png,min2.png,min3.png,min4.png,allBlank.png,"['num_7', 'num_4', 'num_1', 'num_0']",['num_1'],num_1,[3],'num_1',images/min3.png,"[(0.45, 0.79)]",,,,,0,7,7,7,4,3,19,2,,,,,"(0.75, -0.04)",images/min4.png,8,,,0.0591979244491,0.751469230163,[ 0.2203125  -0.14722222],,2018_Jun_25_1255,59.7587829975,sequenceLearningTask,001,117,
min1.png,min2.png,min3.png,min4.png,allBlank.png,"['num_7', 'num_4', 'num_1', 'num_0']",['num_1'],num_1,[3],'num_1',images/min3.png,"[(0.45, 0.79)]",,,,,0,8,8,8,4,3,19,2,,,,,"(-0.75, -0.04)",images/min1.png,9,,,0.0555909515533,0.569752381649,[ 0.6171875 -0.15     ],,2018_Jun_25_1255,59.7587829975,sequenceLearningTask,001,117,
min1.png,min2.png,min3.png,min4.png,allBlank.png,"['num_7', 'num_4', 'num_1', 'num_0']",['num_1'],num_1,[3],'num_1',images/min3.png,"[(0.45, 0.79)]",,,,,0,8,8,8,4,3,19,2,,,,,"(0.25, -0.04)",images/min3.png,9,,,0.0525870553683,0.891480249644,[-0.7453125  -0.09444444],,2018_Jun_25_1255,59.7587829975,sequenceLearningTask,001,117,
min1.png,min2.png,min3.png,min4.png,allBlank.png,"['num_7', 'num_4', 'num_1', 'num_0']",['num_1'],num_1,[3],'num_1',images/min3.png,"[(0.45, 0.79)]",,,,,0,8,8,8,4,3,19,2,,,,,"(-0.25, -0.04)",images/min2.png,9,,,0.0525173117931,0.751635383931,[ 0.2921875  -0.08611111],,2018_Jun_25_1255,59.7587829975,sequenceLearningTask,001,117,
min1.png,min2.png,min3.png,min4.png,allBlank.png,"['num_7', 'num_4', 'num_1', 'num_0']",['num_1'],num_1,[3],'num_1',images/min3.png,"[(0.45, 0.79)]",,,,,0,8,8,8,4,3,19,2,,,,,"(0.75, -0.04)",images/min4.png,9,,,0.0596898216754,1.08500345232,[-0.2578125  -0.06388889],,2018_Jun_25_1255,59.7587829975,sequenceLearningTask,001,117,
min1.png,min2.png,min3.png,min4.png,allBlank.png,"['num_7', 'num_4', 'num_1', 'num_0']",['num_1'],num_1,[3],'num_1',images/min3.png,"[(0.45, 0.79)]",,,,,0,8,8,8,4,3,19,2,,,,,"(0.75, -0.04)",images/min4.png,9,,,0.0582026428019,0.869567643269,[ 0.6921875  -0.06944444],,2018_Jun_25_1255,59.7587829975,sequenceLearningTask,001,117,
min1.png,min2.png,min3.png,min4.png,allBlank.png,"['num_7', 'num_4', 'num_1', 'num_0']",['num_1'],num_1,[3],'num_1',images/min3.png,"[(0.45, 0.79)]",,,,,0,8,8,8,4,3,19,2,,,,,"(-0.25, -0.04)",images/min2.png,9,,,0.0548853108194,0.954464428942,[ 0.7328125  -0.13611111],,2018_Jun_25_1255,59.7587829975,sequenceLearningTask,001,117,
min1.png,min2.png,min3.png,min4.png,allBlank.png,"['num_7', 'num_4', 'num_1', 'num_0']",['num_1'],num_1,[3],'num_1',images/min3.png,"[(0.45, 0.79)]",,,,,0,8,8,8,4,3,19,2,,,,,"(0.25, -0.04)",images/min3.png,9,,,0.0538810035505,0.901941373566,[-0.2140625  -0.19722222],,2018_Jun_25_1255,59.7587829975,sequenceLearningTask,001,117,
min1.png,min2.png,min3.png,min4.png,allBlank.png,"['num_7', 'num_4', 'num_1', 'num_0']",['num_1'],num_1,[3],'num_1',images/min3.png,"[(0.45, 0.79)]",,,,,0,8,8,8,4,3,19,2,,,,,"(0.75, -0.04)",images/min4.png,9,,,0.0649320759403,0.893927428115,[ 0.2421875  -0.11111111],,2018_Jun_25_1255,59.7587829975,sequenceLearningTask,001,117,
min1.png,min2.png,min3.png,min4.png,allBlank.png,"['num_7', 'num_4', 'num_1', 'num_0']",['num_1'],num_1,[3],'num_1',images/min3.png,"[(0.45, 0.79)]",,,,,0,9,9,9,4,3,19,2,,,,,"(-0.75, -0.04)",images/min1.png,10,,,0.0571499252692,0.611269492831,[ 0.6140625  -0.17777778],,2018_Jun_25_1255,59.7587829975,sequenceLearningTask,001,117,
min1.png,min2.png,min3.png,min4.png,allBlank.png,"['num_7', 'num_4', 'num_1', 'num_0']",['num_1'],num_1,[3],'num_1',images/min3.png,"[(0.45, 0.79)]",,,,,0,9,9,9,4,3,19,2,,,,,"(0.25, -0.04)",images/min3.png,10,,,0.0617415131419,1.92039141728,[-0.703125   -0.13888889],,2018_Jun_25_1255,59.7587829975,sequenceLearningTask,001,117,
min1.png,min2.png,min3.png,min4.png,allBlank.png,"['num_7', 'num_4', 'num_1', 'num_0']",['num_1'],num_1,[3],'num_1',images/min3.png,"[(0.45, 0.79)]",,,,,0,9,9,9,4,3,19,2,,,,,"(-0.25, -0.04)",images/min2.png,10,,,0.056541925529,1.30093649193,[ 0.1890625  -0.01388889],,2018_Jun_25_1255,59.7587829975,sequenceLearningTask,001,117,
min1.png,min2.png,min3.png,min4.png,allBlank.png,"['num_7', 'num_4', 'num_1', 'num_0']",['num_1'],num_1,[3],'num_1',images/min3.png,"[(0.45, 0.79)]",,,,,0,9,9,9,4,3,19,2,,,,,"(0.75, -0.04)",images/min4.png,10,,,0.0643298197829,3.31748704924,[-0.2765625  -0.12777778],,2018_Jun_25_1255,59.7587829975,sequenceLearningTask,001,117,
min1.png,min2.png,min3.png,min4.png,allBlank.png,"['num_7', 'num_4', 'num_1', 'num_0']",['num_1'],num_1,[3],'num_1',images/min3.png,"[(0.45, 0.79)]",,,,,0,9,9,9,4,3,19,2,,,,,"(0.75, -0.04)",images/min4.png,10,,,0.0520906453021,4.4467436116,[ 0.5828125  -0.08055556],,2018_Jun_25_1255,59.7587829975,sequenceLearningTask,001,117,
min1.png,min2.png,min3.png,min4.png,allBlank.png,"['num_7', 'num_4', 'num_1', 'num_0']",['num_1'],num_1,[3],'num_1',images/min3.png,"[(0.45, 0.79)]",,,,,0,9,9,9,4,3,19,2,,,,,"(-0.25, -0.04)",images/min2.png,10,,,0.0652114604309,0.645283017337,[ 0.7         0.07222222],,2018_Jun_25_1255,59.7587829975,sequenceLearningTask,001,117,
min1.png,min2.png,min3.png,min4.png,allBlank.png,"['num_7', 'num_4', 'num_1', 'num_0']",['num_1'],num_1,[3],'num_1',images/min3.png,"[(0.45, 0.79)]",,,,,0,9,9,9,4,3,19,2,,,,,"(0.25, -0.04)",images/min3.png,10,,,0.0579130018887,0.670587212051,[-0.2328125   0.00833333],,2018_Jun_25_1255,59.7587829975,sequenceLearningTask,001,117,
min1.png,min2.png,min3.png,min4.png,allBlank.png,"['num_7', 'num_4', 'num_1', 'num_0']",['num_1'],num_1,[3],'num_1',images/min3.png,"[(0.45, 0.79)]",,,,,0,9,9,9,4,3,19,2,,,,,"(0.75, -0.04)",images/min4.png,10,,,0.0574247969489,0.802168696537,[ 0.2671875  -0.12222222],,2018_Jun_25_1255,59.7587829975,sequenceLearningTask,001,117,
min1.png,min2.png,min3.png,min4.png,allBlank.png,"['num_7', 'num_4', 'num_1', 'num_0']",['num_1'],num_1,[3],'num_1',images/min3.png,"[(0.45, 0.79)]",,,,,0,9,9,9,4,3,19,2,0,-1,-1,0,,,,,,,,,,2018_Jun_25_1255,59.7587829975,sequenceLearningTask,001,117,
