pawPatrol1,pawPatrol2,pawPatrol3,pawPatrol4,blank,allowableKey,correctKey,correctKeyPressNum,posLoc,correctKeyPress,randomPaw,im_size,trials.thisRepN,trials.thisTrialN,trials.thisN,trials.thisIndex,trials_3.thisRepN,trials_3.thisTrialN,trials_3.thisN,trials_3.thisIndex,trials_2.thisRepN,trials_2.thisTrialN,trials_2.thisN,trials_2.thisIndex,trials_questions.thisRepN,trials_questions.thisTrialN,trials_questions.thisN,trials_questions.thisIndex,trials_test.thisRepN,trials_test.thisTrialN,trials_test.thisN,trials_test.thisIndex,trials_recogtest.thisRepN,trials_recogtest.thisTrialN,trials_recogtest.thisN,trials_recogtest.thisIndex,correctKey,repetitionNumber,stimulusPresent.t,trialCorrect,key_resp_9.keys,key_resp_9.corr,key_resp_9.rt,keyRespCorrect,questionsResponses,AnswerFinished.keys,AnswerFinished.rt,RecordAnswer.keys,recallResponse,recallResponseTime,date,frameRate,expName,session,participant,
min1.png,min2.png,min3.png,min4.png,allBlank.png,,['num_7'],,,,,,,,,,0,0,0,0,,,,,,,,,,,,,,,,,['num_7'],1,0.0579027691856,1,['num_7'],0,[0.3806449230760336],,,,,,,,2018_Jun_10_1212,60.0197972651,sequenceLearningTask,001,110,
min1.png,min2.png,min3.png,min4.png,allBlank.png,,['num_1'],,,,,,,,,,0,0,0,0,,,,,,,,,,,,,,,,,['num_1'],1,0.0611323078629,1,['num_1'],0,[1.1634892306756228],,,,,,,,2018_Jun_10_1212,60.0197972651,sequenceLearningTask,001,110,
min1.png,min2.png,min3.png,min4.png,allBlank.png,,['num_4'],,,,,,,,,,0,0,0,0,,,,,,,,,,,,,,,,,['num_4'],1,0.077141743619,1,['num_4'],0,[0.98271917947568],,,,,,,,2018_Jun_10_1212,60.0197972651,sequenceLearningTask,001,110,
min1.png,min2.png,min3.png,min4.png,allBlank.png,,['num_0'],,,,,,,,,,0,0,0,0,,,,,,,,,,,,,,,,,['num_0'],1,0.0609813334886,1,['num_0'],0,[0.6829760000109673],,,,,,,,2018_Jun_10_1212,60.0197972651,sequenceLearningTask,001,110,
min1.png,min2.png,min3.png,min4.png,allBlank.png,,['num_0'],,,,,,,,,,0,0,0,0,,,,,,,,,,,,,,,,,['num_0'],1,0.0547433844768,1,['num_0'],0,[1.12265928206034],,,,,,,,2018_Jun_10_1212,60.0197972651,sequenceLearningTask,001,110,
min1.png,min2.png,min3.png,min4.png,allBlank.png,,['num_4'],,,,,,,,,,0,0,0,0,,,,,,,,,,,,,,,,,['num_4'],1,0.0550244101323,1,['num_4'],0,[0.8225197948049754],,,,,,,,2018_Jun_10_1212,60.0197972651,sequenceLearningTask,001,110,
min1.png,min2.png,min3.png,min4.png,allBlank.png,,['num_1'],,,,,,,,,,0,0,0,0,,,,,,,,,,,,,,,,,['num_1'],1,0.0521419488359,1,['num_1'],0,[0.9259089231491089],,,,,,,,2018_Jun_10_1212,60.0197972651,sequenceLearningTask,001,110,
min1.png,min2.png,min3.png,min4.png,allBlank.png,,['num_0'],,,,,,,,,,0,0,0,0,,,,,,,,,,,,,,,,,['num_0'],1,0.0617669743951,1,['num_0'],0,[0.8805444103199989],,,,,,,,2018_Jun_10_1212,60.0197972651,sequenceLearningTask,001,110,
min1.png,min2.png,min3.png,min4.png,allBlank.png,,['num_7'],,,,,,,,,,0,1,1,1,,,,,,,,,,,,,,,,,['num_7'],2,0.0478523075581,1,['num_7'],0,[2.9283655383624136],,,,,,,,2018_Jun_10_1212,60.0197972651,sequenceLearningTask,001,110,
min1.png,min2.png,min3.png,min4.png,allBlank.png,,['num_1'],,,,,,,,,,0,1,1,1,,,,,,,,,,,,,,,,,['num_1'],2,0.0534457433969,0,"['num_7', 'num_4', 'num_1']",0,"[0.0004484101664274931, 0.32425764109939337, 0.9910998975392431]",,,,,,,,2018_Jun_10_1212,60.0197972651,sequenceLearningTask,001,110,
min1.png,min2.png,min3.png,min4.png,allBlank.png,,['num_4'],,,,,,,,,,0,1,1,1,,,,,,,,,,,,,,,,,['num_4'],2,0.0517193845008,0,"['num_7', 'num_4']",0,"[0.9264291282743216, 1.3422449231147766]",,,,,,,,2018_Jun_10_1212,60.0197972651,sequenceLearningTask,001,110,
min1.png,min2.png,min3.png,min4.png,allBlank.png,,['num_0'],,,,,,,,,,0,1,1,1,,,,,,,,,,,,,,,,,['num_0'],2,0.0632201025728,1,['num_0'],0,[0.7306006152648479],,,,,,,,2018_Jun_10_1212,60.0197972651,sequenceLearningTask,001,110,
min1.png,min2.png,min3.png,min4.png,allBlank.png,,['num_0'],,,,,,,,,,0,1,1,1,,,,,,,,,,,,,,,,,['num_0'],2,0.0538818461355,1,['num_0'],0,[0.8573255382943898],,,,,,,,2018_Jun_10_1212,60.0197972651,sequenceLearningTask,001,110,
min1.png,min2.png,min3.png,min4.png,allBlank.png,,['num_4'],,,,,,,,,,0,1,1,1,,,,,,,,,,,,,,,,,['num_4'],2,0.0525029741693,1,['num_4'],0,[1.2088746665976942],,,,,,,,2018_Jun_10_1212,60.0197972651,sequenceLearningTask,001,110,
min1.png,min2.png,min3.png,min4.png,allBlank.png,,['num_1'],,,,,,,,,,0,1,1,1,,,,,,,,,,,,,,,,,['num_1'],2,0.0335536410566,1,['num_1'],0,[0.9295774358324707],,,,,,,,2018_Jun_10_1212,60.0197972651,sequenceLearningTask,001,110,
min1.png,min2.png,min3.png,min4.png,allBlank.png,,['num_0'],,,,,,,,,,0,1,1,1,,,,,,,,,,,,,,,,,['num_0'],2,0.0561095385347,1,['num_0'],0,[0.6723446152172983],,,,,,,,2018_Jun_10_1212,60.0197972651,sequenceLearningTask,001,110,
min1.png,min2.png,min3.png,min4.png,allBlank.png,,['num_7'],,,,,,,,,,0,2,2,2,,,,,,,,,,,,,,,,,['num_7'],3,0.0605099487584,1,['num_7'],0,[0.9979130255524069],,,,,,,,2018_Jun_10_1212,60.0197972651,sequenceLearningTask,001,110,
min1.png,min2.png,min3.png,min4.png,allBlank.png,,['num_1'],,,,,,,,,,0,2,2,2,,,,,,,,,,,,,,,,,['num_1'],3,0.0534379486926,1,['num_1'],0,[0.774075897410512],,,,,,,,2018_Jun_10_1212,60.0197972651,sequenceLearningTask,001,110,
min1.png,min2.png,min3.png,min4.png,allBlank.png,,['num_4'],,,,,,,,,,0,2,2,2,,,,,,,,,,,,,,,,,['num_4'],3,0.0565915897023,0,"['num_4', 'num_1', 'num_4']",0,"[0.8543749745003879, 1.3705948719289154]",,,,,,,,2018_Jun_10_1212,60.0197972651,sequenceLearningTask,001,110,
min1.png,min2.png,min3.png,min4.png,allBlank.png,,['num_0'],,,,,,,,,,0,2,2,2,,,,,,,,,,,,,,,,,['num_0'],3,0.0593665642664,1,['num_0'],0,[0.5849505641963333],,,,,,,,2018_Jun_10_1212,60.0197972651,sequenceLearningTask,001,110,
min1.png,min2.png,min3.png,min4.png,allBlank.png,,['num_0'],,,,,,,,,,0,2,2,2,,,,,,,,,,,,,,,,,['num_0'],3,0.0568931282032,1,['num_0'],0,[0.6876008205581456],,,,,,,,2018_Jun_10_1212,60.0197972651,sequenceLearningTask,001,110,
min1.png,min2.png,min3.png,min4.png,allBlank.png,,['num_4'],,,,,,,,,,0,2,2,2,,,,,,,,,,,,,,,,,['num_4'],3,0.0361202049535,1,['num_4'],0,[1.026278974255547],,,,,,,,2018_Jun_10_1212,60.0197972651,sequenceLearningTask,001,110,
min1.png,min2.png,min3.png,min4.png,allBlank.png,,['num_1'],,,,,,,,,,0,2,2,2,,,,,,,,,,,,,,,,,['num_1'],3,0.054047589656,1,['num_1'],0,[0.6570802051573992],,,,,,,,2018_Jun_10_1212,60.0197972651,sequenceLearningTask,001,110,
min1.png,min2.png,min3.png,min4.png,allBlank.png,,['num_0'],,,,,,,,,,0,2,2,2,,,,,,,,,,,,,,,,,['num_0'],3,0.0530264615081,1,['num_0'],0,[0.49116143584251404],,,,,,,,2018_Jun_10_1212,60.0197972651,sequenceLearningTask,001,110,
min1.png,min2.png,min3.png,min4.png,allBlank.png,,['num_7'],,,,,,,,,,0,3,3,3,,,,,,,,,,,,,,,,,['num_7'],4,0.050121025648,1,['num_7'],0,[0.9262494358699769],,,,,,,,2018_Jun_10_1212,60.0197972651,sequenceLearningTask,001,110,
min1.png,min2.png,min3.png,min4.png,allBlank.png,,['num_1'],,,,,,,,,,0,3,3,3,,,,,,,,,,,,,,,,,['num_1'],4,0.0528160000686,1,['num_1'],0,[0.9251528205350041],,,,,,,,2018_Jun_10_1212,60.0197972651,sequenceLearningTask,001,110,
min1.png,min2.png,min3.png,min4.png,allBlank.png,,['num_4'],,,,,,,,,,0,3,3,3,,,,,,,,,,,,,,,,,['num_4'],4,0.0598256411031,1,['num_4'],0,[0.966839384753257],,,,,,,,2018_Jun_10_1212,60.0197972651,sequenceLearningTask,001,110,
min1.png,min2.png,min3.png,min4.png,allBlank.png,,['num_0'],,,,,,,,,,0,3,3,3,,,,,,,,,,,,,,,,,['num_0'],4,0.0507614358794,1,['num_0'],0,[0.6770990767981857],,,,,,,,2018_Jun_10_1212,60.0197972651,sequenceLearningTask,001,110,
min1.png,min2.png,min3.png,min4.png,allBlank.png,,['num_0'],,,,,,,,,,0,3,3,3,,,,,,,,,,,,,,,,,['num_0'],4,0.0476791795809,1,['num_0'],0,[0.679908923106268],,,,,,,,2018_Jun_10_1212,60.0197972651,sequenceLearningTask,001,110,
min1.png,min2.png,min3.png,min4.png,allBlank.png,,['num_4'],,,,,,,,,,0,3,3,3,,,,,,,,,,,,,,,,,['num_4'],4,0.056964102434,1,['num_4'],0,[1.2379524102434516],,,,,,,,2018_Jun_10_1212,60.0197972651,sequenceLearningTask,001,110,
min1.png,min2.png,min3.png,min4.png,allBlank.png,,['num_1'],,,,,,,,,,0,3,3,3,,,,,,,,,,,,,,,,,['num_1'],4,0.0620898460038,1,['num_1'],0,[1.3657944614533335],,,,,,,,2018_Jun_10_1212,60.0197972651,sequenceLearningTask,001,110,
min1.png,min2.png,min3.png,min4.png,allBlank.png,,['num_0'],,,,,,,,,,0,3,3,3,,,,,,,,,,,,,,,,,['num_0'],4,0.0544213331304,1,['num_0'],0,[0.6405571282375604],,,,,,,,2018_Jun_10_1212,60.0197972651,sequenceLearningTask,001,110,
min1.png,min2.png,min3.png,min4.png,allBlank.png,,['num_7'],,,,,,,,,,0,4,4,4,,,,,,,,,,,,,,,,,['num_7'],5,0.0514966154005,1,['num_7'],0,[0.7255577435716987],,,,,,,,2018_Jun_10_1212,60.0197972651,sequenceLearningTask,001,110,
min1.png,min2.png,min3.png,min4.png,allBlank.png,,['num_1'],,,,,,,,,,0,4,4,4,,,,,,,,,,,,,,,,,['num_1'],5,0.0629698461853,1,['num_1'],0,[0.7483934359624982],,,,,,,,2018_Jun_10_1212,60.0197972651,sequenceLearningTask,001,110,
min1.png,min2.png,min3.png,min4.png,allBlank.png,,['num_4'],,,,,,,,,,0,4,4,4,,,,,,,,,,,,,,,,,['num_4'],5,0.0543864613865,1,['num_4'],0,[0.8900525127537549],,,,,,,,2018_Jun_10_1212,60.0197972651,sequenceLearningTask,001,110,
min1.png,min2.png,min3.png,min4.png,allBlank.png,,['num_0'],,,,,,,,,,0,4,4,4,,,,,,,,,,,,,,,,,['num_0'],5,0.0598281025887,1,['num_0'],0,[0.7337813333142549],,,,,,,,2018_Jun_10_1212,60.0197972651,sequenceLearningTask,001,110,
min1.png,min2.png,min3.png,min4.png,allBlank.png,,['num_0'],,,,,,,,,,0,4,4,4,,,,,,,,,,,,,,,,,['num_0'],5,0.054724102607,1,['num_0'],0,[0.5566248204559088],,,,,,,,2018_Jun_10_1212,60.0197972651,sequenceLearningTask,001,110,
min1.png,min2.png,min3.png,min4.png,allBlank.png,,['num_4'],,,,,,,,,,0,4,4,4,,,,,,,,,,,,,,,,,['num_4'],5,0.0474342564121,0,"['num_7', 'num_4']",0,"[1.480013128137216, 2.0805842052213848]",,,,,,,,2018_Jun_10_1212,60.0197972651,sequenceLearningTask,001,110,
min1.png,min2.png,min3.png,min4.png,allBlank.png,,['num_1'],,,,,,,,,,0,4,4,4,,,,,,,,,,,,,,,,,['num_1'],5,0.0634769231547,1,['num_1'],0,[0.8471643077209592],,,,,,,,2018_Jun_10_1212,60.0197972651,sequenceLearningTask,001,110,
min1.png,min2.png,min3.png,min4.png,allBlank.png,,['num_0'],,,,,,,,,,0,4,4,4,,,,,,,,,,,,,,,,,['num_0'],5,0.0535044104327,1,['num_0'],0,[0.8919442051555961],,,,,,,,2018_Jun_10_1212,60.0197972651,sequenceLearningTask,001,110,
min1.png,min2.png,min3.png,min4.png,allBlank.png,,['num_7'],,,,,,,,,,0,5,5,5,,,,,,,,,,,,,,,,,['num_7'],6,0.0541665640194,1,['num_7'],0,[0.8715327179525048],,,,,,,,2018_Jun_10_1212,60.0197972651,sequenceLearningTask,001,110,
min1.png,min2.png,min3.png,min4.png,allBlank.png,,['num_1'],,,,,,,,,,0,5,5,5,,,,,,,,,,,,,,,,,['num_1'],6,0.0571105640847,1,['num_1'],0,[0.8043204101268202],,,,,,,,2018_Jun_10_1212,60.0197972651,sequenceLearningTask,001,110,
min1.png,min2.png,min3.png,min4.png,allBlank.png,,['num_4'],,,,,,,,,,0,5,5,5,,,,,,,,,,,,,,,,,['num_4'],6,0.0526613332331,1,['num_4'],0,[0.8928795896936208],,,,,,,,2018_Jun_10_1212,60.0197972651,sequenceLearningTask,001,110,
min1.png,min2.png,min3.png,min4.png,allBlank.png,,['num_0'],,,,,,,,,,0,5,5,5,,,,,,,,,,,,,,,,,['num_0'],6,0.0516209232155,1,['num_0'],0,[0.8092549743596464],,,,,,,,2018_Jun_10_1212,60.0197972651,sequenceLearningTask,001,110,
min1.png,min2.png,min3.png,min4.png,allBlank.png,,['num_0'],,,,,,,,,,0,5,5,5,,,,,,,,,,,,,,,,,['num_0'],6,0.0549296410754,1,['num_0'],0,[0.8553526152390987],,,,,,,,2018_Jun_10_1212,60.0197972651,sequenceLearningTask,001,110,
min1.png,min2.png,min3.png,min4.png,allBlank.png,,['num_4'],,,,,,,,,,0,5,5,5,,,,,,,,,,,,,,,,,['num_4'],6,0.0546387692448,1,['num_4'],0,[1.0903064615558833],,,,,,,,2018_Jun_10_1212,60.0197972651,sequenceLearningTask,001,110,
min1.png,min2.png,min3.png,min4.png,allBlank.png,,['num_1'],,,,,,,,,,0,5,5,5,,,,,,,,,,,,,,,,,['num_1'],6,0.0629608205054,1,['num_1'],0,[0.9147355898749083],,,,,,,,2018_Jun_10_1212,60.0197972651,sequenceLearningTask,001,110,
min1.png,min2.png,min3.png,min4.png,allBlank.png,,['num_0'],,,,,,,,,,0,5,5,5,,,,,,,,,,,,,,,,,['num_0'],6,0.0495409232099,1,['num_0'],0,[0.894786051241681],,,,,,,,2018_Jun_10_1212,60.0197972651,sequenceLearningTask,001,110,
min1.png,min2.png,min3.png,min4.png,allBlank.png,,['num_7'],,,,,,,,,,0,6,6,6,,,,,,,,,,,,,,,,,['num_7'],7,0.0519314871635,1,['num_7'],0,[0.9071437949314713],,,,,,,,2018_Jun_10_1212,60.0197972651,sequenceLearningTask,001,110,
min1.png,min2.png,min3.png,min4.png,allBlank.png,,['num_1'],,,,,,,,,,0,6,6,6,,,,,,,,,,,,,,,,,['num_1'],7,0.0561128205154,1,['num_1'],0,[0.9722818462178111],,,,,,,,2018_Jun_10_1212,60.0197972651,sequenceLearningTask,001,110,
min1.png,min2.png,min3.png,min4.png,allBlank.png,,['num_4'],,,,,,,,,,0,6,6,6,,,,,,,,,,,,,,,,,['num_4'],7,0.0560611283872,1,['num_4'],0,[0.8048627690877765],,,,,,,,2018_Jun_10_1212,60.0197972651,sequenceLearningTask,001,110,
min1.png,min2.png,min3.png,min4.png,allBlank.png,,['num_0'],,,,,,,,,,0,6,6,6,,,,,,,,,,,,,,,,,['num_0'],7,0.0642326152883,1,['num_0'],0,[0.6466806153766811],,,,,,,,2018_Jun_10_1212,60.0197972651,sequenceLearningTask,001,110,
min1.png,min2.png,min3.png,min4.png,allBlank.png,,['num_0'],,,,,,,,,,0,6,6,6,,,,,,,,,,,,,,,,,['num_0'],7,0.0560857437085,1,['num_0'],0,[0.6547786667943001],,,,,,,,2018_Jun_10_1212,60.0197972651,sequenceLearningTask,001,110,
min1.png,min2.png,min3.png,min4.png,allBlank.png,,['num_4'],,,,,,,,,,0,6,6,6,,,,,,,,,,,,,,,,,['num_4'],7,0.0504553846549,1,['num_4'],0,[1.7282974359113723],,,,,,,,2018_Jun_10_1212,60.0197972651,sequenceLearningTask,001,110,
min1.png,min2.png,min3.png,min4.png,allBlank.png,,['num_1'],,,,,,,,,,0,6,6,6,,,,,,,,,,,,,,,,,['num_1'],7,0.0535245130304,1,['num_1'],0,[0.6736369230784476],,,,,,,,2018_Jun_10_1212,60.0197972651,sequenceLearningTask,001,110,
min1.png,min2.png,min3.png,min4.png,allBlank.png,,['num_0'],,,,,,,,,,0,6,6,6,,,,,,,,,,,,,,,,,['num_0'],7,0.060855794698,1,['num_0'],0,[0.8651031793560833],,,,,,,,2018_Jun_10_1212,60.0197972651,sequenceLearningTask,001,110,
min1.png,min2.png,min3.png,min4.png,allBlank.png,,['num_7'],,,,,,,,,,0,7,7,7,,,,,,,,,,,,,,,,,['num_7'],8,0.0531232820358,1,['num_7'],0,[0.7728114870842546],,,,,,,,2018_Jun_10_1212,60.0197972651,sequenceLearningTask,001,110,
min1.png,min2.png,min3.png,min4.png,allBlank.png,,['num_1'],,,,,,,,,,0,7,7,7,,,,,,,,,,,,,,,,,['num_1'],8,0.0652016410604,1,['num_1'],0,[0.8461378461215645],,,,,,,,2018_Jun_10_1212,60.0197972651,sequenceLearningTask,001,110,
min1.png,min2.png,min3.png,min4.png,allBlank.png,,['num_4'],,,,,,,,,,0,7,7,7,,,,,,,,,,,,,,,,,['num_4'],8,0.0578707691748,1,['num_4'],0,[0.8038625640328974],,,,,,,,2018_Jun_10_1212,60.0197972651,sequenceLearningTask,001,110,
min1.png,min2.png,min3.png,min4.png,allBlank.png,,['num_0'],,,,,,,,,,0,7,7,7,,,,,,,,,,,,,,,,,['num_0'],8,0.0548463589512,1,['num_0'],0,[0.7899733334779739],,,,,,,,2018_Jun_10_1212,60.0197972651,sequenceLearningTask,001,110,
min1.png,min2.png,min3.png,min4.png,allBlank.png,,['num_0'],,,,,,,,,,0,7,7,7,,,,,,,,,,,,,,,,,['num_0'],8,0.0552291283384,1,['num_0'],0,[0.6713891280815005],,,,,,,,2018_Jun_10_1212,60.0197972651,sequenceLearningTask,001,110,
min1.png,min2.png,min3.png,min4.png,allBlank.png,,['num_4'],,,,,,,,,,0,7,7,7,,,,,,,,,,,,,,,,,['num_4'],8,0.0499470769428,1,['num_4'],0,[0.8289718974847347],,,,,,,,2018_Jun_10_1212,60.0197972651,sequenceLearningTask,001,110,
min1.png,min2.png,min3.png,min4.png,allBlank.png,,['num_1'],,,,,,,,,,0,7,7,7,,,,,,,,,,,,,,,,,['num_1'],8,0.0563331281301,1,['num_1'],0,[0.6372295382898301],,,,,,,,2018_Jun_10_1212,60.0197972651,sequenceLearningTask,001,110,
min1.png,min2.png,min3.png,min4.png,allBlank.png,,['num_0'],,,,,,,,,,0,7,7,7,,,,,,,,,,,,,,,,,['num_0'],8,0.0568135385402,1,['num_0'],0,[0.6705702564213425],,,,,,,,2018_Jun_10_1212,60.0197972651,sequenceLearningTask,001,110,
min1.png,min2.png,min3.png,min4.png,allBlank.png,,['num_7'],,,,,,,,,,0,8,8,8,,,,,,,,,,,,,,,,,['num_7'],9,0.0551417435054,1,['num_7'],0,[1.087522872025147],,,,,,,,2018_Jun_10_1212,60.0197972651,sequenceLearningTask,001,110,
min1.png,min2.png,min3.png,min4.png,allBlank.png,,['num_1'],,,,,,,,,,0,8,8,8,,,,,,,,,,,,,,,,,['num_1'],9,0.0549255385995,0,"['num_4', 'num_1']",0,"[1.806061128154397, 2.3230030769482255]",,,,,,,,2018_Jun_10_1212,60.0197972651,sequenceLearningTask,001,110,
min1.png,min2.png,min3.png,min4.png,allBlank.png,,['num_4'],,,,,,,,,,0,8,8,8,,,,,,,,,,,,,,,,,['num_4'],9,0.0526588717476,0,"['num_7', 'num_4']",0,"[0.958313025534153, 1.7083068718202412]",,,,,,,,2018_Jun_10_1212,60.0197972651,sequenceLearningTask,001,110,
min1.png,min2.png,min3.png,min4.png,allBlank.png,,['num_0'],,,,,,,,,,0,8,8,8,,,,,,,,,,,,,,,,,['num_0'],9,0.0541251283139,1,['num_0'],0,[0.7237665641587228],,,,,,,,2018_Jun_10_1212,60.0197972651,sequenceLearningTask,001,110,
min1.png,min2.png,min3.png,min4.png,allBlank.png,,['num_0'],,,,,,,,,,0,8,8,8,,,,,,,,,,,,,,,,,['num_0'],9,0.0550034870394,1,['num_0'],0,[1.0058358972892165],,,,,,,,2018_Jun_10_1212,60.0197972651,sequenceLearningTask,001,110,
min1.png,min2.png,min3.png,min4.png,allBlank.png,,['num_4'],,,,,,,,,,0,8,8,8,,,,,,,,,,,,,,,,,['num_4'],9,0.0538342564832,1,['num_4'],0,[2.0080516922753304],,,,,,,,2018_Jun_10_1212,60.0197972651,sequenceLearningTask,001,110,
min1.png,min2.png,min3.png,min4.png,allBlank.png,,['num_1'],,,,,,,,,,0,8,8,8,,,,,,,,,,,,,,,,,['num_1'],9,0.0508984616026,1,['num_1'],0,[0.9772443077526987],,,,,,,,2018_Jun_10_1212,60.0197972651,sequenceLearningTask,001,110,
min1.png,min2.png,min3.png,min4.png,allBlank.png,,['num_0'],,,,,,,,,,0,8,8,8,,,,,,,,,,,,,,,,,['num_0'],9,0.0495044102427,1,['num_0'],0,[0.6455056411214173],,,,,,,,2018_Jun_10_1212,60.0197972651,sequenceLearningTask,001,110,
min1.png,min2.png,min3.png,min4.png,allBlank.png,,['num_7'],,,,,,,,,,0,9,9,9,,,,,,,,,,,,,,,,,['num_7'],10,0.0569702563807,1,['num_7'],0,[0.8193665640428662],,,,,,,,2018_Jun_10_1212,60.0197972651,sequenceLearningTask,001,110,
min1.png,min2.png,min3.png,min4.png,allBlank.png,,['num_1'],,,,,,,,,,0,9,9,9,,,,,,,,,,,,,,,,,['num_1'],10,0.0668443075847,1,['num_1'],0,[2.776989128207788],,,,,,,,2018_Jun_10_1212,60.0197972651,sequenceLearningTask,001,110,
min1.png,min2.png,min3.png,min4.png,allBlank.png,,['num_4'],,,,,,,,,,0,9,9,9,,,,,,,,,,,,,,,,,['num_4'],10,0.0562658461276,1,['num_4'],0,[0.7218633845914155],,,,,,,,2018_Jun_10_1212,60.0197972651,sequenceLearningTask,001,110,
min1.png,min2.png,min3.png,min4.png,allBlank.png,,['num_0'],,,,,,,,,,0,9,9,9,,,,,,,,,,,,,,,,,['num_0'],10,0.0591630768031,1,['num_0'],0,[0.13458871794864535],,,,,,,,2018_Jun_10_1212,60.0197972651,sequenceLearningTask,001,110,
min1.png,min2.png,min3.png,min4.png,allBlank.png,,['num_0'],,,,,,,,,,0,9,9,9,,,,,,,,,,,,,,,,,['num_0'],10,0.0516681023873,1,['num_0'],0,[0.8100295383483171],,,,,,,,2018_Jun_10_1212,60.0197972651,sequenceLearningTask,001,110,
min1.png,min2.png,min3.png,min4.png,allBlank.png,,['num_4'],,,,,,,,,,0,9,9,9,,,,,,,,,,,,,,,,,['num_4'],10,0.0537427691743,0,"['num_7', 'num_4']",0,"[1.107787077082321, 1.8408258461859077]",,,,,,,,2018_Jun_10_1212,60.0197972651,sequenceLearningTask,001,110,
min1.png,min2.png,min3.png,min4.png,allBlank.png,,['num_1'],,,,,,,,,,0,9,9,9,,,,,,,,,,,,,,,,,['num_1'],10,0.0635401024483,1,['num_1'],0,[0.8637267691083252],,,,,,,,2018_Jun_10_1212,60.0197972651,sequenceLearningTask,001,110,
min1.png,min2.png,min3.png,min4.png,allBlank.png,,['num_0'],,,,,,,,,,0,9,9,9,,,,,,,,,,,,,,,,,['num_0'],10,0.0504742565099,1,['num_0'],0,[0.4783556922338903],,,,,,,,2018_Jun_10_1212,60.0197972651,sequenceLearningTask,001,110,
min1.png,min2.png,min3.png,min4.png,allBlank.png,,['num_7'],,,,,,,,,,0,0,0,0,,,,,,,,,,,,,,,,,['num_7'],1,0.0533046154305,0,"['num_0', 'num_7']",0,"[0.00040082051418721676, 1.0560278974007815]",,,,,,,,2018_Jun_10_1212,60.0197972651,sequenceLearningTask,001,110,
min1.png,min2.png,min3.png,min4.png,allBlank.png,,['num_1'],,,,,,,,,,0,0,0,0,,,,,,,,,,,,,,,,,['num_1'],1,0.0558654358611,1,['num_1'],0,[0.7052586667705327],,,,,,,,2018_Jun_10_1212,60.0197972651,sequenceLearningTask,001,110,
min1.png,min2.png,min3.png,min4.png,allBlank.png,,['num_4'],,,,,,,,,,0,0,0,0,,,,,,,,,,,,,,,,,['num_4'],1,0.0493374359794,1,['num_4'],0,[0.7946818461641669],,,,,,,,2018_Jun_10_1212,60.0197972651,sequenceLearningTask,001,110,
min1.png,min2.png,min3.png,min4.png,allBlank.png,,['num_0'],,,,,,,,,,0,0,0,0,,,,,,,,,,,,,,,,,['num_0'],1,0.0496205128729,1,['num_0'],0,[0.46143343579024076],,,,,,,,2018_Jun_10_1212,60.0197972651,sequenceLearningTask,001,110,
min1.png,min2.png,min3.png,min4.png,allBlank.png,,['num_0'],,,,,,,,,,0,0,0,0,,,,,,,,,,,,,,,,,['num_0'],1,0.053734153742,1,['num_0'],0,[0.523778461618349],,,,,,,,2018_Jun_10_1212,60.0197972651,sequenceLearningTask,001,110,
min1.png,min2.png,min3.png,min4.png,allBlank.png,,['num_4'],,,,,,,,,,0,0,0,0,,,,,,,,,,,,,,,,,['num_4'],1,0.0545657435432,1,['num_4'],0,[0.872823384590447],,,,,,,,2018_Jun_10_1212,60.0197972651,sequenceLearningTask,001,110,
min1.png,min2.png,min3.png,min4.png,allBlank.png,,['num_1'],,,,,,,,,,0,0,0,0,,,,,,,,,,,,,,,,,['num_1'],1,0.0341148716398,1,['num_1'],0,[0.4913325128145516],,,,,,,,2018_Jun_10_1212,60.0197972651,sequenceLearningTask,001,110,
min1.png,min2.png,min3.png,min4.png,allBlank.png,,['num_0'],,,,,,,,,,0,0,0,0,,,,,,,,,,,,,,,,,['num_0'],1,0.0544422564562,1,['num_0'],0,[0.5226490255445242],,,,,,,,2018_Jun_10_1212,60.0197972651,sequenceLearningTask,001,110,
min1.png,min2.png,min3.png,min4.png,allBlank.png,,['num_7'],,,,,,,,,,0,1,1,1,,,,,,,,,,,,,,,,,['num_7'],2,0.0631491281092,1,['num_7'],0,[0.645476512843743],,,,,,,,2018_Jun_10_1212,60.0197972651,sequenceLearningTask,001,110,
min1.png,min2.png,min3.png,min4.png,allBlank.png,,['num_1'],,,,,,,,,,0,1,1,1,,,,,,,,,,,,,,,,,['num_1'],2,0.0552705640439,0,"['num_4', 'num_1']",0,"[0.8219848205335438, 1.4565817436669022]",,,,,,,,2018_Jun_10_1212,60.0197972651,sequenceLearningTask,001,110,
min1.png,min2.png,min3.png,min4.png,allBlank.png,,['num_4'],,,,,,,,,,0,1,1,1,,,,,,,,,,,,,,,,,['num_4'],2,0.0655380513053,1,['num_4'],0,[0.8946687178686261],,,,,,,,2018_Jun_10_1212,60.0197972651,sequenceLearningTask,001,110,
min1.png,min2.png,min3.png,min4.png,allBlank.png,,['num_0'],,,,,,,,,,0,1,1,1,,,,,,,,,,,,,,,,,['num_0'],2,0.0551967178471,1,['num_0'],0,[0.5726157948374748],,,,,,,,2018_Jun_10_1212,60.0197972651,sequenceLearningTask,001,110,
min1.png,min2.png,min3.png,min4.png,allBlank.png,,['num_0'],,,,,,,,,,0,1,1,1,,,,,,,,,,,,,,,,,['num_0'],2,0.0492061539553,1,['num_0'],0,[0.7290871795266867],,,,,,,,2018_Jun_10_1212,60.0197972651,sequenceLearningTask,001,110,
min1.png,min2.png,min3.png,min4.png,allBlank.png,,['num_4'],,,,,,,,,,0,1,1,1,,,,,,,,,,,,,,,,,['num_4'],2,0.0586219488177,1,['num_4'],0,[0.9856939488090575],,,,,,,,2018_Jun_10_1212,60.0197972651,sequenceLearningTask,001,110,
min1.png,min2.png,min3.png,min4.png,allBlank.png,,['num_1'],,,,,,,,,,0,1,1,1,,,,,,,,,,,,,,,,,['num_1'],2,0.0506884101778,1,['num_1'],0,[1.0779286152683198],,,,,,,,2018_Jun_10_1212,60.0197972651,sequenceLearningTask,001,110,
min1.png,min2.png,min3.png,min4.png,allBlank.png,,['num_0'],,,,,,,,,,0,1,1,1,,,,,,,,,,,,,,,,,['num_0'],2,0.0562424615491,1,['num_0'],0,[0.6883725130464882],,,,,,,,2018_Jun_10_1212,60.0197972651,sequenceLearningTask,001,110,
min1.png,min2.png,min3.png,min4.png,allBlank.png,,['num_7'],,,,,,,,,,0,2,2,2,,,,,,,,,,,,,,,,,['num_7'],3,0.0550986668095,1,['num_7'],0,[1.0206289230845869],,,,,,,,2018_Jun_10_1212,60.0197972651,sequenceLearningTask,001,110,
min1.png,min2.png,min3.png,min4.png,allBlank.png,,['num_1'],,,,,,,,,,0,2,2,2,,,,,,,,,,,,,,,,,['num_1'],3,0.0555593846366,0,"['num_4', 'num_1']",0,"[0.6230264615733176, 1.0887983590364456]",,,,,,,,2018_Jun_10_1212,60.0197972651,sequenceLearningTask,001,110,
min1.png,min2.png,min3.png,min4.png,allBlank.png,,['num_4'],,,,,,,,,,0,2,2,2,,,,,,,,,,,,,,,,,['num_4'],3,0.0546194871422,1,['num_4'],0,[1.0570006154011935],,,,,,,,2018_Jun_10_1212,60.0197972651,sequenceLearningTask,001,110,
min1.png,min2.png,min3.png,min4.png,allBlank.png,,['num_0'],,,,,,,,,,0,2,2,2,,,,,,,,,,,,,,,,,['num_0'],3,0.0593464614358,1,['num_0'],0,[0.7841739486902952],,,,,,,,2018_Jun_10_1212,60.0197972651,sequenceLearningTask,001,110,
min1.png,min2.png,min3.png,min4.png,allBlank.png,,['num_0'],,,,,,,,,,0,2,2,2,,,,,,,,,,,,,,,,,['num_0'],3,0.0598596923519,1,['num_0'],0,[0.8170572309754789],,,,,,,,2018_Jun_10_1212,60.0197972651,sequenceLearningTask,001,110,
min1.png,min2.png,min3.png,min4.png,allBlank.png,,['num_4'],,,,,,,,,,0,2,2,2,,,,,,,,,,,,,,,,,['num_4'],3,0.0484283077531,1,['num_4'],0,[1.22990851290524],,,,,,,,2018_Jun_10_1212,60.0197972651,sequenceLearningTask,001,110,
min1.png,min2.png,min3.png,min4.png,allBlank.png,,['num_1'],,,,,,,,,,0,2,2,2,,,,,,,,,,,,,,,,,['num_1'],3,0.0538079999387,1,['num_1'],0,[0.8402555896900594],,,,,,,,2018_Jun_10_1212,60.0197972651,sequenceLearningTask,001,110,
min1.png,min2.png,min3.png,min4.png,allBlank.png,,['num_0'],,,,,,,,,,0,2,2,2,,,,,,,,,,,,,,,,,['num_0'],3,0.0581091281492,1,['num_0'],0,[0.3529624615330249],,,,,,,,2018_Jun_10_1212,60.0197972651,sequenceLearningTask,001,110,
min1.png,min2.png,min3.png,min4.png,allBlank.png,,['num_7'],,,,,,,,,,0,3,3,3,,,,,,,,,,,,,,,,,['num_7'],4,0.0530363076832,1,['num_7'],0,[1.0731675897259265],,,,,,,,2018_Jun_10_1212,60.0197972651,sequenceLearningTask,001,110,
min1.png,min2.png,min3.png,min4.png,allBlank.png,,['num_1'],,,,,,,,,,0,3,3,3,,,,,,,,,,,,,,,,,['num_1'],4,0.0489641025197,1,['num_1'],0,[0.8121842050459236],,,,,,,,2018_Jun_10_1212,60.0197972651,sequenceLearningTask,001,110,
min1.png,min2.png,min3.png,min4.png,allBlank.png,,['num_4'],,,,,,,,,,0,3,3,3,,,,,,,,,,,,,,,,,['num_4'],4,0.042592410231,1,['num_4'],0,[0.7517505642026663],,,,,,,,2018_Jun_10_1212,60.0197972651,sequenceLearningTask,001,110,
min1.png,min2.png,min3.png,min4.png,allBlank.png,,['num_0'],,,,,,,,,,0,3,3,3,,,,,,,,,,,,,,,,,['num_0'],4,0.0744192819111,0,"['num_0', 'num_0']",0,"[0.000920615391805768, 0.9817476922180504]",,,,,,,,2018_Jun_10_1212,60.0197972651,sequenceLearningTask,001,110,
min1.png,min2.png,min3.png,min4.png,allBlank.png,,['num_0'],,,,,,,,,,0,3,3,3,,,,,,,,,,,,,,,,,['num_0'],4,0.0234810255934,1,['num_0'],0,[0.7708381537813693],,,,,,,,2018_Jun_10_1212,60.0197972651,sequenceLearningTask,001,110,
min1.png,min2.png,min3.png,min4.png,allBlank.png,,['num_4'],,,,,,,,,,0,3,3,3,,,,,,,,,,,,,,,,,['num_4'],4,0.022502153879,1,['num_4'],0,[1.137611076934263],,,,,,,,2018_Jun_10_1212,60.0197972651,sequenceLearningTask,001,110,
min1.png,min2.png,min3.png,min4.png,allBlank.png,,['num_1'],,,,,,,,,,0,3,3,3,,,,,,,,,,,,,,,,,['num_1'],4,0.0245538461022,1,['num_1'],0,[0.7366157949436456],,,,,,,,2018_Jun_10_1212,60.0197972651,sequenceLearningTask,001,110,
min1.png,min2.png,min3.png,min4.png,allBlank.png,,['num_0'],,,,,,,,,,0,3,3,3,,,,,,,,,,,,,,,,,['num_0'],4,0.0275716923643,1,['num_0'],0,[0.7000480000860989],,,,,,,,2018_Jun_10_1212,60.0197972651,sequenceLearningTask,001,110,
min1.png,min2.png,min3.png,min4.png,allBlank.png,,['num_7'],,,,,,,,,,0,4,4,4,,,,,,,,,,,,,,,,,['num_7'],5,0.0274740513414,1,['num_7'],0,[0.8993481025099754],,,,,,,,2018_Jun_10_1212,60.0197972651,sequenceLearningTask,001,110,
min1.png,min2.png,min3.png,min4.png,allBlank.png,,['num_1'],,,,,,,,,,0,4,4,4,,,,,,,,,,,,,,,,,['num_1'],5,0.0250010257587,1,['num_1'],0,[1.0865349743980914],,,,,,,,2018_Jun_10_1212,60.0197972651,sequenceLearningTask,001,110,
min1.png,min2.png,min3.png,min4.png,allBlank.png,,['num_4'],,,,,,,,,,0,4,4,4,,,,,,,,,,,,,,,,,['num_4'],5,0.0208094359841,1,['num_4'],0,[0.9899987692479044],,,,,,,,2018_Jun_10_1212,60.0197972651,sequenceLearningTask,001,110,
min1.png,min2.png,min3.png,min4.png,allBlank.png,,['num_0'],,,,,,,,,,0,4,4,4,,,,,,,,,,,,,,,,,['num_0'],5,0.0251561026089,1,['num_0'],0,[0.6028020512312651],,,,,,,,2018_Jun_10_1212,60.0197972651,sequenceLearningTask,001,110,
min1.png,min2.png,min3.png,min4.png,allBlank.png,,['num_0'],,,,,,,,,,0,4,4,4,,,,,,,,,,,,,,,,,['num_0'],5,0.0209165127017,1,['num_0'],0,[1.0406215386465192],,,,,,,,2018_Jun_10_1212,60.0197972651,sequenceLearningTask,001,110,
min1.png,min2.png,min3.png,min4.png,allBlank.png,,['num_4'],,,,,,,,,,0,4,4,4,,,,,,,,,,,,,,,,,['num_4'],5,0.0305517949164,0,"['num_7', 'num_7', 'num_7', 'num_4']",0,"[0.9119269743096083, 2.0622080001048744, 2.679047384764999, 3.1787117950152606]",,,,,,,,2018_Jun_10_1212,60.0197972651,sequenceLearningTask,001,110,
min1.png,min2.png,min3.png,min4.png,allBlank.png,,['num_1'],,,,,,,,,,0,4,4,4,,,,,,,,,,,,,,,,,['num_1'],5,0.0501115899533,1,['num_1'],0,[0.8774441024288535],,,,,,,,2018_Jun_10_1212,60.0197972651,sequenceLearningTask,001,110,
min1.png,min2.png,min3.png,min4.png,allBlank.png,,['num_0'],,,,,,,,,,0,4,4,4,,,,,,,,,,,,,,,,,['num_0'],5,0.0540270770434,1,['num_0'],0,[0.5907064615748823],,,,,,,,2018_Jun_10_1212,60.0197972651,sequenceLearningTask,001,110,
min1.png,min2.png,min3.png,min4.png,allBlank.png,,['num_7'],,,,,,,,,,0,5,5,5,,,,,,,,,,,,,,,,,['num_7'],6,0.0522211282514,1,['num_7'],0,[0.8570629744790494],,,,,,,,2018_Jun_10_1212,60.0197972651,sequenceLearningTask,001,110,
min1.png,min2.png,min3.png,min4.png,allBlank.png,,['num_1'],,,,,,,,,,0,5,5,5,,,,,,,,,,,,,,,,,['num_1'],6,0.0520118975546,1,['num_1'],0,[1.807355897501111],,,,,,,,2018_Jun_10_1212,60.0197972651,sequenceLearningTask,001,110,
min1.png,min2.png,min3.png,min4.png,allBlank.png,,['num_4'],,,,,,,,,,0,5,5,5,,,,,,,,,,,,,,,,,['num_4'],6,0.0609932306688,1,['num_4'],0,[0.8337718974798918],,,,,,,,2018_Jun_10_1212,60.0197972651,sequenceLearningTask,001,110,
min1.png,min2.png,min3.png,min4.png,allBlank.png,,['num_0'],,,,,,,,,,0,5,5,5,,,,,,,,,,,,,,,,,['num_0'],6,0.0502781537361,1,['num_0'],0,[0.7114219488576055],,,,,,,,2018_Jun_10_1212,60.0197972651,sequenceLearningTask,001,110,
min1.png,min2.png,min3.png,min4.png,allBlank.png,,['num_0'],,,,,,,,,,0,5,5,5,,,,,,,,,,,,,,,,,['num_0'],6,0.0401074872352,1,['num_0'],0,[0.7875347691588104],,,,,,,,2018_Jun_10_1212,60.0197972651,sequenceLearningTask,001,110,
min1.png,min2.png,min3.png,min4.png,allBlank.png,,['num_4'],,,,,,,,,,0,5,5,5,,,,,,,,,,,,,,,,,['num_4'],6,0.0504402050283,1,['num_4'],0,[0.894178461516276],,,,,,,,2018_Jun_10_1212,60.0197972651,sequenceLearningTask,001,110,
min1.png,min2.png,min3.png,min4.png,allBlank.png,,['num_1'],,,,,,,,,,0,5,5,5,,,,,,,,,,,,,,,,,['num_1'],6,0.0517304614186,1,['num_1'],0,[0.6100389743223786],,,,,,,,2018_Jun_10_1212,60.0197972651,sequenceLearningTask,001,110,
min1.png,min2.png,min3.png,min4.png,allBlank.png,,['num_0'],,,,,,,,,,0,5,5,5,,,,,,,,,,,,,,,,,['num_0'],6,0.0622116923332,1,['num_0'],0,[0.6483790769707412],,,,,,,,2018_Jun_10_1212,60.0197972651,sequenceLearningTask,001,110,
min1.png,min2.png,min3.png,min4.png,allBlank.png,,['num_7'],,,,,,,,,,0,6,6,6,,,,,,,,,,,,,,,,,['num_7'],7,0.0539347692393,1,['num_7'],0,[0.8406621539033949],,,,,,,,2018_Jun_10_1212,60.0197972651,sequenceLearningTask,001,110,
min1.png,min2.png,min3.png,min4.png,allBlank.png,,['num_1'],,,,,,,,,,0,6,6,6,,,,,,,,,,,,,,,,,['num_1'],7,0.0638888205867,1,['num_1'],0,[0.812770051183179],,,,,,,,2018_Jun_10_1212,60.0197972651,sequenceLearningTask,001,110,
min1.png,min2.png,min3.png,min4.png,allBlank.png,,['num_4'],,,,,,,,,,0,6,6,6,,,,,,,,,,,,,,,,,['num_4'],7,0.0491733332165,1,['num_4'],0,[0.8284184616059065],,,,,,,,2018_Jun_10_1212,60.0197972651,sequenceLearningTask,001,110,
min1.png,min2.png,min3.png,min4.png,allBlank.png,,['num_0'],,,,,,,,,,0,6,6,6,,,,,,,,,,,,,,,,,['num_0'],7,0.0469554872252,1,['num_0'],0,[0.5644758974667639],,,,,,,,2018_Jun_10_1212,60.0197972651,sequenceLearningTask,001,110,
min1.png,min2.png,min3.png,min4.png,allBlank.png,,['num_0'],,,,,,,,,,0,6,6,6,,,,,,,,,,,,,,,,,['num_0'],7,0.0619052308612,1,['num_0'],0,[0.6312758976127952],,,,,,,,2018_Jun_10_1212,60.0197972651,sequenceLearningTask,001,110,
min1.png,min2.png,min3.png,min4.png,allBlank.png,,['num_4'],,,,,,,,,,0,6,6,6,,,,,,,,,,,,,,,,,['num_4'],7,0.0524685129058,1,['num_4'],0,[0.9422896408941597],,,,,,,,2018_Jun_10_1212,60.0197972651,sequenceLearningTask,001,110,
min1.png,min2.png,min3.png,min4.png,allBlank.png,,['num_1'],,,,,,,,,,0,6,6,6,,,,,,,,,,,,,,,,,['num_1'],7,0.0551253333688,1,['num_1'],0,[0.5390313845127821],,,,,,,,2018_Jun_10_1212,60.0197972651,sequenceLearningTask,001,110,
min1.png,min2.png,min3.png,min4.png,allBlank.png,,['num_0'],,,,,,,,,,0,6,6,6,,,,,,,,,,,,,,,,,['num_0'],7,0.0550736410078,1,['num_0'],0,[0.4715491281822324],,,,,,,,2018_Jun_10_1212,60.0197972651,sequenceLearningTask,001,110,
min1.png,min2.png,min3.png,min4.png,allBlank.png,,['num_7'],,,,,,,,,,0,7,7,7,,,,,,,,,,,,,,,,,['num_7'],8,0.0475864615291,1,['num_7'],0,[0.6955466666258872],,,,,,,,2018_Jun_10_1212,60.0197972651,sequenceLearningTask,001,110,
min1.png,min2.png,min3.png,min4.png,allBlank.png,,['num_1'],,,,,,,,,,0,7,7,7,,,,,,,,,,,,,,,,,['num_1'],8,0.0667630769312,1,['num_1'],0,[1.060779077000916],,,,,,,,2018_Jun_10_1212,60.0197972651,sequenceLearningTask,001,110,
min1.png,min2.png,min3.png,min4.png,allBlank.png,,['num_4'],,,,,,,,,,0,7,7,7,,,,,,,,,,,,,,,,,['num_4'],8,0.0532923077699,1,['num_4'],0,[0.9587573332246393],,,,,,,,2018_Jun_10_1212,60.0197972651,sequenceLearningTask,001,110,
min1.png,min2.png,min3.png,min4.png,allBlank.png,,['num_0'],,,,,,,,,,0,7,7,7,,,,,,,,,,,,,,,,,['num_0'],8,0.0583798973821,1,['num_0'],0,[0.45232738461345434],,,,,,,,2018_Jun_10_1212,60.0197972651,sequenceLearningTask,001,110,
min1.png,min2.png,min3.png,min4.png,allBlank.png,,['num_0'],,,,,,,,,,0,7,7,7,,,,,,,,,,,,,,,,,['num_0'],8,0.058444717899,1,['num_0'],0,[0.5687618462834507],,,,,,,,2018_Jun_10_1212,60.0197972651,sequenceLearningTask,001,110,
min1.png,min2.png,min3.png,min4.png,allBlank.png,,['num_4'],,,,,,,,,,0,7,7,7,,,,,,,,,,,,,,,,,['num_4'],8,0.0564980513882,0,"['num_7', 'num_7', 'num_4', 'num_4']",0,"[1.9547983589582145, 2.421890461584553, 3.137786256382242]",,,,,,,,2018_Jun_10_1212,60.0197972651,sequenceLearningTask,001,110,
min1.png,min2.png,min3.png,min4.png,allBlank.png,,['num_1'],,,,,,,,,,0,7,7,7,,,,,,,,,,,,,,,,,['num_1'],8,0.050345025491,0,"['num_4', 'num_1']",0,"[0.0003064617048949003, 0.8604315896518528]",,,,,,,,2018_Jun_10_1212,60.0197972651,sequenceLearningTask,001,110,
min1.png,min2.png,min3.png,min4.png,allBlank.png,,['num_0'],,,,,,,,,,0,7,7,7,,,,,,,,,,,,,,,,,['num_0'],8,0.0620849230327,1,['num_0'],0,[0.49899979471229017],,,,,,,,2018_Jun_10_1212,60.0197972651,sequenceLearningTask,001,110,
min1.png,min2.png,min3.png,min4.png,allBlank.png,,['num_7'],,,,,,,,,,0,8,8,8,,,,,,,,,,,,,,,,,['num_7'],9,0.0537944615353,1,['num_7'],0,[1.0895023588091135],,,,,,,,2018_Jun_10_1212,60.0197972651,sequenceLearningTask,001,110,
min1.png,min2.png,min3.png,min4.png,allBlank.png,,['num_1'],,,,,,,,,,0,8,8,8,,,,,,,,,,,,,,,,,['num_1'],9,0.0540914873127,1,['num_1'],0,[0.9078527179080993],,,,,,,,2018_Jun_10_1212,60.0197972651,sequenceLearningTask,001,110,
min1.png,min2.png,min3.png,min4.png,allBlank.png,,['num_4'],,,,,,,,,,0,8,8,8,,,,,,,,,,,,,,,,,['num_4'],9,0.0522322051693,1,['num_4'],0,[0.9258978459984064],,,,,,,,2018_Jun_10_1212,60.0197972651,sequenceLearningTask,001,110,
min1.png,min2.png,min3.png,min4.png,allBlank.png,,['num_0'],,,,,,,,,,0,8,8,8,,,,,,,,,,,,,,,,,['num_0'],9,0.0610141539946,0,"['num_0', 'num_0']",0,"[0.0006326152943074703, 0.8161727180704474]",,,,,,,,2018_Jun_10_1212,60.0197972651,sequenceLearningTask,001,110,
min1.png,min2.png,min3.png,min4.png,allBlank.png,,['num_0'],,,,,,,,,,0,8,8,8,,,,,,,,,,,,,,,,,['num_0'],9,0.048072205158,1,['num_0'],0,[0.9961046155076474],,,,,,,,2018_Jun_10_1212,60.0197972651,sequenceLearningTask,001,110,
min1.png,min2.png,min3.png,min4.png,allBlank.png,,['num_4'],,,,,,,,,,0,8,8,8,,,,,,,,,,,,,,,,,['num_4'],9,0.0522162050474,0,"['num_7', 'num_4']",0,"[0.6067774358671159, 1.19222523085773]",,,,,,,,2018_Jun_10_1212,60.0197972651,sequenceLearningTask,001,110,
min1.png,min2.png,min3.png,min4.png,allBlank.png,,['num_1'],,,,,,,,,,0,8,8,8,,,,,,,,,,,,,,,,,['num_1'],9,0.0424213334918,1,['num_1'],0,[0.7713591796346009],,,,,,,,2018_Jun_10_1212,60.0197972651,sequenceLearningTask,001,110,
min1.png,min2.png,min3.png,min4.png,allBlank.png,,['num_0'],,,,,,,,,,0,8,8,8,,,,,,,,,,,,,,,,,['num_0'],9,0.0529924102593,1,['num_0'],0,[0.47461128211580217],,,,,,,,2018_Jun_10_1212,60.0197972651,sequenceLearningTask,001,110,
min1.png,min2.png,min3.png,min4.png,allBlank.png,,['num_7'],,,,,,,,,,0,9,9,9,,,,,,,,,,,,,,,,,['num_7'],10,0.0577476923354,1,['num_7'],0,[0.8189300512894988],,,,,,,,2018_Jun_10_1212,60.0197972651,sequenceLearningTask,001,110,
min1.png,min2.png,min3.png,min4.png,allBlank.png,,['num_1'],,,,,,,,,,0,9,9,9,,,,,,,,,,,,,,,,,['num_1'],10,0.0547901538666,1,['num_1'],0,[0.8563003076706082],,,,,,,,2018_Jun_10_1212,60.0197972651,sequenceLearningTask,001,110,
min1.png,min2.png,min3.png,min4.png,allBlank.png,,['num_4'],,,,,,,,,,0,9,9,9,,,,,,,,,,,,,,,,,['num_4'],10,0.0561542564537,1,['num_4'],0,[0.5548902563750744],,,,,,,,2018_Jun_10_1212,60.0197972651,sequenceLearningTask,001,110,
min1.png,min2.png,min3.png,min4.png,allBlank.png,,['num_0'],,,,,,,,,,0,9,9,9,,,,,,,,,,,,,,,,,['num_0'],10,0.0546490256675,1,['num_0'],0,[0.2560824614483863],,,,,,,,2018_Jun_10_1212,60.0197972651,sequenceLearningTask,001,110,
min1.png,min2.png,min3.png,min4.png,allBlank.png,,['num_0'],,,,,,,,,,0,9,9,9,,,,,,,,,,,,,,,,,['num_0'],10,0.0532857435755,1,['num_0'],0,[1.0742322050500661],,,,,,,,2018_Jun_10_1212,60.0197972651,sequenceLearningTask,001,110,
min1.png,min2.png,min3.png,min4.png,allBlank.png,,['num_4'],,,,,,,,,,0,9,9,9,,,,,,,,,,,,,,,,,['num_4'],10,0.0546510769054,1,['num_4'],0,[0.8227372306864709],,,,,,,,2018_Jun_10_1212,60.0197972651,sequenceLearningTask,001,110,
min1.png,min2.png,min3.png,min4.png,allBlank.png,,['num_1'],,,,,,,,,,0,9,9,9,,,,,,,,,,,,,,,,,['num_1'],10,0.0478219487704,1,['num_1'],0,[0.6138157949317247],,,,,,,,2018_Jun_10_1212,60.0197972651,sequenceLearningTask,001,110,
min1.png,min2.png,min3.png,min4.png,allBlank.png,,['num_0'],,,,,,,,,,0,9,9,9,,,,,,,,,,,,,,,,,['num_0'],10,0.0565259486903,1,['num_0'],0,[0.4385919999331236],,,,,,,,2018_Jun_10_1212,60.0197972651,sequenceLearningTask,001,110,
min1.png,min2.png,min3.png,min4.png,images/allBlank.png,"['num_7', 'num_4', 'num_1', 'num_0']",['num_7'],num_7,[1],'num_7',images/min1.png,"[(0.45, 0.79)]",,,,,0,9,9,9,0,0,0,0,,,,,,,,,,,,,['num_7'],,0.0593710769899,1,['num_7'],0,[0.7065431794617325],1,,,,,,,2018_Jun_10_1212,60.0197972651,sequenceLearningTask,001,110,
min1.png,min2.png,min3.png,min4.png,images/allBlank.png,"['num_7', 'num_4', 'num_1', 'num_0']",['num_4'],num_4,[2],'num_4',images/min2.png,"[(0.45, 0.79)]",,,,,0,9,9,9,0,1,1,1,,,,,,,,,,,,,['num_4'],,0.0583204103168,1,['num_4'],0,[0.7337374361231923],1,,,,,,,2018_Jun_10_1212,60.0197972651,sequenceLearningTask,001,110,
min1.png,min2.png,min3.png,min4.png,images/allBlank.png,"['num_7', 'num_4', 'num_1', 'num_0']",['num_1'],num_1,[3],'num_1',images/min3.png,"[(0.45, 0.79)]",,,,,0,9,9,9,0,2,2,2,,,,,,,,,,,,,['num_1'],,0.0476644102018,1,['num_1'],0,[0.6128135384060442],1,,,,,,,2018_Jun_10_1212,60.0197972651,sequenceLearningTask,001,110,
min1.png,min2.png,min3.png,min4.png,images/allBlank.png,"['num_7', 'num_4', 'num_1', 'num_0']",['num_0'],num_0,[4],'num_0',images/min4.png,"[(0.45, 0.79)]",,,,,0,9,9,9,0,3,3,3,,,,,,,,,,,,,['num_0'],,0.049664410064,1,['num_0'],0,[0.6591331281233579],1,,,,,,,2018_Jun_10_1212,60.0197972651,sequenceLearningTask,001,110,
min1.png,min2.png,min3.png,min4.png,images/allBlank.png,"['num_7', 'num_4', 'num_1', 'num_0']",['num_1'],num_1,[3],'num_1',images/min3.png,"[(0.45, 0.79)]",,,,,0,9,9,9,1,0,4,2,,,,,,,,,,,,,['num_1'],,0.0475351794157,1,['num_1'],0,[0.9286974358838052],1,,,,,,,2018_Jun_10_1212,60.0197972651,sequenceLearningTask,001,110,
min1.png,min2.png,min3.png,min4.png,images/allBlank.png,"['num_7', 'num_4', 'num_1', 'num_0']",['num_0'],num_0,[4],'num_0',images/min4.png,"[(0.45, 0.79)]",,,,,0,9,9,9,1,1,5,3,,,,,,,,,,,,,['num_0'],,0.0564143590163,1,['num_0'],0,[0.6194219489116222],1,,,,,,,2018_Jun_10_1212,60.0197972651,sequenceLearningTask,001,110,
min1.png,min2.png,min3.png,min4.png,images/allBlank.png,"['num_7', 'num_4', 'num_1', 'num_0']",['num_7'],num_7,[1],'num_7',images/min1.png,"[(0.45, 0.79)]",,,,,0,9,9,9,1,2,6,0,,,,,,,,,,,,,['num_7'],,0.0639298462775,1,['num_7'],0,[1.0119208204559982],1,,,,,,,2018_Jun_10_1212,60.0197972651,sequenceLearningTask,001,110,
min1.png,min2.png,min3.png,min4.png,images/allBlank.png,"['num_7', 'num_4', 'num_1', 'num_0']",['num_4'],num_4,[2],'num_4',images/min2.png,"[(0.45, 0.79)]",,,,,0,9,9,9,1,3,7,1,,,,,,,,,,,,,['num_4'],,0.053645538399,1,['num_4'],0,[0.6046379487961531],1,,,,,,,2018_Jun_10_1212,60.0197972651,sequenceLearningTask,001,110,
min1.png,min2.png,min3.png,min4.png,images/allBlank.png,"['num_7', 'num_4', 'num_1', 'num_0']",['num_4'],num_4,[2],'num_4',images/min2.png,"[(0.45, 0.79)]",,,,,0,9,9,9,2,0,8,1,,,,,,,,,,,,,['num_4'],,0.0609645128716,1,['num_4'],0,[1.0310818462166935],1,,,,,,,2018_Jun_10_1212,60.0197972651,sequenceLearningTask,001,110,
min1.png,min2.png,min3.png,min4.png,images/allBlank.png,"['num_7', 'num_4', 'num_1', 'num_0']",['num_1'],num_1,[3],'num_1',images/min3.png,"[(0.45, 0.79)]",,,,,0,9,9,9,2,1,9,2,,,,,,,,,,,,,['num_1'],,0.0553870769218,1,['num_1'],0,[1.4364090256858617],1,,,,,,,2018_Jun_10_1212,60.0197972651,sequenceLearningTask,001,110,
min1.png,min2.png,min3.png,min4.png,images/allBlank.png,"['num_7', 'num_4', 'num_1', 'num_0']",['num_0'],num_0,[4],'num_0',images/min4.png,"[(0.45, 0.79)]",,,,,0,9,9,9,2,2,10,3,,,,,,,,,,,,,['num_0'],,0.052005743375,1,['num_0'],0,[0.5566059488337487],1,,,,,,,2018_Jun_10_1212,60.0197972651,sequenceLearningTask,001,110,
min1.png,min2.png,min3.png,min4.png,images/allBlank.png,"['num_7', 'num_4', 'num_1', 'num_0']",['num_7'],num_7,[1],'num_7',images/min1.png,"[(0.45, 0.79)]",,,,,0,9,9,9,2,3,11,0,,,,,,,,,,,,,['num_7'],,0.0514465640299,1,['num_7'],0,[1.9910855384077877],1,,,,,,,2018_Jun_10_1212,60.0197972651,sequenceLearningTask,001,110,
min1.png,min2.png,min3.png,min4.png,images/allBlank.png,"['num_7', 'num_4', 'num_1', 'num_0']",['num_7'],num_7,[1],'num_7',images/min1.png,"[(0.45, 0.79)]",,,,,0,9,9,9,3,0,12,0,,,,,,,,,,,,,['num_7'],,0.050743795,1,['num_7'],0,[0.9058379486668855],1,,,,,,,2018_Jun_10_1212,60.0197972651,sequenceLearningTask,001,110,
min1.png,min2.png,min3.png,min4.png,images/allBlank.png,"['num_7', 'num_4', 'num_1', 'num_0']",['num_1'],num_1,[3],'num_1',images/min3.png,"[(0.45, 0.79)]",,,,,0,9,9,9,3,1,13,2,,,,,,,,,,,,,['num_1'],,0.0542613333091,0,"['num_4', 'num_1']",0,"[0.5051105639431626, 1.05549989733845]",0,,,,,,,2018_Jun_10_1212,60.0197972651,sequenceLearningTask,001,110,
min1.png,min2.png,min3.png,min4.png,images/allBlank.png,"['num_7', 'num_4', 'num_1', 'num_0']",['num_0'],num_0,[4],'num_0',images/min4.png,"[(0.45, 0.79)]",,,,,0,9,9,9,3,2,14,3,,,,,,,,,,,,,['num_0'],,0.0549718975089,1,['num_0'],0,[1.3380836923606694],1,,,,,,,2018_Jun_10_1212,60.0197972651,sequenceLearningTask,001,110,
min1.png,min2.png,min3.png,min4.png,images/allBlank.png,"['num_7', 'num_4', 'num_1', 'num_0']",['num_4'],num_4,[2],'num_4',images/min2.png,"[(0.45, 0.79)]",,,,,0,9,9,9,3,3,15,1,,,,,,,,,,,,,['num_4'],,0.0556898461655,1,['num_4'],0,[1.7707216411363333],1,,,,,,,2018_Jun_10_1212,60.0197972651,sequenceLearningTask,001,110,
min1.png,min2.png,min3.png,min4.png,images/allBlank.png,"['num_7', 'num_4', 'num_1', 'num_0']",['num_7'],num_7,[1],'num_7',images/min1.png,"[(0.45, 0.79)]",,,,,0,9,9,9,4,0,16,0,,,,,,,,,,,,,['num_7'],,0.0577452308498,1,['num_7'],0,[1.6498240001965314],1,,,,,,,2018_Jun_10_1212,60.0197972651,sequenceLearningTask,001,110,
min1.png,min2.png,min3.png,min4.png,images/allBlank.png,"['num_7', 'num_4', 'num_1', 'num_0']",['num_4'],num_4,[2],'num_4',images/min2.png,"[(0.45, 0.79)]",,,,,0,9,9,9,4,1,17,1,,,,,,,,,,,,,['num_4'],,0.0531991794705,0,"['num_7', 'num_4']",0,"[1.139159384649247, 1.1721349745057523]",0,,,,,,,2018_Jun_10_1212,60.0197972651,sequenceLearningTask,001,110,
min1.png,min2.png,min3.png,min4.png,images/allBlank.png,"['num_7', 'num_4', 'num_1', 'num_0']",['num_1'],num_1,[3],'num_1',images/min3.png,"[(0.45, 0.79)]",,,,,0,9,9,9,4,2,18,2,,,,,,,,,,,,,['num_1'],,0.0563466665335,1,['num_1'],0,[1.2880213332828134],1,,,,,,,2018_Jun_10_1212,60.0197972651,sequenceLearningTask,001,110,
min1.png,min2.png,min3.png,min4.png,images/allBlank.png,"['num_7', 'num_4', 'num_1', 'num_0']",['num_0'],num_0,[4],'num_0',images/min4.png,"[(0.45, 0.79)]",,,,,0,9,9,9,4,3,19,3,,,,,,,,,,,,,['num_0'],,0.0534642052371,1,['num_0'],0,[0.5372430770657957],1,,,,,,,2018_Jun_10_1212,60.0197972651,sequenceLearningTask,001,110,
min1.png,min2.png,min3.png,min4.png,images/allBlank.png,"['num_7', 'num_4', 'num_1', 'num_0']",['num_4'],num_4,[2],'num_4',images/min2.png,"[(0.45, 0.79)]",,,,,0,9,9,9,5,0,20,1,,,,,,,,,,,,,['num_4'],,0.0660262564197,1,['num_4'],0,[1.5905103590339422],1,,,,,,,2018_Jun_10_1212,60.0197972651,sequenceLearningTask,001,110,
min1.png,min2.png,min3.png,min4.png,images/allBlank.png,"['num_7', 'num_4', 'num_1', 'num_0']",['num_1'],num_1,[3],'num_1',images/min3.png,"[(0.45, 0.79)]",,,,,0,9,9,9,5,1,21,2,,,,,,,,,,,,,['num_1'],,0.0502588718664,1,['num_1'],0,[1.0415019486099482],1,,,,,,,2018_Jun_10_1212,60.0197972651,sequenceLearningTask,001,110,
min1.png,min2.png,min3.png,min4.png,images/allBlank.png,"['num_7', 'num_4', 'num_1', 'num_0']",['num_0'],num_0,[4],'num_0',images/min4.png,"[(0.45, 0.79)]",,,,,0,9,9,9,5,2,22,3,,,,,,,,,,,,,['num_0'],,0.0543429742102,1,['num_0'],0,[0.5216036923229694],1,,,,,,,2018_Jun_10_1212,60.0197972651,sequenceLearningTask,001,110,
min1.png,min2.png,min3.png,min4.png,images/allBlank.png,"['num_7', 'num_4', 'num_1', 'num_0']",['num_7'],num_7,[1],'num_7',images/min1.png,"[(0.45, 0.79)]",,,,,0,9,9,9,5,3,23,0,,,,,,,,,,,,,['num_7'],,0.0564816410188,1,['num_7'],0,[0.8506149742752314],1,,,,,,,2018_Jun_10_1212,60.0197972651,sequenceLearningTask,001,110,
min1.png,min2.png,min3.png,min4.png,images/allBlank.png,"['num_7', 'num_4', 'num_1', 'num_0']",['num_0'],num_0,[4],'num_0',images/min4.png,"[(0.45, 0.79)]",,,,,0,9,9,9,6,0,24,3,,,,,,,,,,,,,['num_0'],,0.0576779488474,1,['num_0'],0,[1.5848016410600394],1,,,,,,,2018_Jun_10_1212,60.0197972651,sequenceLearningTask,001,110,
min1.png,min2.png,min3.png,min4.png,images/allBlank.png,"['num_7', 'num_4', 'num_1', 'num_0']",['num_1'],num_1,[3],'num_1',images/min3.png,"[(0.45, 0.79)]",,,,,0,9,9,9,6,1,25,2,,,,,,,,,,,,,['num_1'],,0.0557772307657,0,"['num_0', 'num_1']",0,"[0.0005874871276319027, 1.0698178461752832]",0,,,,,,,2018_Jun_10_1212,60.0197972651,sequenceLearningTask,001,110,
min1.png,min2.png,min3.png,min4.png,images/allBlank.png,"['num_7', 'num_4', 'num_1', 'num_0']",['num_7'],num_7,[1],'num_7',images/min1.png,"[(0.45, 0.79)]",,,,,0,9,9,9,6,2,26,0,,,,,,,,,,,,,['num_7'],,0.0538814358879,1,['num_7'],0,[2.4385337436106056],1,,,,,,,2018_Jun_10_1212,60.0197972651,sequenceLearningTask,001,110,
min1.png,min2.png,min3.png,min4.png,images/allBlank.png,"['num_7', 'num_4', 'num_1', 'num_0']",['num_4'],num_4,[2],'num_4',images/min2.png,"[(0.45, 0.79)]",,,,,0,9,9,9,6,3,27,1,,,,,,,,,,,,,['num_4'],,0.0533403076697,1,['num_4'],0,[0.655307897599414],1,,,,,,,2018_Jun_10_1212,60.0197972651,sequenceLearningTask,001,110,
min1.png,min2.png,min3.png,min4.png,images/allBlank.png,"['num_7', 'num_4', 'num_1', 'num_0']",['num_4'],num_4,[2],'num_4',images/min2.png,"[(0.45, 0.79)]",,,,,0,9,9,9,7,0,28,1,,,,,,,,,,,,,['num_4'],,0.0533694357146,1,['num_4'],0,[0.8898112820461392],1,,,,,,,2018_Jun_10_1212,60.0197972651,sequenceLearningTask,001,110,
min1.png,min2.png,min3.png,min4.png,images/allBlank.png,"['num_7', 'num_4', 'num_1', 'num_0']",['num_0'],num_0,[4],'num_0',images/min4.png,"[(0.45, 0.79)]",,,,,0,9,9,9,7,1,29,3,,,,,,,,,,,,,['num_0'],,0.0502949743532,1,['num_0'],0,[0.7414026667829603],1,,,,,,,2018_Jun_10_1212,60.0197972651,sequenceLearningTask,001,110,
min1.png,min2.png,min3.png,min4.png,images/allBlank.png,"['num_7', 'num_4', 'num_1', 'num_0']",['num_7'],num_7,[1],'num_7',images/min1.png,"[(0.45, 0.79)]",,,,,0,9,9,9,7,2,30,0,,,,,,,,,,,,,['num_7'],,0.0585854358505,1,['num_7'],0,[1.0170014358591288],1,,,,,,,2018_Jun_10_1212,60.0197972651,sequenceLearningTask,001,110,
min1.png,min2.png,min3.png,min4.png,images/allBlank.png,"['num_7', 'num_4', 'num_1', 'num_0']",['num_1'],num_1,[3],'num_1',images/min3.png,"[(0.45, 0.79)]",,,,,0,9,9,9,7,3,31,2,,,,,,,,,,,,,['num_1'],,0.0539409229532,1,['num_1'],0,[1.3541924103628844],1,,,,,,,2018_Jun_10_1212,60.0197972651,sequenceLearningTask,001,110,
min1.png,min2.png,min3.png,min4.png,images/allBlank.png,"['num_7', 'num_4', 'num_1', 'num_0']",['num_4'],num_4,[2],'num_4',images/min2.png,"[(0.45, 0.79)]",,,,,0,9,9,9,8,0,32,1,,,,,,,,,,,,,['num_4'],,0.0541435899213,1,['num_4'],0,[0.8547585641499609],1,,,,,,,2018_Jun_10_1212,60.0197972651,sequenceLearningTask,001,110,
min1.png,min2.png,min3.png,min4.png,images/allBlank.png,"['num_7', 'num_4', 'num_1', 'num_0']",['num_7'],num_7,[1],'num_7',images/min1.png,"[(0.45, 0.79)]",,,,,0,9,9,9,8,1,33,0,,,,,,,,,,,,,['num_7'],,0.0503298460972,1,['num_7'],0,[0.9250166153069586],1,,,,,,,2018_Jun_10_1212,60.0197972651,sequenceLearningTask,001,110,
min1.png,min2.png,min3.png,min4.png,images/allBlank.png,"['num_7', 'num_4', 'num_1', 'num_0']",['num_0'],num_0,[4],'num_0',images/min4.png,"[(0.45, 0.79)]",,,,,0,9,9,9,8,2,34,3,,,,,,,,,,,,,['num_0'],,0.0568984616548,1,['num_0'],0,[0.867497846018523],1,,,,,,,2018_Jun_10_1212,60.0197972651,sequenceLearningTask,001,110,
min1.png,min2.png,min3.png,min4.png,images/allBlank.png,"['num_7', 'num_4', 'num_1', 'num_0']",['num_1'],num_1,[3],'num_1',images/min3.png,"[(0.45, 0.79)]",,,,,0,9,9,9,8,3,35,2,,,,,,,,,,,,,['num_1'],,0.0524590769783,1,['num_1'],0,[0.9723343588411808],1,,,,,,,2018_Jun_10_1212,60.0197972651,sequenceLearningTask,001,110,
min1.png,min2.png,min3.png,min4.png,images/allBlank.png,"['num_7', 'num_4', 'num_1', 'num_0']",['num_1'],num_1,[3],'num_1',images/min3.png,"[(0.45, 0.79)]",,,,,0,9,9,9,9,0,36,2,,,,,,,,,,,,,['num_1'],,0.0485296410043,1,['num_1'],0,[0.8265805128030479],1,,,,,,,2018_Jun_10_1212,60.0197972651,sequenceLearningTask,001,110,
min1.png,min2.png,min3.png,min4.png,images/allBlank.png,"['num_7', 'num_4', 'num_1', 'num_0']",['num_7'],num_7,[1],'num_7',images/min1.png,"[(0.45, 0.79)]",,,,,0,9,9,9,9,1,37,0,,,,,,,,,,,,,['num_7'],,0.0602793844882,1,['num_7'],0,[1.0828299487475306],1,,,,,,,2018_Jun_10_1212,60.0197972651,sequenceLearningTask,001,110,
min1.png,min2.png,min3.png,min4.png,images/allBlank.png,"['num_7', 'num_4', 'num_1', 'num_0']",['num_4'],num_4,[2],'num_4',images/min2.png,"[(0.45, 0.79)]",,,,,0,9,9,9,9,2,38,1,,,,,,,,,,,,,['num_4'],,0.0521345641464,1,['num_4'],0,[0.6238650258164853],1,,,,,,,2018_Jun_10_1212,60.0197972651,sequenceLearningTask,001,110,
min1.png,min2.png,min3.png,min4.png,images/allBlank.png,"['num_7', 'num_4', 'num_1', 'num_0']",['num_0'],num_0,[4],'num_0',images/min4.png,"[(0.45, 0.79)]",,,,,0,9,9,9,9,3,39,3,,,,,,,,,,,,,['num_0'],,0.0583671794739,1,['num_0'],0,[0.716841435758397],1,,,,,,,2018_Jun_10_1212,60.0197972651,sequenceLearningTask,001,110,
min1.png,min2.png,min3.png,min4.png,images/allBlank.png,"['num_7', 'num_4', 'num_1', 'num_0']",['num_1'],num_1,[3],'num_1',images/min3.png,"[(0.45, 0.79)]",,,,,0,9,9,9,10,0,40,2,,,,,,,,,,,,,['num_1'],,0.0614129232708,1,['num_1'],0,[0.6632754870224744],1,,,,,,,2018_Jun_10_1212,60.0197972651,sequenceLearningTask,001,110,
min1.png,min2.png,min3.png,min4.png,images/allBlank.png,"['num_7', 'num_4', 'num_1', 'num_0']",['num_7'],num_7,[1],'num_7',images/min1.png,"[(0.45, 0.79)]",,,,,0,9,9,9,10,1,41,0,,,,,,,,,,,,,['num_7'],,0.0516299486626,1,['num_7'],0,[0.5072939486708492],1,,,,,,,2018_Jun_10_1212,60.0197972651,sequenceLearningTask,001,110,
min1.png,min2.png,min3.png,min4.png,images/allBlank.png,"['num_7', 'num_4', 'num_1', 'num_0']",['num_0'],num_0,[4],'num_0',images/min4.png,"[(0.45, 0.79)]",,,,,0,9,9,9,10,2,42,3,,,,,,,,,,,,,['num_0'],,0.0567011283711,1,['num_0'],0,[1.0192504615988582],1,,,,,,,2018_Jun_10_1212,60.0197972651,sequenceLearningTask,001,110,
min1.png,min2.png,min3.png,min4.png,images/allBlank.png,"['num_7', 'num_4', 'num_1', 'num_0']",['num_4'],num_4,[2],'num_4',images/min2.png,"[(0.45, 0.79)]",,,,,0,9,9,9,10,3,43,1,,,,,,,,,,,,,['num_4'],,0.0620722051244,1,['num_4'],0,[1.347313230857253],1,,,,,,,2018_Jun_10_1212,60.0197972651,sequenceLearningTask,001,110,
min1.png,min2.png,min3.png,min4.png,images/allBlank.png,"['num_7', 'num_4', 'num_1', 'num_0']",['num_0'],num_0,[4],'num_0',images/min4.png,"[(0.45, 0.79)]",,,,,0,9,9,9,11,0,44,3,,,,,,,,,,,,,['num_0'],,0.0505403075367,1,['num_0'],0,[0.759677128167823],1,,,,,,,2018_Jun_10_1212,60.0197972651,sequenceLearningTask,001,110,
min1.png,min2.png,min3.png,min4.png,images/allBlank.png,"['num_7', 'num_4', 'num_1', 'num_0']",['num_1'],num_1,[3],'num_1',images/min3.png,"[(0.45, 0.79)]",,,,,0,9,9,9,11,1,45,2,,,,,,,,,,,,,['num_1'],,0.0598059485201,1,['num_1'],0,[1.049023589817807],1,,,,,,,2018_Jun_10_1212,60.0197972651,sequenceLearningTask,001,110,
min1.png,min2.png,min3.png,min4.png,images/allBlank.png,"['num_7', 'num_4', 'num_1', 'num_0']",['num_4'],num_4,[2],'num_4',images/min2.png,"[(0.45, 0.79)]",,,,,0,9,9,9,11,2,46,1,,,,,,,,,,,,,['num_4'],,0.0529768206179,1,['num_4'],0,[1.6391638976056129],1,,,,,,,2018_Jun_10_1212,60.0197972651,sequenceLearningTask,001,110,
min1.png,min2.png,min3.png,min4.png,images/allBlank.png,"['num_7', 'num_4', 'num_1', 'num_0']",['num_7'],num_7,[1],'num_7',images/min1.png,"[(0.45, 0.79)]",,,,,0,9,9,9,11,3,47,0,,,,,,,,,,,,,['num_7'],,0.0525608204771,1,['num_7'],0,[0.8410014358814806],1,,,,,,,2018_Jun_10_1212,60.0197972651,sequenceLearningTask,001,110,
min1.png,min2.png,min3.png,min4.png,images/allBlank.png,"['num_7', 'num_4', 'num_1', 'num_0']",['num_0'],num_0,[4],'num_0',images/min4.png,"[(0.45, 0.79)]",,,,,0,9,9,9,12,0,48,3,,,,,,,,,,,,,['num_0'],,0.0496578461025,1,['num_0'],0,[0.8099757949821651],1,,,,,,,2018_Jun_10_1212,60.0197972651,sequenceLearningTask,001,110,
min1.png,min2.png,min3.png,min4.png,images/allBlank.png,"['num_7', 'num_4', 'num_1', 'num_0']",['num_4'],num_4,[2],'num_4',images/min2.png,"[(0.45, 0.79)]",,,,,0,9,9,9,12,1,49,1,,,,,,,,,,,,,['num_4'],,0.056338051334,1,['num_4'],0,[0.8527831793762743],1,,,,,,,2018_Jun_10_1212,60.0197972651,sequenceLearningTask,001,110,
min1.png,min2.png,min3.png,min4.png,images/allBlank.png,"['num_7', 'num_4', 'num_1', 'num_0']",['num_1'],num_1,[3],'num_1',images/min3.png,"[(0.45, 0.79)]",,,,,0,9,9,9,12,2,50,2,,,,,,,,,,,,,['num_1'],,0.057015794795,1,['num_1'],0,[0.5999179487116635],1,,,,,,,2018_Jun_10_1212,60.0197972651,sequenceLearningTask,001,110,
min1.png,min2.png,min3.png,min4.png,images/allBlank.png,"['num_7', 'num_4', 'num_1', 'num_0']",['num_7'],num_7,[1],'num_7',images/min1.png,"[(0.45, 0.79)]",,,,,0,9,9,9,12,3,51,0,,,,,,,,,,,,,['num_7'],,0.0573316921946,1,['num_7'],0,[0.9507581538055092],1,,,,,,,2018_Jun_10_1212,60.0197972651,sequenceLearningTask,001,110,
min1.png,min2.png,min3.png,min4.png,images/allBlank.png,"['num_7', 'num_4', 'num_1', 'num_0']",['num_7'],num_7,[1],'num_7',images/min1.png,"[(0.45, 0.79)]",,,,,0,9,9,9,13,0,52,0,,,,,,,,,,,,,['num_7'],,0.056735179387,0,"['num_4', 'num_7']",0,"[0.8356114870402962, 1.3855368203949183]",0,,,,,,,2018_Jun_10_1212,60.0197972651,sequenceLearningTask,001,110,
min1.png,min2.png,min3.png,min4.png,images/allBlank.png,"['num_7', 'num_4', 'num_1', 'num_0']",['num_4'],num_4,[2],'num_4',images/min2.png,"[(0.45, 0.79)]",,,,,0,9,9,9,13,1,53,1,,,,,,,,,,,,,['num_4'],,0.0503954871092,1,['num_4'],0,[0.4917846154421568],1,,,,,,,2018_Jun_10_1212,60.0197972651,sequenceLearningTask,001,110,
min1.png,min2.png,min3.png,min4.png,images/allBlank.png,"['num_7', 'num_4', 'num_1', 'num_0']",['num_0'],num_0,[4],'num_0',images/min4.png,"[(0.45, 0.79)]",,,,,0,9,9,9,13,2,54,3,,,,,,,,,,,,,['num_0'],,0.056915282039,1,['num_0'],0,[0.8349567179102451],1,,,,,,,2018_Jun_10_1212,60.0197972651,sequenceLearningTask,001,110,
min1.png,min2.png,min3.png,min4.png,images/allBlank.png,"['num_7', 'num_4', 'num_1', 'num_0']",['num_1'],num_1,[3],'num_1',images/min3.png,"[(0.45, 0.79)]",,,,,0,9,9,9,13,3,55,2,,,,,,,,,,,,,['num_1'],,0.0505661538336,1,['num_1'],0,[0.6585029743146151],1,,,,,,,2018_Jun_10_1212,60.0197972651,sequenceLearningTask,001,110,
min1.png,min2.png,min3.png,min4.png,images/allBlank.png,"['num_7', 'num_4', 'num_1', 'num_0']",['num_4'],num_4,[2],'num_4',images/min2.png,"[(0.45, 0.79)]",,,,,0,9,9,9,14,0,56,1,,,,,,,,,,,,,['num_4'],,0.0510617434047,1,['num_4'],0,[0.9751532308291644],1,,,,,,,2018_Jun_10_1212,60.0197972651,sequenceLearningTask,001,110,
min1.png,min2.png,min3.png,min4.png,images/allBlank.png,"['num_7', 'num_4', 'num_1', 'num_0']",['num_0'],num_0,[4],'num_0',images/min4.png,"[(0.45, 0.79)]",,,,,0,9,9,9,14,1,57,3,,,,,,,,,,,,,['num_0'],,0.0549969230779,1,['num_0'],0,[0.8205883076880127],1,,,,,,,2018_Jun_10_1212,60.0197972651,sequenceLearningTask,001,110,
min1.png,min2.png,min3.png,min4.png,images/allBlank.png,"['num_7', 'num_4', 'num_1', 'num_0']",['num_1'],num_1,[3],'num_1',images/min3.png,"[(0.45, 0.79)]",,,,,0,9,9,9,14,2,58,2,,,,,,,,,,,,,['num_1'],,0.0486826666165,0,"['num_0', 'num_1']",0,"[0.8431544615887105, 1.3602699486073107]",0,,,,,,,2018_Jun_10_1212,60.0197972651,sequenceLearningTask,001,110,
min1.png,min2.png,min3.png,min4.png,images/allBlank.png,"['num_7', 'num_4', 'num_1', 'num_0']",['num_7'],num_7,[1],'num_7',images/min1.png,"[(0.45, 0.79)]",,,,,0,9,9,9,14,3,59,0,,,,,,,,,,,,,['num_7'],,0.0497915896121,1,['num_7'],0,[1.2420914871618152],1,,,,,,,2018_Jun_10_1212,60.0197972651,sequenceLearningTask,001,110,
min1.png,min2.png,min3.png,min4.png,images/allBlank.png,"['num_7', 'num_4', 'num_1', 'num_0']",['num_7'],num_7,[1],'num_7',images/min1.png,"[(0.45, 0.79)]",,,,,0,9,9,9,15,0,60,0,,,,,,,,,,,,,['num_7'],,0.0501070769969,1,['num_7'],0,[1.0594560001045465],1,,,,,,,2018_Jun_10_1212,60.0197972651,sequenceLearningTask,001,110,
min1.png,min2.png,min3.png,min4.png,images/allBlank.png,"['num_7', 'num_4', 'num_1', 'num_0']",['num_4'],num_4,[2],'num_4',images/min2.png,"[(0.45, 0.79)]",,,,,0,9,9,9,15,1,61,1,,,,,,,,,,,,,['num_4'],,0.0561058460735,1,['num_4'],0,[2.8703716923482716],1,,,,,,,2018_Jun_10_1212,60.0197972651,sequenceLearningTask,001,110,
min1.png,min2.png,min3.png,min4.png,images/allBlank.png,"['num_7', 'num_4', 'num_1', 'num_0']",['num_1'],num_1,[3],'num_1',images/min3.png,"[(0.45, 0.79)]",,,,,0,9,9,9,15,2,62,2,,,,,,,,,,,,,['num_1'],,0.0545735382475,1,['num_1'],0,[0.9373858459293842],1,,,,,,,2018_Jun_10_1212,60.0197972651,sequenceLearningTask,001,110,
min1.png,min2.png,min3.png,min4.png,images/allBlank.png,"['num_7', 'num_4', 'num_1', 'num_0']",['num_0'],num_0,[4],'num_0',images/min4.png,"[(0.45, 0.79)]",,,,,0,9,9,9,15,3,63,3,,,,,,,,,,,,,['num_0'],,0.0531688204501,1,['num_0'],0,[0.40542194875888526],1,,,,,,,2018_Jun_10_1212,60.0197972651,sequenceLearningTask,001,110,
min1.png,min2.png,min3.png,min4.png,images/allBlank.png,"['num_7', 'num_4', 'num_1', 'num_0']",['num_0'],num_0,[4],'num_0',images/min4.png,"[(0.45, 0.79)]",,,,,0,9,9,9,16,0,64,3,,,,,,,,,,,,,['num_0'],,0.0484660512302,1,['num_0'],0,[0.6604004104156047],1,,,,,,,2018_Jun_10_1212,60.0197972651,sequenceLearningTask,001,110,
min1.png,min2.png,min3.png,min4.png,images/allBlank.png,"['num_7', 'num_4', 'num_1', 'num_0']",['num_4'],num_4,[2],'num_4',images/min2.png,"[(0.45, 0.79)]",,,,,0,9,9,9,16,1,65,1,,,,,,,,,,,,,['num_4'],,0.0548438974656,1,['num_4'],0,[1.388508717995137],1,,,,,,,2018_Jun_10_1212,60.0197972651,sequenceLearningTask,001,110,
min1.png,min2.png,min3.png,min4.png,images/allBlank.png,"['num_7', 'num_4', 'num_1', 'num_0']",['num_7'],num_7,[1],'num_7',images/min1.png,"[(0.45, 0.79)]",,,,,0,9,9,9,16,2,66,0,,,,,,,,,,,,,['num_7'],,0.0545891281217,1,['num_7'],0,[0.9202912820037454],1,,,,,,,2018_Jun_10_1212,60.0197972651,sequenceLearningTask,001,110,
min1.png,min2.png,min3.png,min4.png,images/allBlank.png,"['num_7', 'num_4', 'num_1', 'num_0']",['num_1'],num_1,[3],'num_1',images/min3.png,"[(0.45, 0.79)]",,,,,0,9,9,9,16,3,67,2,,,,,,,,,,,,,['num_1'],,0.0545374357607,1,['num_1'],0,[0.9381599999032915],1,,,,,,,2018_Jun_10_1212,60.0197972651,sequenceLearningTask,001,110,
min1.png,min2.png,min3.png,min4.png,images/allBlank.png,"['num_7', 'num_4', 'num_1', 'num_0']",['num_7'],num_7,[1],'num_7',images/min1.png,"[(0.45, 0.79)]",,,,,0,9,9,9,17,0,68,0,,,,,,,,,,,,,['num_7'],,0.0496705642436,1,['num_7'],0,[0.9256631794851273],1,,,,,,,2018_Jun_10_1212,60.0197972651,sequenceLearningTask,001,110,
min1.png,min2.png,min3.png,min4.png,images/allBlank.png,"['num_7', 'num_4', 'num_1', 'num_0']",['num_1'],num_1,[3],'num_1',images/min3.png,"[(0.45, 0.79)]",,,,,0,9,9,9,17,1,69,2,,,,,,,,,,,,,['num_1'],,0.0524619487114,1,['num_1'],0,[1.5401152821723372],1,,,,,,,2018_Jun_10_1212,60.0197972651,sequenceLearningTask,001,110,
min1.png,min2.png,min3.png,min4.png,images/allBlank.png,"['num_7', 'num_4', 'num_1', 'num_0']",['num_0'],num_0,[4],'num_0',images/min4.png,"[(0.45, 0.79)]",,,,,0,9,9,9,17,2,70,3,,,,,,,,,,,,,['num_0'],,0.062075487338,1,['num_0'],0,[0.5295556923374534],1,,,,,,,2018_Jun_10_1212,60.0197972651,sequenceLearningTask,001,110,
min1.png,min2.png,min3.png,min4.png,images/allBlank.png,"['num_7', 'num_4', 'num_1', 'num_0']",['num_4'],num_4,[2],'num_4',images/min2.png,"[(0.45, 0.79)]",,,,,0,9,9,9,17,3,71,1,,,,,,,,,,,,,['num_4'],,0.0455478974618,0,"['num_7', 'num_4']",0,"[0.881904820445925, 1.5000607178080827]",0,,,,,,,2018_Jun_10_1212,60.0197972651,sequenceLearningTask,001,110,
min1.png,min2.png,min3.png,min4.png,images/allBlank.png,"['num_7', 'num_4', 'num_1', 'num_0']",['num_7'],num_7,[1],'num_7',images/min1.png,"[(0.45, 0.79)]",,,,,0,9,9,9,18,0,72,0,,,,,,,,,,,,,['num_7'],,0.0534198973328,1,['num_7'],0,[0.9226773334667087],1,,,,,,,2018_Jun_10_1212,60.0197972651,sequenceLearningTask,001,110,
min1.png,min2.png,min3.png,min4.png,images/allBlank.png,"['num_7', 'num_4', 'num_1', 'num_0']",['num_1'],num_1,[3],'num_1',images/min3.png,"[(0.45, 0.79)]",,,,,0,9,9,9,18,1,73,2,,,,,,,,,,,,,['num_1'],,0.0456406152807,0,"['num_4', 'num_4', 'num_1']",0,"[0.7135593846905977, 1.3630560000892729, 1.8469702564179897]",0,,,,,,,2018_Jun_10_1212,60.0197972651,sequenceLearningTask,001,110,
min1.png,min2.png,min3.png,min4.png,images/allBlank.png,"['num_7', 'num_4', 'num_1', 'num_0']",['num_4'],num_4,[2],'num_4',images/min2.png,"[(0.45, 0.79)]",,,,,0,9,9,9,18,2,74,1,,,,,,,,,,,,,['num_4'],,0.0612209232058,1,['num_4'],0,[0.9962412307504565],1,,,,,,,2018_Jun_10_1212,60.0197972651,sequenceLearningTask,001,110,
min1.png,min2.png,min3.png,min4.png,images/allBlank.png,"['num_7', 'num_4', 'num_1', 'num_0']",['num_0'],num_0,[4],'num_0',images/min4.png,"[(0.45, 0.79)]",,,,,0,9,9,9,18,3,75,3,,,,,,,,,,,,,['num_0'],,0.0555716922972,1,['num_0'],0,[2.0367158974986523],1,,,,,,,2018_Jun_10_1212,60.0197972651,sequenceLearningTask,001,110,
min1.png,min2.png,min3.png,min4.png,images/allBlank.png,"['num_7', 'num_4', 'num_1', 'num_0']",['num_1'],num_1,[3],'num_1',images/min3.png,"[(0.45, 0.79)]",,,,,0,9,9,9,19,0,76,2,,,,,,,,,,,,,['num_1'],,0.0565202049911,1,['num_1'],0,[0.7692069744225591],1,,,,,,,2018_Jun_10_1212,60.0197972651,sequenceLearningTask,001,110,
min1.png,min2.png,min3.png,min4.png,images/allBlank.png,"['num_7', 'num_4', 'num_1', 'num_0']",['num_0'],num_0,[4],'num_0',images/min4.png,"[(0.45, 0.79)]",,,,,0,9,9,9,19,1,77,3,,,,,,,,,,,,,['num_0'],,0.0625546667725,1,['num_0'],0,[3.1298088205512613],1,,,,,,,2018_Jun_10_1212,60.0197972651,sequenceLearningTask,001,110,
min1.png,min2.png,min3.png,min4.png,images/allBlank.png,"['num_7', 'num_4', 'num_1', 'num_0']",['num_7'],num_7,[1],'num_7',images/min1.png,"[(0.45, 0.79)]",,,,,0,9,9,9,19,2,78,0,,,,,,,,,,,,,['num_7'],,0.0492923075799,1,['num_7'],0,[1.0106539488770068],1,,,,,,,2018_Jun_10_1212,60.0197972651,sequenceLearningTask,001,110,
min1.png,min2.png,min3.png,min4.png,images/allBlank.png,"['num_7', 'num_4', 'num_1', 'num_0']",['num_4'],num_4,[2],'num_4',images/min2.png,"[(0.45, 0.79)]",,,,,0,9,9,9,19,3,79,1,,,,,,,,,,,,,['num_4'],,0.0640324102715,1,['num_4'],0,[0.743478974327445],1,,,,,,,2018_Jun_10_1212,60.0197972651,sequenceLearningTask,001,110,
min1.png,min2.png,min3.png,min4.png,allBlank.png,,['num_7'],,,,,,,,,,0,0,0,0,,,,,,,,,,,,,,,,,['num_7'],1,0.0297448206693,1,['num_7'],0,[0.539525743573904],,,,,,,,2018_Jun_10_1212,60.0197972651,sequenceLearningTask,001,110,
min1.png,min2.png,min3.png,min4.png,allBlank.png,,['num_1'],,,,,,,,,,0,0,0,0,,,,,,,,,,,,,,,,,['num_1'],1,0.0596918975934,1,['num_1'],0,[0.6676598973572254],,,,,,,,2018_Jun_10_1212,60.0197972651,sequenceLearningTask,001,110,
min1.png,min2.png,min3.png,min4.png,allBlank.png,,['num_4'],,,,,,,,,,0,0,0,0,,,,,,,,,,,,,,,,,['num_4'],1,0.0539454359096,1,['num_4'],0,[0.6895101538393646],,,,,,,,2018_Jun_10_1212,60.0197972651,sequenceLearningTask,001,110,
min1.png,min2.png,min3.png,min4.png,allBlank.png,,['num_0'],,,,,,,,,,0,0,0,0,,,,,,,,,,,,,,,,,['num_0'],1,0.0601526154205,1,['num_0'],0,[0.6831089230254292],,,,,,,,2018_Jun_10_1212,60.0197972651,sequenceLearningTask,001,110,
min1.png,min2.png,min3.png,min4.png,allBlank.png,,['num_0'],,,,,,,,,,0,0,0,0,,,,,,,,,,,,,,,,,['num_0'],1,0.0501124102157,1,['num_0'],0,[0.5610157949849963],,,,,,,,2018_Jun_10_1212,60.0197972651,sequenceLearningTask,001,110,
min1.png,min2.png,min3.png,min4.png,allBlank.png,,['num_4'],,,,,,,,,,0,0,0,0,,,,,,,,,,,,,,,,,['num_4'],1,0.0500775382388,1,['num_4'],0,[1.544031589757651],,,,,,,,2018_Jun_10_1212,60.0197972651,sequenceLearningTask,001,110,
min1.png,min2.png,min3.png,min4.png,allBlank.png,,['num_1'],,,,,,,,,,0,0,0,0,,,,,,,,,,,,,,,,,['num_1'],1,0.0524500512984,1,['num_1'],0,[0.6083922050893307],,,,,,,,2018_Jun_10_1212,60.0197972651,sequenceLearningTask,001,110,
min1.png,min2.png,min3.png,min4.png,allBlank.png,,['num_0'],,,,,,,,,,0,0,0,0,,,,,,,,,,,,,,,,,['num_0'],1,0.0549390767701,1,['num_0'],0,[0.5403318975586444],,,,,,,,2018_Jun_10_1212,60.0197972651,sequenceLearningTask,001,110,
min1.png,min2.png,min3.png,min4.png,allBlank.png,,['num_7'],,,,,,,,,,0,1,1,1,,,,,,,,,,,,,,,,,['num_7'],2,0.0536516923457,1,['num_7'],0,[0.6730908718891442],,,,,,,,2018_Jun_10_1212,60.0197972651,sequenceLearningTask,001,110,
min1.png,min2.png,min3.png,min4.png,allBlank.png,,['num_1'],,,,,,,,,,0,1,1,1,,,,,,,,,,,,,,,,,['num_1'],2,0.055243487237,1,['num_1'],0,[0.8069846155121922],,,,,,,,2018_Jun_10_1212,60.0197972651,sequenceLearningTask,001,110,
min1.png,min2.png,min3.png,min4.png,allBlank.png,,['num_4'],,,,,,,,,,0,1,1,1,,,,,,,,,,,,,,,,,['num_4'],2,0.0571823590435,1,['num_4'],0,[0.636760615510866],,,,,,,,2018_Jun_10_1212,60.0197972651,sequenceLearningTask,001,110,
min1.png,min2.png,min3.png,min4.png,allBlank.png,,['num_0'],,,,,,,,,,0,1,1,1,,,,,,,,,,,,,,,,,['num_0'],2,0.0530666667037,1,['num_0'],0,[0.4911585641093552],,,,,,,,2018_Jun_10_1212,60.0197972651,sequenceLearningTask,001,110,
min1.png,min2.png,min3.png,min4.png,allBlank.png,,['num_0'],,,,,,,,,,0,1,1,1,,,,,,,,,,,,,,,,,['num_0'],2,0.0567318974063,1,['num_0'],0,[0.7867331283632666],,,,,,,,2018_Jun_10_1212,60.0197972651,sequenceLearningTask,001,110,
min1.png,min2.png,min3.png,min4.png,allBlank.png,,['num_4'],,,,,,,,,,0,1,1,1,,,,,,,,,,,,,,,,,['num_4'],2,0.0552627691068,1,['num_4'],0,[2.4725620513781905],,,,,,,,2018_Jun_10_1212,60.0197972651,sequenceLearningTask,001,110,
min1.png,min2.png,min3.png,min4.png,allBlank.png,,['num_1'],,,,,,,,,,0,1,1,1,,,,,,,,,,,,,,,,,['num_1'],2,0.0558399998117,1,['num_1'],0,[1.2046678974293172],,,,,,,,2018_Jun_10_1212,60.0197972651,sequenceLearningTask,001,110,
min1.png,min2.png,min3.png,min4.png,allBlank.png,,['num_0'],,,,,,,,,,0,1,1,1,,,,,,,,,,,,,,,,,['num_0'],2,0.0585037947167,1,['num_0'],0,[1.1189587693661451],,,,,,,,2018_Jun_10_1212,60.0197972651,sequenceLearningTask,001,110,
min1.png,min2.png,min3.png,min4.png,allBlank.png,,['num_7'],,,,,,,,,,0,2,2,2,,,,,,,,,,,,,,,,,['num_7'],3,0.0523483077995,1,['num_7'],0,[1.2405899486038834],,,,,,,,2018_Jun_10_1212,60.0197972651,sequenceLearningTask,001,110,
min1.png,min2.png,min3.png,min4.png,allBlank.png,,['num_1'],,,,,,,,,,0,2,2,2,,,,,,,,,,,,,,,,,['num_1'],3,0.0547236923594,1,['num_1'],0,[0.8733645128086209],,,,,,,,2018_Jun_10_1212,60.0197972651,sequenceLearningTask,001,110,
min1.png,min2.png,min3.png,min4.png,allBlank.png,,['num_4'],,,,,,,,,,0,2,2,2,,,,,,,,,,,,,,,,,['num_4'],3,0.0555844102055,1,['num_4'],0,[0.8555766155477613],,,,,,,,2018_Jun_10_1212,60.0197972651,sequenceLearningTask,001,110,
min1.png,min2.png,min3.png,min4.png,allBlank.png,,['num_0'],,,,,,,,,,0,2,2,2,,,,,,,,,,,,,,,,,['num_0'],3,0.0589444104116,1,['num_0'],0,[0.8850281026680022],,,,,,,,2018_Jun_10_1212,60.0197972651,sequenceLearningTask,001,110,
min1.png,min2.png,min3.png,min4.png,allBlank.png,,['num_0'],,,,,,,,,,0,2,2,2,,,,,,,,,,,,,,,,,['num_0'],3,0.0595056409948,1,['num_0'],0,[0.8183856410905719],,,,,,,,2018_Jun_10_1212,60.0197972651,sequenceLearningTask,001,110,
min1.png,min2.png,min3.png,min4.png,allBlank.png,,['num_4'],,,,,,,,,,0,2,2,2,,,,,,,,,,,,,,,,,['num_4'],3,0.0551249231212,1,['num_4'],0,[0.9385649228934199],,,,,,,,2018_Jun_10_1212,60.0197972651,sequenceLearningTask,001,110,
min1.png,min2.png,min3.png,min4.png,allBlank.png,,['num_1'],,,,,,,,,,0,2,2,2,,,,,,,,,,,,,,,,,['num_1'],3,0.0545854358934,1,['num_1'],0,[0.7243663589470088],,,,,,,,2018_Jun_10_1212,60.0197972651,sequenceLearningTask,001,110,
min1.png,min2.png,min3.png,min4.png,allBlank.png,,['num_0'],,,,,,,,,,0,2,2,2,,,,,,,,,,,,,,,,,['num_0'],3,0.0626929230057,1,['num_0'],0,[0.7482740513514727],,,,,,,,2018_Jun_10_1212,60.0197972651,sequenceLearningTask,001,110,
min1.png,min2.png,min3.png,min4.png,allBlank.png,,['num_7'],,,,,,,,,,0,3,3,3,,,,,,,,,,,,,,,,,['num_7'],4,0.0499602050986,1,['num_7'],0,[0.9766469742171466],,,,,,,,2018_Jun_10_1212,60.0197972651,sequenceLearningTask,001,110,
min1.png,min2.png,min3.png,min4.png,allBlank.png,,['num_1'],,,,,,,,,,0,3,3,3,,,,,,,,,,,,,,,,,['num_1'],4,0.052200615406,0,"['num_4', 'num_1']",0,"[1.3092927178367972, 2.008462358964607]",,,,,,,,2018_Jun_10_1212,60.0197972651,sequenceLearningTask,001,110,
min1.png,min2.png,min3.png,min4.png,allBlank.png,,['num_4'],,,,,,,,,,0,3,3,3,,,,,,,,,,,,,,,,,['num_4'],4,0.0506043075584,1,['num_4'],0,[0.8432069744449109],,,,,,,,2018_Jun_10_1212,60.0197972651,sequenceLearningTask,001,110,
min1.png,min2.png,min3.png,min4.png,allBlank.png,,['num_0'],,,,,,,,,,0,3,3,3,,,,,,,,,,,,,,,,,['num_0'],4,0.0546834871639,1,['num_0'],0,[1.1411766153760254],,,,,,,,2018_Jun_10_1212,60.0197972651,sequenceLearningTask,001,110,
min1.png,min2.png,min3.png,min4.png,allBlank.png,,['num_0'],,,,,,,,,,0,3,3,3,,,,,,,,,,,,,,,,,['num_0'],4,0.0525325126946,1,['num_0'],0,[1.1920808204449713],,,,,,,,2018_Jun_10_1212,60.0197972651,sequenceLearningTask,001,110,
min1.png,min2.png,min3.png,min4.png,allBlank.png,,['num_4'],,,,,,,,,,0,3,3,3,,,,,,,,,,,,,,,,,['num_4'],4,0.0561517949682,1,['num_4'],0,[1.0875581537839025],,,,,,,,2018_Jun_10_1212,60.0197972651,sequenceLearningTask,001,110,
min1.png,min2.png,min3.png,min4.png,allBlank.png,,['num_1'],,,,,,,,,,0,3,3,3,,,,,,,,,,,,,,,,,['num_1'],4,0.0570761025883,1,['num_1'],0,[0.7040213334839791],,,,,,,,2018_Jun_10_1212,60.0197972651,sequenceLearningTask,001,110,
min1.png,min2.png,min3.png,min4.png,allBlank.png,,['num_0'],,,,,,,,,,0,3,3,3,,,,,,,,,,,,,,,,,['num_0'],4,0.0537899488118,1,['num_0'],0,[0.3571667692158371],,,,,,,,2018_Jun_10_1212,60.0197972651,sequenceLearningTask,001,110,
min1.png,min2.png,min3.png,min4.png,allBlank.png,,['num_7'],,,,,,,,,,0,4,4,4,,,,,,,,,,,,,,,,,['num_7'],5,0.0578174358234,1,['num_7'],0,[0.9855249230749905],,,,,,,,2018_Jun_10_1212,60.0197972651,sequenceLearningTask,001,110,
min1.png,min2.png,min3.png,min4.png,allBlank.png,,['num_1'],,,,,,,,,,0,4,4,4,,,,,,,,,,,,,,,,,['num_1'],5,0.0510211281944,1,['num_1'],0,[1.0432849230710417],,,,,,,,2018_Jun_10_1212,60.0197972651,sequenceLearningTask,001,110,
min1.png,min2.png,min3.png,min4.png,allBlank.png,,['num_4'],,,,,,,,,,0,4,4,4,,,,,,,,,,,,,,,,,['num_4'],5,0.0512738460675,0,"['num_7', 'num_4']",0,"[0.9600841025821865, 1.3430761026684195]",,,,,,,,2018_Jun_10_1212,60.0197972651,sequenceLearningTask,001,110,
min1.png,min2.png,min3.png,min4.png,allBlank.png,,['num_0'],,,,,,,,,,0,4,4,4,,,,,,,,,,,,,,,,,['num_0'],5,0.0545686152764,1,['num_0'],0,[0.7403035897295922],,,,,,,,2018_Jun_10_1212,60.0197972651,sequenceLearningTask,001,110,
min1.png,min2.png,min3.png,min4.png,allBlank.png,,['num_0'],,,,,,,,,,0,4,4,4,,,,,,,,,,,,,,,,,['num_0'],5,0.0565850257408,1,['num_0'],0,[0.9205513845663518],,,,,,,,2018_Jun_10_1212,60.0197972651,sequenceLearningTask,001,110,
min1.png,min2.png,min3.png,min4.png,allBlank.png,,['num_4'],,,,,,,,,,0,4,4,4,,,,,,,,,,,,,,,,,['num_4'],5,0.0550211281516,1,['num_4'],0,[0.9229189744219184],,,,,,,,2018_Jun_10_1212,60.0197972651,sequenceLearningTask,001,110,
min1.png,min2.png,min3.png,min4.png,allBlank.png,,['num_1'],,,,,,,,,,0,4,4,4,,,,,,,,,,,,,,,,,['num_1'],5,0.0529895385262,1,['num_1'],0,[1.0406855384353548],,,,,,,,2018_Jun_10_1212,60.0197972651,sequenceLearningTask,001,110,
min1.png,min2.png,min3.png,min4.png,allBlank.png,,['num_0'],,,,,,,,,,0,4,4,4,,,,,,,,,,,,,,,,,['num_0'],5,0.0513632821385,1,['num_0'],0,[0.7937001024838537],,,,,,,,2018_Jun_10_1212,60.0197972651,sequenceLearningTask,001,110,
min1.png,min2.png,min3.png,min4.png,allBlank.png,,['num_7'],,,,,,,,,,0,5,5,5,,,,,,,,,,,,,,,,,['num_7'],6,0.0598949743435,1,['num_7'],0,[0.8494650258217007],,,,,,,,2018_Jun_10_1212,60.0197972651,sequenceLearningTask,001,110,
min1.png,min2.png,min3.png,min4.png,allBlank.png,,['num_1'],,,,,,,,,,0,5,5,5,,,,,,,,,,,,,,,,,['num_1'],6,0.0551774359774,1,['num_1'],0,[2.1888480000197887],,,,,,,,2018_Jun_10_1212,60.0197972651,sequenceLearningTask,001,110,
min1.png,min2.png,min3.png,min4.png,allBlank.png,,['num_4'],,,,,,,,,,0,5,5,5,,,,,,,,,,,,,,,,,['num_4'],6,0.0625952819828,1,['num_4'],0,[1.0144082051701844],,,,,,,,2018_Jun_10_1212,60.0197972651,sequenceLearningTask,001,110,
min1.png,min2.png,min3.png,min4.png,allBlank.png,,['num_0'],,,,,,,,,,0,5,5,5,,,,,,,,,,,,,,,,,['num_0'],6,0.0618793845642,1,['num_0'],0,[0.7828656411729753],,,,,,,,2018_Jun_10_1212,60.0197972651,sequenceLearningTask,001,110,
min1.png,min2.png,min3.png,min4.png,allBlank.png,,['num_0'],,,,,,,,,,0,5,5,5,,,,,,,,,,,,,,,,,['num_0'],6,0.0633907692973,1,['num_0'],0,[0.6636849232017994],,,,,,,,2018_Jun_10_1212,60.0197972651,sequenceLearningTask,001,110,
min1.png,min2.png,min3.png,min4.png,allBlank.png,,['num_4'],,,,,,,,,,0,5,5,5,,,,,,,,,,,,,,,,,['num_4'],6,0.0540028717369,1,['num_4'],0,[0.9577517947182059],,,,,,,,2018_Jun_10_1212,60.0197972651,sequenceLearningTask,001,110,
min1.png,min2.png,min3.png,min4.png,allBlank.png,,['num_1'],,,,,,,,,,0,5,5,5,,,,,,,,,,,,,,,,,['num_1'],6,0.0618096410763,1,['num_1'],0,[0.7989796923939139],,,,,,,,2018_Jun_10_1212,60.0197972651,sequenceLearningTask,001,110,
min1.png,min2.png,min3.png,min4.png,allBlank.png,,['num_0'],,,,,,,,,,0,5,5,5,,,,,,,,,,,,,,,,,['num_0'],6,0.0570190770086,1,['num_0'],0,[0.8533973332960159],,,,,,,,2018_Jun_10_1212,60.0197972651,sequenceLearningTask,001,110,
min1.png,min2.png,min3.png,min4.png,allBlank.png,,['num_7'],,,,,,,,,,0,6,6,6,,,,,,,,,,,,,,,,,['num_7'],7,0.0613202052191,1,['num_7'],0,[1.6812562050763518],,,,,,,,2018_Jun_10_1212,60.0197972651,sequenceLearningTask,001,110,
min1.png,min2.png,min3.png,min4.png,allBlank.png,,['num_1'],,,,,,,,,,0,6,6,6,,,,,,,,,,,,,,,,,['num_1'],7,0.0539216408506,1,['num_1'],0,[1.7069370257668197],,,,,,,,2018_Jun_10_1212,60.0197972651,sequenceLearningTask,001,110,
min1.png,min2.png,min3.png,min4.png,allBlank.png,,['num_4'],,,,,,,,,,0,6,6,6,,,,,,,,,,,,,,,,,['num_4'],7,0.0551889231429,1,['num_4'],0,[0.9225111794658005],,,,,,,,2018_Jun_10_1212,60.0197972651,sequenceLearningTask,001,110,
min1.png,min2.png,min3.png,min4.png,allBlank.png,,['num_0'],,,,,,,,,,0,6,6,6,,,,,,,,,,,,,,,,,['num_0'],7,0.0599803077057,1,['num_0'],0,[0.1335044102743268],,,,,,,,2018_Jun_10_1212,60.0197972651,sequenceLearningTask,001,110,
min1.png,min2.png,min3.png,min4.png,allBlank.png,,['num_0'],,,,,,,,,,0,6,6,6,,,,,,,,,,,,,,,,,['num_0'],7,0.052149743773,1,['num_0'],0,[0.6759704614523798],,,,,,,,2018_Jun_10_1212,60.0197972651,sequenceLearningTask,001,110,
min1.png,min2.png,min3.png,min4.png,allBlank.png,,['num_4'],,,,,,,,,,0,6,6,6,,,,,,,,,,,,,,,,,['num_4'],7,0.0599663590547,1,['num_4'],0,[0.8676098459400237],,,,,,,,2018_Jun_10_1212,60.0197972651,sequenceLearningTask,001,110,
min1.png,min2.png,min3.png,min4.png,allBlank.png,,['num_1'],,,,,,,,,,0,6,6,6,,,,,,,,,,,,,,,,,['num_1'],7,0.0399163076654,1,['num_1'],0,[0.3061374358367175],,,,,,,,2018_Jun_10_1212,60.0197972651,sequenceLearningTask,001,110,
min1.png,min2.png,min3.png,min4.png,allBlank.png,,['num_0'],,,,,,,,,,0,6,6,6,,,,,,,,,,,,,,,,,['num_0'],7,0.0619679999072,1,['num_0'],0,[0.33133743586950004],,,,,,,,2018_Jun_10_1212,60.0197972651,sequenceLearningTask,001,110,
min1.png,min2.png,min3.png,min4.png,allBlank.png,,['num_7'],,,,,,,,,,0,7,7,7,,,,,,,,,,,,,,,,,['num_7'],8,0.0410059487913,1,['num_7'],0,[0.7269764102529734],,,,,,,,2018_Jun_10_1212,60.0197972651,sequenceLearningTask,001,110,
min1.png,min2.png,min3.png,min4.png,allBlank.png,,['num_1'],,,,,,,,,,0,7,7,7,,,,,,,,,,,,,,,,,['num_1'],8,0.0505271793809,0,"['num_4', 'num_1']",0,"[0.04358687181957066, 0.6274921025615185]",,,,,,,,2018_Jun_10_1212,60.0197972651,sequenceLearningTask,001,110,
min1.png,min2.png,min3.png,min4.png,allBlank.png,,['num_4'],,,,,,,,,,0,7,7,7,,,,,,,,,,,,,,,,,['num_4'],8,0.0578383591492,0,"['num_0', 'num_4']",0,"[0.3691269743721932, 1.0854141537565738]",,,,,,,,2018_Jun_10_1212,60.0197972651,sequenceLearningTask,001,110,
min1.png,min2.png,min3.png,min4.png,allBlank.png,,['num_0'],,,,,,,,,,0,7,7,7,,,,,,,,,,,,,,,,,['num_0'],8,0.0577300512232,0,"['num_0', 'num_0']",0,"[0.00029743602499365807, 1.2349792821332812]",,,,,,,,2018_Jun_10_1212,60.0197972651,sequenceLearningTask,001,110,
min1.png,min2.png,min3.png,min4.png,allBlank.png,,['num_0'],,,,,,,,,,0,7,7,7,,,,,,,,,,,,,,,,,['num_0'],8,0.0595823589247,1,['num_0'],0,[0.7190555897541344],,,,,,,,2018_Jun_10_1212,60.0197972651,sequenceLearningTask,001,110,
min1.png,min2.png,min3.png,min4.png,allBlank.png,,['num_4'],,,,,,,,,,0,7,7,7,,,,,,,,,,,,,,,,,['num_4'],8,0.0477973332163,1,['num_4'],0,[0.9957439999561757],,,,,,,,2018_Jun_10_1212,60.0197972651,sequenceLearningTask,001,110,
min1.png,min2.png,min3.png,min4.png,allBlank.png,,['num_1'],,,,,,,,,,0,7,7,7,,,,,,,,,,,,,,,,,['num_1'],8,0.0551688205451,1,['num_1'],0,[0.7402055384591222],,,,,,,,2018_Jun_10_1212,60.0197972651,sequenceLearningTask,001,110,
min1.png,min2.png,min3.png,min4.png,allBlank.png,,['num_0'],,,,,,,,,,0,7,7,7,,,,,,,,,,,,,,,,,['num_0'],8,0.0508964103647,1,['num_0'],0,[0.5931790769100189],,,,,,,,2018_Jun_10_1212,60.0197972651,sequenceLearningTask,001,110,
min1.png,min2.png,min3.png,min4.png,allBlank.png,,['num_7'],,,,,,,,,,0,8,8,8,,,,,,,,,,,,,,,,,['num_7'],9,0.0536303587724,1,['num_7'],0,[0.9722449230030179],,,,,,,,2018_Jun_10_1212,60.0197972651,sequenceLearningTask,001,110,
min1.png,min2.png,min3.png,min4.png,allBlank.png,,['num_1'],,,,,,,,,,0,8,8,8,,,,,,,,,,,,,,,,,['num_1'],9,0.0540898460895,1,['num_1'],0,[0.8231031794566661],,,,,,,,2018_Jun_10_1212,60.0197972651,sequenceLearningTask,001,110,
min1.png,min2.png,min3.png,min4.png,allBlank.png,,['num_4'],,,,,,,,,,0,8,8,8,,,,,,,,,,,,,,,,,['num_4'],9,0.0478231795132,1,['num_4'],0,[0.8969185641035438],,,,,,,,2018_Jun_10_1212,60.0197972651,sequenceLearningTask,001,110,
min1.png,min2.png,min3.png,min4.png,allBlank.png,,['num_0'],,,,,,,,,,0,8,8,8,,,,,,,,,,,,,,,,,['num_0'],9,0.0378810255788,0,"['num_0', 'num_0']",0,"[0.0004968205466866493, 0.591100717894733]",,,,,,,,2018_Jun_10_1212,60.0197972651,sequenceLearningTask,001,110,
min1.png,min2.png,min3.png,min4.png,allBlank.png,,['num_0'],,,,,,,,,,0,8,8,8,,,,,,,,,,,,,,,,,['num_0'],9,0.060229743598,1,['num_0'],0,[0.816955076996237],,,,,,,,2018_Jun_10_1212,60.0197972651,sequenceLearningTask,001,110,
min1.png,min2.png,min3.png,min4.png,allBlank.png,,['num_4'],,,,,,,,,,0,8,8,8,,,,,,,,,,,,,,,,,['num_4'],9,0.0479339486919,1,['num_4'],0,[0.8472291282378137],,,,,,,,2018_Jun_10_1212,60.0197972651,sequenceLearningTask,001,110,
min1.png,min2.png,min3.png,min4.png,allBlank.png,,['num_1'],,,,,,,,,,0,8,8,8,,,,,,,,,,,,,,,,,['num_1'],9,0.0666473845486,1,['num_1'],0,[0.3604943589307368],,,,,,,,2018_Jun_10_1212,60.0197972651,sequenceLearningTask,001,110,
min1.png,min2.png,min3.png,min4.png,allBlank.png,,['num_0'],,,,,,,,,,0,8,8,8,,,,,,,,,,,,,,,,,['num_0'],9,0.0624024616554,0,"['num_0', 'num_0']",0,"[0.0007979488000273705, 0.7806137437000871]",,,,,,,,2018_Jun_10_1212,60.0197972651,sequenceLearningTask,001,110,
min1.png,min2.png,min3.png,min4.png,allBlank.png,,['num_7'],,,,,,,,,,0,9,9,9,,,,,,,,,,,,,,,,,['num_7'],10,0.0481665639672,1,['num_7'],0,[0.5621013334020972],,,,,,,,2018_Jun_10_1212,60.0197972651,sequenceLearningTask,001,110,
min1.png,min2.png,min3.png,min4.png,allBlank.png,,['num_1'],,,,,,,,,,0,9,9,9,,,,,,,,,,,,,,,,,['num_1'],10,0.0602342563216,1,['num_1'],0,[0.46709743584506214],,,,,,,,2018_Jun_10_1212,60.0197972651,sequenceLearningTask,001,110,
min1.png,min2.png,min3.png,min4.png,allBlank.png,,['num_4'],,,,,,,,,,0,9,9,9,,,,,,,,,,,,,,,,,['num_4'],10,0.0579134358559,0,"['num_0', 'num_4']",0,"[0.1694289231672883, 0.8855228717438877]",,,,,,,,2018_Jun_10_1212,60.0197972651,sequenceLearningTask,001,110,
min1.png,min2.png,min3.png,min4.png,allBlank.png,,['num_0'],,,,,,,,,,0,9,9,9,,,,,,,,,,,,,,,,,['num_0'],10,0.0604295386001,0,"['num_0', 'num_0']",0,"[0.0008012307807803154, 0.8154941538814455]",,,,,,,,2018_Jun_10_1212,60.0197972651,sequenceLearningTask,001,110,
min1.png,min2.png,min3.png,min4.png,allBlank.png,,['num_0'],,,,,,,,,,0,9,9,9,,,,,,,,,,,,,,,,,['num_0'],10,0.0533271795139,1,['num_0'],0,[0.6250761025585234],,,,,,,,2018_Jun_10_1212,60.0197972651,sequenceLearningTask,001,110,
min1.png,min2.png,min3.png,min4.png,allBlank.png,,['num_4'],,,,,,,,,,0,9,9,9,,,,,,,,,,,,,,,,,['num_4'],10,0.0569825640414,0,"['num_7', 'num_4']",0,"[0.9539811280556023, 1.588045948650688]",,,,,,,,2018_Jun_10_1212,60.0197972651,sequenceLearningTask,001,110,
min1.png,min2.png,min3.png,min4.png,allBlank.png,,['num_1'],,,,,,,,,,0,9,9,9,,,,,,,,,,,,,,,,,['num_1'],10,0.0525751793757,1,['num_1'],0,[0.6084693332668394],,,,,,,,2018_Jun_10_1212,60.0197972651,sequenceLearningTask,001,110,
min1.png,min2.png,min3.png,min4.png,allBlank.png,,['num_0'],,,,,,,,,,0,9,9,9,,,,,,,,,,,,,,,,,['num_0'],10,0.0611827692483,1,['num_0'],0,[0.7159478974062949],,,,,,,,2018_Jun_10_1212,60.0197972651,sequenceLearningTask,001,110,
min1.png,min2.png,min3.png,min4.png,allBlank.png,,,,,,,,,,,,0,9,9,9,,,,,0,-1,-1,0,,,,,,,,,,,,,,,,,,,,,,,2018_Jun_10_1212,60.0197972651,sequenceLearningTask,001,110,
min1.png,min2.png,min3.png,min4.png,allBlank.png,,,,,,,,,,,,0,9,9,9,,,,,0,-1,-1,0,,,,,,,,,,,,,,,,,['1'],,,,,,2018_Jun_10_1212,60.0197972651,sequenceLearningTask,001,110,
min1.png,min2.png,min3.png,min4.png,allBlank.png,,,,,,,,,,,,0,9,9,9,,,,,0,-1,-1,0,,,,,,,,,,,,,,,,,['1'],,,,,,2018_Jun_10_1212,60.0197972651,sequenceLearningTask,001,110,
min1.png,min2.png,min3.png,min4.png,allBlank.png,,,,,,,,,,,,0,9,9,9,,,,,0,-1,-1,0,,,,,,,,,,,,,,,,,['2'],,,,,,2018_Jun_10_1212,60.0197972651,sequenceLearningTask,001,110,
min1.png,min2.png,min3.png,min4.png,allBlank.png,,,,,,,,,,,,0,9,9,9,,,,,0,-1,-1,0,,,,,,,,,,,,,,,,,['2'],,,,,,2018_Jun_10_1212,60.0197972651,sequenceLearningTask,001,110,
min1.png,min2.png,min3.png,min4.png,allBlank.png,,,,,,,,0,0,0,0,0,9,9,9,,,,,0,-1,-1,0,,,,,,,,,,,,,,,,,,return,3.24325415399,,,,2018_Jun_10_1212,60.0197972651,sequenceLearningTask,001,110,
min1.png,min2.png,min3.png,min4.png,allBlank.png,,['3'],,,,,,,,,,0,9,9,9,,,,,0,-1,-1,0,0,0,0,0,,,,,['3'],1,,1,,,,,,,,,['3'],11.8049095385,2018_Jun_10_1212,60.0197972651,sequenceLearningTask,001,110,
min1.png,min2.png,min3.png,min4.png,allBlank.png,,['2'],,,,,,,,,,0,9,9,9,,,,,0,-1,-1,0,0,0,0,0,,,,,['2'],1,,1,,,,,,,,,['2'],6.29918687162,2018_Jun_10_1212,60.0197972651,sequenceLearningTask,001,110,
min1.png,min2.png,min3.png,min4.png,allBlank.png,,['4'],,,,,,,,,,0,9,9,9,,,,,0,-1,-1,0,0,0,0,0,,,,,['4'],1,,1,,,,,,,,,['4'],3.63277702569,2018_Jun_10_1212,60.0197972651,sequenceLearningTask,001,110,
min1.png,min2.png,min3.png,min4.png,allBlank.png,,['4'],,,,,,,,,,0,9,9,9,,,,,0,-1,-1,0,0,0,0,0,,,,,['4'],1,,0,,,,,,,,,['1'],5.23221292323,2018_Jun_10_1212,60.0197972651,sequenceLearningTask,001,110,
min1.png,min2.png,min3.png,min4.png,allBlank.png,,['2'],,,,,,,,,,0,9,9,9,,,,,0,-1,-1,0,0,0,0,0,,,,,['2'],1,,0,,,,,,,,,['1'],4.39929805137,2018_Jun_10_1212,60.0197972651,sequenceLearningTask,001,110,
min1.png,min2.png,min3.png,min4.png,allBlank.png,,['3'],,,,,,,,,,0,9,9,9,,,,,0,-1,-1,0,0,0,0,0,,,,,['3'],1,,0,,,,,,,,,['2'],3.29879097431,2018_Jun_10_1212,60.0197972651,sequenceLearningTask,001,110,
min1.png,min2.png,min3.png,min4.png,allBlank.png,,['4'],,,,,,,,,,0,9,9,9,,,,,0,-1,-1,0,0,0,0,0,,,,,['4'],1,,1,,,,,,,,,['4'],5.28172266646,2018_Jun_10_1212,60.0197972651,sequenceLearningTask,001,110,
min1.png,min2.png,min3.png,min4.png,allBlank.png,,['2'],,,,,,,,,,0,9,9,9,,,,,0,-1,-1,0,0,0,0,0,,,,,['2'],1,,0,,,,,,,,,['4'],3.23239179491,2018_Jun_10_1212,60.0197972651,sequenceLearningTask,001,110,
min1.png,min2.png,min3.png,min4.png,allBlank.png,,['1'],,,,,,,,,,0,9,9,9,,,,,0,-1,-1,0,0,0,0,0,,,,,['1'],1,,0,,,,,,,,,['3'],8.11603733338,2018_Jun_10_1212,60.0197972651,sequenceLearningTask,001,110,
min1.png,min2.png,min3.png,min4.png,allBlank.png,,['1'],,,,,,,,,,0,9,9,9,,,,,0,-1,-1,0,0,0,0,0,0,0,0,0,['1'],1,,1,,,,,,,,,['1'],18.1172155899,2018_Jun_10_1212,60.0197972651,sequenceLearningTask,001,110,
min1.png,min2.png,min3.png,min4.png,allBlank.png,,['3'],,,,,,,,,,0,9,9,9,,,,,0,-1,-1,0,0,0,0,0,0,0,0,0,['3'],1,,1,,,,,,,,,['3'],12.9948225641,2018_Jun_10_1212,60.0197972651,sequenceLearningTask,001,110,
