pawPatrol1,pawPatrol2,pawPatrol3,pawPatrol4,blank,randomPaw,correctKeyPress,allowableKey,correctKey,correctKeyPressNum,trials.thisRepN,trials.thisTrialN,trials.thisN,trials.thisIndex,trials_3.thisRepN,trials_3.thisTrialN,trials_3.thisN,trials_3.thisIndex,trials_2.thisRepN,trials_2.thisTrialN,trials_2.thisN,trials_2.thisIndex,trials_questions.thisRepN,trials_questions.thisTrialN,trials_questions.thisN,trials_questions.thisIndex,correctKey,repetitionNumber,stimulusPresent.t,trialCorrect,key_resp_9.keys,key_resp_9.corr,key_resp_9.rt,keyRespCorrect,date,frameRate,expName,session,participant,
min1.png,min2.png,min3.png,min4.png,allBlank.png,,,,['num_7'],,,,,,0,0,0,0,,,,,,,,,['num_7'],1,0.116356512881,0,"['num_0', 'num_7']",0,"[0.0004722051089629531, 0.6805042050546035]",,2018_Jun_03_1700,60.049369822,sequenceLearningTask,001,118,
min1.png,min2.png,min3.png,min4.png,allBlank.png,,,,['num_1'],,,,,,0,0,0,0,,,,,,,,,['num_1'],1,0.0693919999758,1,['num_1'],0,[0.624731897492893],,2018_Jun_03_1700,60.049369822,sequenceLearningTask,001,118,
min1.png,min2.png,min3.png,min4.png,allBlank.png,,,,['num_4'],,,,,,0,0,0,0,,,,,,,,,['num_4'],1,0.0662724102149,1,['num_4'],0,[0.6291208205511793],,2018_Jun_03_1700,60.049369822,sequenceLearningTask,001,118,
min1.png,min2.png,min3.png,min4.png,allBlank.png,,,,['num_0'],,,,,,0,0,0,0,,,,,,,,,['num_0'],1,0.0695450257044,1,['num_0'],0,[0.5746736410073936],,2018_Jun_03_1700,60.049369822,sequenceLearningTask,001,118,
min1.png,min2.png,min3.png,min4.png,allBlank.png,,,,['num_0'],,,,,,0,0,0,0,,,,,,,,,['num_0'],1,0.0541870768648,1,['num_0'],0,[0.6077148717595264],,2018_Jun_03_1700,60.049369822,sequenceLearningTask,001,118,
min1.png,min2.png,min3.png,min4.png,allBlank.png,,,,['num_4'],,,,,,0,0,0,0,,,,,,,,,['num_4'],1,0.0588389743352,1,['num_4'],0,[0.7688935385085642],,2018_Jun_03_1700,60.049369822,sequenceLearningTask,001,118,
min1.png,min2.png,min3.png,min4.png,allBlank.png,,,,['num_1'],,,,,,0,0,0,0,,,,,,,,,['num_1'],1,0.0550564102596,1,['num_1'],0,[0.6223597947973758],,2018_Jun_03_1700,60.049369822,sequenceLearningTask,001,118,
min1.png,min2.png,min3.png,min4.png,allBlank.png,,,,['num_0'],,,,,,0,0,0,0,,,,,,,,,['num_0'],1,0.0503655384528,0,"['num_1', 'num_0']",0,"[0.49488451273646206, 1.6612213333137333]",,2018_Jun_03_1700,60.049369822,sequenceLearningTask,001,118,
min1.png,min2.png,min3.png,min4.png,allBlank.png,,,,['num_7'],,,,,,0,1,1,1,,,,,,,,,['num_7'],2,0.0619786666939,1,['num_7'],0,[0.44677087175659835],,2018_Jun_03_1700,60.049369822,sequenceLearningTask,001,118,
min1.png,min2.png,min3.png,min4.png,allBlank.png,,,,['num_1'],,,,,,0,1,1,1,,,,,,,,,['num_1'],2,0.0593161025317,1,['num_1'],0,[0.5522281025769189],,2018_Jun_03_1700,60.049369822,sequenceLearningTask,001,118,
min1.png,min2.png,min3.png,min4.png,allBlank.png,,,,['num_4'],,,,,,0,1,1,1,,,,,,,,,['num_4'],2,0.058620307711,1,['num_4'],0,[0.5518785641761497],,2018_Jun_03_1700,60.049369822,sequenceLearningTask,001,118,
min1.png,min2.png,min3.png,min4.png,allBlank.png,,,,['num_0'],,,,,,0,1,1,1,,,,,,,,,['num_0'],2,0.0577595897485,1,['num_0'],0,[0.452864000108093],,2018_Jun_03_1700,60.049369822,sequenceLearningTask,001,118,
min1.png,min2.png,min3.png,min4.png,allBlank.png,,,,['num_0'],,,,,,0,1,1,1,,,,,,,,,['num_0'],2,0.046835282119,1,['num_0'],0,[0.5297452308004722],,2018_Jun_03_1700,60.049369822,sequenceLearningTask,001,118,
min1.png,min2.png,min3.png,min4.png,allBlank.png,,,,['num_4'],,,,,,0,1,1,1,,,,,,,,,['num_4'],2,0.0583003076026,1,['num_4'],0,[0.6859565128106624],,2018_Jun_03_1700,60.049369822,sequenceLearningTask,001,118,
min1.png,min2.png,min3.png,min4.png,allBlank.png,,,,['num_1'],,,,,,0,1,1,1,,,,,,,,,['num_1'],2,0.0556090256432,1,['num_1'],0,[0.4052836924092844],,2018_Jun_03_1700,60.049369822,sequenceLearningTask,001,118,
min1.png,min2.png,min3.png,min4.png,allBlank.png,,,,['num_0'],,,,,,0,1,1,1,,,,,,,,,['num_0'],2,0.0601177435601,1,['num_0'],0,[0.616633846075274],,2018_Jun_03_1700,60.049369822,sequenceLearningTask,001,118,
min1.png,min2.png,min3.png,min4.png,allBlank.png,,,,['num_7'],,,,,,0,2,2,2,,,,,,,,,['num_7'],3,0.0532402051613,1,['num_7'],0,[0.5390674871159717],,2018_Jun_03_1700,60.049369822,sequenceLearningTask,001,118,
min1.png,min2.png,min3.png,min4.png,allBlank.png,,,,['num_1'],,,,,,0,2,2,2,,,,,,,,,['num_1'],3,0.0583532307064,1,['num_1'],0,[0.8020968205528334],,2018_Jun_03_1700,60.049369822,sequenceLearningTask,001,118,
min1.png,min2.png,min3.png,min4.png,allBlank.png,,,,['num_4'],,,,,,0,2,2,2,,,,,,,,,['num_4'],3,0.0530523076886,1,['num_4'],0,[0.7752668717876077],,2018_Jun_03_1700,60.049369822,sequenceLearningTask,001,118,
min1.png,min2.png,min3.png,min4.png,allBlank.png,,,,['num_0'],,,,,,0,2,2,2,,,,,,,,,['num_0'],3,0.0584763077786,1,['num_0'],0,[0.5865497435443103],,2018_Jun_03_1700,60.049369822,sequenceLearningTask,001,118,
min1.png,min2.png,min3.png,min4.png,allBlank.png,,,,['num_0'],,,,,,0,2,2,2,,,,,,,,,['num_0'],3,0.0544791794382,1,['num_0'],0,[0.47372553846798837],,2018_Jun_03_1700,60.049369822,sequenceLearningTask,001,118,
min1.png,min2.png,min3.png,min4.png,allBlank.png,,,,['num_4'],,,,,,0,2,2,2,,,,,,,,,['num_4'],3,0.0510810256237,1,['num_4'],0,[0.995263589778915],,2018_Jun_03_1700,60.049369822,sequenceLearningTask,001,118,
min1.png,min2.png,min3.png,min4.png,allBlank.png,,,,['num_1'],,,,,,0,2,2,2,,,,,,,,,['num_1'],3,0.0540471795248,1,['num_1'],0,[1.190953025710769],,2018_Jun_03_1700,60.049369822,sequenceLearningTask,001,118,
min1.png,min2.png,min3.png,min4.png,allBlank.png,,,,['num_0'],,,,,,0,2,2,2,,,,,,,,,['num_0'],3,0.0617493333993,1,['num_0'],0,[0.4828352819895372],,2018_Jun_03_1700,60.049369822,sequenceLearningTask,001,118,
min1.png,min2.png,min3.png,min4.png,allBlank.png,,,,['num_7'],,,,,,0,3,3,3,,,,,,,,,['num_7'],4,0.0506112821167,1,['num_7'],0,[0.5754276923835278],,2018_Jun_03_1700,60.049369822,sequenceLearningTask,001,118,
min1.png,min2.png,min3.png,min4.png,allBlank.png,,,,['num_1'],,,,,,0,3,3,3,,,,,,,,,['num_1'],4,0.0514026667224,1,['num_1'],0,[1.0607003077166155],,2018_Jun_03_1700,60.049369822,sequenceLearningTask,001,118,
min1.png,min2.png,min3.png,min4.png,allBlank.png,,,,['num_4'],,,,,,0,3,3,3,,,,,,,,,['num_4'],4,0.0525956923375,0,"['num_7', 'num_4']",0,"[0.6419589744182304, 1.3089238974498585]",,2018_Jun_03_1700,60.049369822,sequenceLearningTask,001,118,
min1.png,min2.png,min3.png,min4.png,allBlank.png,,,,['num_0'],,,,,,0,3,3,3,,,,,,,,,['num_0'],4,0.0533493333496,0,"['num_7', 'num_7', 'num_7', 'num_7', 'num_7', 'num_7', 'num_7', 'num_0']",0,"[0.0009858461562544107, 0.49110523075796664, 0.7238371282583103, 0.9569645128212869, 1.1575425640912727, 1.4068738461937755, 1.6245247179176658, 2.7402921025641263]",,2018_Jun_03_1700,60.049369822,sequenceLearningTask,001,118,
min1.png,min2.png,min3.png,min4.png,allBlank.png,,,,['num_0'],,,,,,0,3,3,3,,,,,,,,,['num_0'],4,0.0524877948919,1,['num_0'],0,[0.6090432819910347],,2018_Jun_03_1700,60.049369822,sequenceLearningTask,001,118,
min1.png,min2.png,min3.png,min4.png,allBlank.png,,,,['num_4'],,,,,,0,3,3,3,,,,,,,,,['num_4'],4,0.0536143589998,0,"['num_1', 'num_4']",0,"[1.3399011282017455, 2.0743647179333493]",,2018_Jun_03_1700,60.049369822,sequenceLearningTask,001,118,
min1.png,min2.png,min3.png,min4.png,allBlank.png,,,,['num_1'],,,,,,0,3,3,3,,,,,,,,,['num_1'],4,0.0560426666634,1,['num_1'],0,[0.6881702564423904],,2018_Jun_03_1700,60.049369822,sequenceLearningTask,001,118,
min1.png,min2.png,min3.png,min4.png,allBlank.png,,,,['num_0'],,,,,,0,3,3,3,,,,,,,,,['num_0'],4,0.0482022564393,0,"['num_4', 'num_1', 'num_4', 'num_1', 'num_0']",0,"[0.41327958973124623, 0.44604676915332675, 0.6963446153094992, 1.0130789743270725]",,2018_Jun_03_1700,60.049369822,sequenceLearningTask,001,118,
min1.png,min2.png,min3.png,min4.png,allBlank.png,,,,['num_7'],,,,,,0,4,4,4,,,,,,,,,['num_7'],5,0.0574998974334,0,"['num_1', 'num_1', 'num_0', 'num_1', 'num_7']",0,"[0.0006285128183662891, 0.18456902564503253, 0.20132266671862453, 0.5344443076755852]",,2018_Jun_03_1700,60.049369822,sequenceLearningTask,001,118,
min1.png,min2.png,min3.png,min4.png,allBlank.png,,,,['num_1'],,,,,,0,4,4,4,,,,,,,,,['num_1'],5,0.0502276923507,0,"['num_4', 'num_1', 'num_7', 'num_4', 'num_0', 'num_1']",0,"[0.000534564140252769, 0.1616147692548111, 0.17818420508410782, 0.19482871796935797]",,2018_Jun_03_1700,60.049369822,sequenceLearningTask,001,118,
min1.png,min2.png,min3.png,min4.png,allBlank.png,,,,['num_4'],,,,,,0,4,4,4,,,,,,,,,['num_4'],5,0.0498715897556,0,"['num_7', 'num_4', 'num_1', 'num_4']",0,"[0.00032615382224321365, 0.14483487186953425]",,2018_Jun_03_1700,60.049369822,sequenceLearningTask,001,118,
min1.png,min2.png,min3.png,min4.png,allBlank.png,,,,['num_0'],,,,,,0,4,4,4,,,,,,,,,['num_0'],5,0.0536336409859,0,"['num_7', 'num_0', 'num_7', 'num_0']",0,"[0.0004964101826772094, 0.10738871793728322]",,2018_Jun_03_1700,60.049369822,sequenceLearningTask,001,118,
min1.png,min2.png,min3.png,min4.png,allBlank.png,,,,['num_0'],,,,,,0,4,4,4,,,,,,,,,['num_0'],5,0.0505296409829,0,"['num_4', 'num_1', 'num_1', 'num_7', 'num_0']",0,"[0.0003085128264501691, 0.11024820513557643, 0.32770174357574433, 0.46074502565898]",,2018_Jun_03_1700,60.049369822,sequenceLearningTask,001,118,
min1.png,min2.png,min3.png,min4.png,allBlank.png,,,,['num_4'],,,,,,0,4,4,4,,,,,,,,,['num_4'],5,0.0534490257269,0,"['num_4', 'num_1', 'num_7', 'num_4', 'num_4', 'num_1', 'num_7', 'num_4', 'num_1', 'num_7', 'num_0', 'num_1', 'num_4']",0,"[0.0006880000000819564, 0.006823384668678045, 0.27460430772043765, 0.4744500513188541, 0.7094830769347027, 0.8914363076910377, 1.0574978461954743, 1.123646769206971, 1.1743565128417686]",,2018_Jun_03_1700,60.049369822,sequenceLearningTask,001,118,
min1.png,min2.png,min3.png,min4.png,allBlank.png,,,,['num_1'],,,,,,0,4,4,4,,,,,,,,,['num_1'],5,0.0588717948413,0,"['num_7', 'num_1', 'num_4', 'num_7', 'num_0', 'num_1']",0,"[0.0006658461643382907, 0.032781538437120616, 0.451555281993933, 0.8685423588613048, 0.9180639999685809]",,2018_Jun_03_1700,60.049369822,sequenceLearningTask,001,118,
min1.png,min2.png,min3.png,min4.png,allBlank.png,,,,['num_0'],,,,,,0,4,4,4,,,,,,,,,['num_0'],5,0.0511704614619,0,"['num_4', 'num_7', 'num_0']",0,"[0.0003290255554020405, 0.12826871790457517]",,2018_Jun_03_1700,60.049369822,sequenceLearningTask,001,118,
min1.png,min2.png,min3.png,min4.png,allBlank.png,,,,['num_7'],,,,,,0,5,5,5,,,,,,,,,['num_7'],6,0.0530322050909,0,"['num_1', 'num_4', 'num_7', 'num_1', 'num_4', 'num_7']",0,"[0.0006929230876266956, 0.054625230841338634, 0.2564385641599074]",,2018_Jun_03_1700,60.049369822,sequenceLearningTask,001,118,
min1.png,min2.png,min3.png,min4.png,allBlank.png,,,,['num_1'],,,,,,0,5,5,5,,,,,,,,,['num_1'],6,0.051805128227,0,"['num_1', 'num_7', 'num_7', 'num_1']",0,"[0.00039056409150362015, 0.14143179485108703, 0.3250822564586997]",,2018_Jun_03_1700,60.049369822,sequenceLearningTask,001,118,
min1.png,min2.png,min3.png,min4.png,allBlank.png,,,,['num_4'],,,,,,0,5,5,5,,,,,,,,,['num_4'],6,0.057783384691,0,"['num_1', 'num_7', 'num_4', 'num_7', 'num_4']",0,"[0.00027815380599349737, 0.20368205127306283, 0.2199290256248787]",,2018_Jun_03_1700,60.049369822,sequenceLearningTask,001,118,
min1.png,min2.png,min3.png,min4.png,allBlank.png,,,,['num_0'],,,,,,0,5,5,5,,,,,,,,,['num_0'],6,0.056480410276,0,"['num_7', 'num_1', 'num_7', 'num_7', 'num_0']",0,"[0.0003003077581524849, 0.18741825642064214, 0.25456574361305684, 0.5541078974492848, 0.687895794864744]",,2018_Jun_03_1700,60.049369822,sequenceLearningTask,001,118,
min1.png,min2.png,min3.png,min4.png,allBlank.png,,,,['num_0'],,,,,,0,5,5,5,,,,,,,,,['num_0'],6,0.0595343590248,0,"['num_7', 'num_0']",0,"[0.152729025692679, 0.6013579487334937]",,2018_Jun_03_1700,60.049369822,sequenceLearningTask,001,118,
min1.png,min2.png,min3.png,min4.png,allBlank.png,,,,['num_4'],,,,,,0,5,5,5,,,,,,,,,['num_4'],6,0.0522613333305,0,"['num_7', 'num_0', 'num_0', 'num_4', 'num_1', 'num_7', 'num_0', 'num_7', 'num_4']",0,"[0.073928615427576, 0.1074629743816331, 0.15746502566616982, 0.34160492313094437, 0.3913522051880136, 0.5082194871501997, 1.840372102567926, 2.2246047179214656]",,2018_Jun_03_1700,60.049369822,sequenceLearningTask,001,118,
min1.png,min2.png,min3.png,min4.png,allBlank.png,,,,['num_1'],,,,,,0,5,5,5,,,,,,,,,['num_1'],6,0.0533887179336,1,['num_1'],0,[0.6417517948430032],,2018_Jun_03_1700,60.049369822,sequenceLearningTask,001,118,
min1.png,min2.png,min3.png,min4.png,allBlank.png,,,,['num_0'],,,,,,0,5,5,5,,,,,,,,,['num_0'],6,0.0540348718641,1,['num_0'],0,[0.5904570256825536],,2018_Jun_03_1700,60.049369822,sequenceLearningTask,001,118,
min1.png,min2.png,min3.png,min4.png,allBlank.png,,,,['num_7'],,,,,,0,6,6,6,,,,,,,,,['num_7'],7,0.0512455385178,1,['num_7'],0,[0.47608369239605963],,2018_Jun_03_1700,60.049369822,sequenceLearningTask,001,118,
min1.png,min2.png,min3.png,min4.png,allBlank.png,,,,['num_1'],,,,,,0,6,6,6,,,,,,,,,['num_1'],7,0.0557928205235,1,['num_1'],0,[0.5904315897496417],,2018_Jun_03_1700,60.049369822,sequenceLearningTask,001,118,
min1.png,min2.png,min3.png,min4.png,allBlank.png,,,,['num_4'],,,,,,0,6,6,6,,,,,,,,,['num_4'],7,0.0536541538313,1,['num_4'],0,[0.3903909743530676],,2018_Jun_03_1700,60.049369822,sequenceLearningTask,001,118,
min1.png,min2.png,min3.png,min4.png,allBlank.png,,,,['num_0'],,,,,,0,6,6,6,,,,,,,,,['num_0'],7,0.0555602051318,1,['num_0'],0,[0.33952328201849014],,2018_Jun_03_1700,60.049369822,sequenceLearningTask,001,118,
min1.png,min2.png,min3.png,min4.png,allBlank.png,,,,['num_0'],,,,,,0,6,6,6,,,,,,,,,['num_0'],7,0.0626482050866,0,"['num_1', 'num_0']",0,"[0.4969542564358562, 0.5949300513602793]",,2018_Jun_03_1700,60.049369822,sequenceLearningTask,001,118,
min1.png,min2.png,min3.png,min4.png,allBlank.png,,,,['num_4'],,,,,,0,6,6,6,,,,,,,,,['num_4'],7,0.0631409230409,1,['num_4'],0,[0.7810305641032755],,2018_Jun_03_1700,60.049369822,sequenceLearningTask,001,118,
min1.png,min2.png,min3.png,min4.png,allBlank.png,,,,['num_1'],,,,,,0,6,6,6,,,,,,,,,['num_1'],7,0.0544816410402,0,"['num_4', 'num_1', 'num_1']",0,"[0.4565599999623373, 1.0575027691666037]",,2018_Jun_03_1700,60.049369822,sequenceLearningTask,001,118,
min1.png,min2.png,min3.png,min4.png,allBlank.png,,,,['num_0'],,,,,,0,6,6,6,,,,,,,,,['num_0'],7,0.0589616410434,0,"['num_1', 'num_1', 'num_0']",0,"[1.0510305640054867, 1.918801230727695, 2.2172939486335963]",,2018_Jun_03_1700,60.049369822,sequenceLearningTask,001,118,
min1.png,min2.png,min3.png,min4.png,allBlank.png,,,,['num_7'],,,,,,0,7,7,7,,,,,,,,,['num_7'],8,0.0516820512712,0,"['num_4', 'num_1', 'num_7']",0,"[0.35801600001286715, 0.9073230769718066]",,2018_Jun_03_1700,60.049369822,sequenceLearningTask,001,118,
min1.png,min2.png,min3.png,min4.png,allBlank.png,,,,['num_1'],,,,,,0,7,7,7,,,,,,,,,['num_1'],8,0.0510121026309,0,"['num_7', 'num_1']",0,"[0.000737230759114027, 0.25973456411156803]",,2018_Jun_03_1700,60.049369822,sequenceLearningTask,001,118,
min1.png,min2.png,min3.png,min4.png,allBlank.png,,,,['num_4'],,,,,,0,7,7,7,,,,,,,,,['num_4'],8,0.0671905641211,0,"['num_0', 'num_7', 'num_4', 'num_1', 'num_7', 'num_0', 'num_4', 'num_1', 'num_7', 'num_0', 'num_4']",0,"[0.00036800000816583633, 0.0007946667028591037, 0.04053784615825862, 0.1735643077408895, 0.3233903590589762, 0.3399085128912702]",,2018_Jun_03_1700,60.049369822,sequenceLearningTask,001,118,
min1.png,min2.png,min3.png,min4.png,allBlank.png,,,,['num_0'],,,,,,0,7,7,7,,,,,,,,,['num_0'],8,0.0528541537933,0,"['num_1', 'num_1', 'num_7', 'num_4', 'num_4', 'num_1', 'num_7', 'num_4', 'num_1', 'num_0']",0,"[0.0006822564173489809, 0.2583917948650196, 0.45880369225051254, 0.6918596923351288, 0.908470974303782]",,2018_Jun_03_1700,60.049369822,sequenceLearningTask,001,118,
min1.png,min2.png,min3.png,min4.png,allBlank.png,,,,['num_0'],,,,,,0,7,7,7,,,,,,,,,['num_0'],8,0.0533600000199,0,"['num_4', 'num_4', 'num_1', 'num_0']",0,"[0.0003310769097879529, 0.10791753849480301]",,2018_Jun_03_1700,60.049369822,sequenceLearningTask,001,118,
min1.png,min2.png,min3.png,min4.png,allBlank.png,,,,['num_4'],,,,,,0,7,7,7,,,,,,,,,['num_4'],8,0.0531183589483,0,"['num_4', 'num_1', 'num_4', 'num_1', 'num_1', 'num_7', 'num_4']",0,"[0.0007360000163316727, 0.09071302553638816, 0.17417846154421568, 0.30774687172379345]",,2018_Jun_03_1700,60.049369822,sequenceLearningTask,001,118,
min1.png,min2.png,min3.png,min4.png,allBlank.png,,,,['num_1'],,,,,,0,7,7,7,,,,,,,,,['num_1'],8,0.0420804102905,0,"['num_0', 'num_4', 'num_1']",0,"[0.00027405121363699436, 0.1368681025924161, 0.15248533326666802]",,2018_Jun_03_1700,60.049369822,sequenceLearningTask,001,118,
min1.png,min2.png,min3.png,min4.png,allBlank.png,,,,['num_0'],,,,,,0,7,7,7,,,,,,,,,['num_0'],8,0.0520742563531,0,"['num_7', 'num_4', 'num_1', 'num_0', 'num_7', 'num_1', 'num_4', 'num_7', 'num_1', 'num_0', 'num_4', 'num_7', 'num_1', 'num_4', 'num_0', 'num_0']",0,"[0.0005563077284023166, 0.058418461587280035, 0.22529764112550765, 0.25872820522636175, 0.4091035898309201, 0.6267269743839279, 0.642332307761535, 0.8424681025790051, 0.9918432821286842, 1.0119983589975163, 1.3420804103370756]",,2018_Jun_03_1700,60.049369822,sequenceLearningTask,001,118,
min1.png,min2.png,min3.png,min4.png,allBlank.png,,,,['num_7'],,,,,,0,8,8,8,,,,,,,,,['num_7'],9,0.0516968205338,0,"['num_0', 'num_7']",0,"[0.0002703589852899313, 0.14169723074883223]",,2018_Jun_03_1700,60.049369822,sequenceLearningTask,001,118,
min1.png,min2.png,min3.png,min4.png,allBlank.png,,,,['num_1'],,,,,,0,8,8,8,,,,,,,,,['num_1'],9,0.054688820499,0,"['num_0', 'num_0', 'num_7', 'num_0', 'num_1']",0,"[0.0005267693195492029, 0.10616902564652264, 0.1393809231230989, 0.39030276925768703, 0.5233485128264874]",,2018_Jun_03_1700,60.049369822,sequenceLearningTask,001,118,
min1.png,min2.png,min3.png,min4.png,allBlank.png,,,,['num_4'],,,,,,0,8,8,8,,,,,,,,,['num_4'],9,0.0531241026474,0,"['num_4', 'num_1', 'num_4', 'num_1', 'num_1', 'num_4']",0,"[0.00034625642001628876, 0.1424730255967006, 0.39281189744360745, 0.40910071798134595]",,2018_Jun_03_1700,60.049369822,sequenceLearningTask,001,118,
min1.png,min2.png,min3.png,min4.png,allBlank.png,,,,['num_0'],,,,,,0,8,8,8,,,,,,,,,['num_0'],9,0.0522383589996,0,"['num_4', 'num_7', 'num_7', 'num_4', 'num_7', 'num_4', 'num_7', 'num_4', 'num_7', 'num_4', 'num_7', 'num_4', 'num_7', 'num_4', 'num_7', 'num_4', 'num_0']",0,"[0.0003610256826505065, 0.0007384615018963814, 0.3926424615783617, 0.4592344615375623, 0.6585961024975404, 0.6920607179636136, 0.8926203076262027, 1.226482461555861, 1.5585202050860971, 1.8278408205369487, 2.1112447179621086, 2.341679589706473]",,2018_Jun_03_1700,60.049369822,sequenceLearningTask,001,118,
min1.png,min2.png,min3.png,min4.png,allBlank.png,,,,['num_0'],,,,,,0,8,8,8,,,,,,,,,['num_0'],9,0.0671950768447,0,"['num_0', 'num_4', 'num_1', 'num_1', 'num_4', 'num_0']",0,"[0.0003372307401150465, 0.0008094358490779996, 0.07738953840453178, 0.3604114871704951, 0.4439704614924267, 0.7100988717284054]",,2018_Jun_03_1700,60.049369822,sequenceLearningTask,001,118,
min1.png,min2.png,min3.png,min4.png,allBlank.png,,,,['num_4'],,,,,,0,8,8,8,,,,,,,,,['num_4'],9,0.0579130256083,0,"['num_0', 'num_0', 'num_1', 'num_4']",0,"[0.0003421539440751076, 0.13684266665950418, 0.23696410260163248, 0.45349825639277697]",,2018_Jun_03_1700,60.049369822,sequenceLearningTask,001,118,
min1.png,min2.png,min3.png,min4.png,allBlank.png,,,,['num_1'],,,,,,0,8,8,8,,,,,,,,,['num_1'],9,0.0509218461812,0,"['num_7', 'num_0', 'num_1', 'num_4', 'num_7', 'num_0', 'num_4', 'num_1', 'num_7', 'num_0', 'num_1']",0,"[0.0002867692383006215, 0.024854153860360384, 0.09389743593055755, 0.16069169237744063, 0.4938018461689353, 0.6935815385077149, 1.1939195897430182, 1.3432631795294583]",,2018_Jun_03_1700,60.049369822,sequenceLearningTask,001,118,
min1.png,min2.png,min3.png,min4.png,allBlank.png,,,,['num_0'],,,,,,0,8,8,8,,,,,,,,,['num_0'],9,0.0547786667012,0,"['num_7', 'num_0']",0,"[0.0003171282587572932, 0.05614769225940108]",,2018_Jun_03_1700,60.049369822,sequenceLearningTask,001,118,
min1.png,min2.png,min3.png,min4.png,allBlank.png,,,,['num_7'],,,,,,0,9,9,9,,,,,,,,,['num_7'],10,0.0584832819877,0,"['num_1', 'num_4', 'num_7', 'num_0', 'num_1', 'num_7']",0,"[0.0005431794561445713, 0.11780841019935906, 0.18422564095817506, 0.41743425640743226]",,2018_Jun_03_1700,60.049369822,sequenceLearningTask,001,118,
min1.png,min2.png,min3.png,min4.png,allBlank.png,,,,['num_1'],,,,,,0,9,9,9,,,,,,,,,['num_1'],10,0.0525940512307,0,"['num_7', 'num_1']",0,"[0.0578330255812034, 1.2763942563906312]",,2018_Jun_03_1700,60.049369822,sequenceLearningTask,001,118,
min1.png,min2.png,min3.png,min4.png,allBlank.png,,,,['num_4'],,,,,,0,9,9,9,,,,,,,,,['num_4'],10,0.0600947692292,1,['num_4'],0,[1.1507478974526748],,2018_Jun_03_1700,60.049369822,sequenceLearningTask,001,118,
min1.png,min2.png,min3.png,min4.png,allBlank.png,,,,['num_0'],,,,,,0,9,9,9,,,,,,,,,['num_0'],10,0.0594617435709,1,['num_0'],0,[0.6024955896427855],,2018_Jun_03_1700,60.049369822,sequenceLearningTask,001,118,
min1.png,min2.png,min3.png,min4.png,allBlank.png,,,,['num_0'],,,,,,0,9,9,9,,,,,,,,,['num_0'],10,0.0592307691695,1,['num_0'],0,[0.46918112819548696],,2018_Jun_03_1700,60.049369822,sequenceLearningTask,001,118,
min1.png,min2.png,min3.png,min4.png,allBlank.png,,,,['num_4'],,,,,,0,9,9,9,,,,,,,,,['num_4'],10,0.0544118974358,1,['num_4'],0,[0.7405706666177139],,2018_Jun_03_1700,60.049369822,sequenceLearningTask,001,118,
min1.png,min2.png,min3.png,min4.png,allBlank.png,,,,['num_1'],,,,,,0,9,9,9,,,,,,,,,['num_1'],10,0.0524935384747,1,['num_1'],0,[0.4583396923262626],,2018_Jun_03_1700,60.049369822,sequenceLearningTask,001,118,
min1.png,min2.png,min3.png,min4.png,allBlank.png,,,,['num_0'],,,,,,0,9,9,9,,,,,,,,,['num_0'],10,0.0522691281512,1,['num_0'],0,[0.45879138458985835],,2018_Jun_03_1700,60.049369822,sequenceLearningTask,001,118,
min1.png,min2.png,min3.png,min4.png,allBlank.png,,,,['num_7'],,,,,,0,0,0,0,,,,,,,,,['num_7'],1,0.060073025641,1,['num_7'],0,[1.302559589734301],,2018_Jun_03_1700,60.049369822,sequenceLearningTask,001,118,
min1.png,min2.png,min3.png,min4.png,allBlank.png,,,,['num_1'],,,,,,0,0,0,0,,,,,,,,,['num_1'],1,0.0535893334309,1,['num_1'],0,[0.6090047180186957],,2018_Jun_03_1700,60.049369822,sequenceLearningTask,001,118,
min1.png,min2.png,min3.png,min4.png,allBlank.png,,,,['num_4'],,,,,,0,0,0,0,,,,,,,,,['num_4'],1,0.0553070768947,1,['num_4'],0,[0.5884402052033693],,2018_Jun_03_1700,60.049369822,sequenceLearningTask,001,118,
min1.png,min2.png,min3.png,min4.png,allBlank.png,,,,['num_0'],,,,,,0,0,0,0,,,,,,,,,['num_0'],1,0.050696615479,1,['num_0'],0,[0.3103495384566486],,2018_Jun_03_1700,60.049369822,sequenceLearningTask,001,118,
min1.png,min2.png,min3.png,min4.png,allBlank.png,,,,['num_0'],,,,,,0,0,0,0,,,,,,,,,['num_0'],1,0.0605657435954,1,['num_0'],0,[0.5329423589864746],,2018_Jun_03_1700,60.049369822,sequenceLearningTask,001,118,
min1.png,min2.png,min3.png,min4.png,allBlank.png,,,,['num_4'],,,,,,0,0,0,0,,,,,,,,,['num_4'],1,0.0558576410403,0,"['num_0', 'num_4']",0,"[0.00036841025575995445, 0.2547725128242746]",,2018_Jun_03_1700,60.049369822,sequenceLearningTask,001,118,
min1.png,min2.png,min3.png,min4.png,allBlank.png,,,,['num_1'],,,,,,0,0,0,0,,,,,,,,,['num_1'],1,0.0574765128549,0,"['num_7', 'num_1', 'num_0', 'num_4', 'num_1']",0,"[0.00027528207283467054, 0.10492225643247366, 0.12070892308838665, 0.3208886154461652]",,2018_Jun_03_1700,60.049369822,sequenceLearningTask,001,118,
min1.png,min2.png,min3.png,min4.png,allBlank.png,,,,['num_0'],,,,,,0,0,0,0,,,,,,,,,['num_0'],1,0.0539359999821,0,"['num_7', 'num_1', 'num_0', 'num_4', 'num_7', 'num_4', 'num_1', 'num_7', 'num_4', 'num_1', 'num_0', 'num_7', 'num_1', 'num_4', 'num_0', 'num_1', 'num_0', 'num_4', 'num_0']",0,"[0.0002904615830630064, 0.038803692325018346, 0.1943610255839303, 0.32635076926089823, 0.45791097439359874, 0.47515733330510557, 0.7884623589925468, 1.0734748718095943, 1.107099897461012]",,2018_Jun_03_1700,60.049369822,sequenceLearningTask,001,118,
min1.png,min2.png,min3.png,min4.png,allBlank.png,,,,['num_7'],,,,,,0,1,1,1,,,,,,,,,['num_7'],2,0.059922871762,1,['num_7'],0,[0.6495495383860543],,2018_Jun_03_1700,60.049369822,sequenceLearningTask,001,118,
min1.png,min2.png,min3.png,min4.png,allBlank.png,,,,['num_1'],,,,,,0,1,1,1,,,,,,,,,['num_1'],2,0.0604217435466,1,['num_1'],0,[0.7663774358807132],,2018_Jun_03_1700,60.049369822,sequenceLearningTask,001,118,
min1.png,min2.png,min3.png,min4.png,allBlank.png,,,,['num_4'],,,,,,0,1,1,1,,,,,,,,,['num_4'],2,0.0518765128218,1,['num_4'],0,[0.5758605129085481],,2018_Jun_03_1700,60.049369822,sequenceLearningTask,001,118,
min1.png,min2.png,min3.png,min4.png,allBlank.png,,,,['num_0'],,,,,,0,1,1,1,,,,,,,,,['num_0'],2,0.0524369231425,1,['num_0'],0,[0.5079273845767602],,2018_Jun_03_1700,60.049369822,sequenceLearningTask,001,118,
min1.png,min2.png,min3.png,min4.png,allBlank.png,,,,['num_0'],,,,,,0,1,1,1,,,,,,,,,['num_0'],2,0.0551044102758,1,['num_0'],0,[0.4567749743582681],,2018_Jun_03_1700,60.049369822,sequenceLearningTask,001,118,
min1.png,min2.png,min3.png,min4.png,allBlank.png,,,,['num_4'],,,,,,0,1,1,1,,,,,,,,,['num_4'],2,0.0576594871236,1,['num_4'],0,[0.8706637949217111],,2018_Jun_03_1700,60.049369822,sequenceLearningTask,001,118,
min1.png,min2.png,min3.png,min4.png,allBlank.png,,,,['num_1'],,,,,,0,1,1,1,,,,,,,,,['num_1'],2,0.0611388718244,1,['num_1'],0,[0.5993513845605776],,2018_Jun_03_1700,60.049369822,sequenceLearningTask,001,118,
min1.png,min2.png,min3.png,min4.png,allBlank.png,,,,['num_0'],,,,,,0,1,1,1,,,,,,,,,['num_0'],2,0.0500348717906,1,['num_0'],0,[0.3950395897263661],,2018_Jun_03_1700,60.049369822,sequenceLearningTask,001,118,
min1.png,min2.png,min3.png,min4.png,allBlank.png,,,,['num_7'],,,,,,0,2,2,2,,,,,,,,,['num_7'],3,0.0539807180176,1,['num_7'],0,[0.48874010250438005],,2018_Jun_03_1700,60.049369822,sequenceLearningTask,001,118,
min1.png,min2.png,min3.png,min4.png,allBlank.png,,,,['num_1'],,,,,,0,2,2,2,,,,,,,,,['num_1'],3,0.0532172307139,1,['num_1'],0,[0.42503917950671166],,2018_Jun_03_1700,60.049369822,sequenceLearningTask,001,118,
min1.png,min2.png,min3.png,min4.png,allBlank.png,,,,['num_4'],,,,,,0,2,2,2,,,,,,,,,['num_4'],3,0.0605144615984,0,"['num_7', 'num_4', 'num_7', 'num_7', 'num_7', 'num_7', 'num_7', 'num_7', 'num_4']",0,"[0.7675224615959451, 1.2170945641119033, 1.3999179487582296, 1.6172065641731024, 1.817545025725849, 2.0173739487072453, 2.2012988718925044, 2.434818461537361]",,2018_Jun_03_1700,60.049369822,sequenceLearningTask,001,118,
min1.png,min2.png,min3.png,min4.png,allBlank.png,,,,['num_0'],,,,,,0,2,2,2,,,,,,,,,['num_0'],3,0.0579113846179,0,"['num_4', 'num_0']",0,"[0.000331487157382071, 0.5700771282427013]",,2018_Jun_03_1700,60.049369822,sequenceLearningTask,001,118,
min1.png,min2.png,min3.png,min4.png,allBlank.png,,,,['num_0'],,,,,,0,2,2,2,,,,,,,,,['num_0'],3,0.0587134358939,1,['num_0'],0,[2.035967179457657],,2018_Jun_03_1700,60.049369822,sequenceLearningTask,001,118,
min1.png,min2.png,min3.png,min4.png,allBlank.png,,,,['num_4'],,,,,,0,2,2,2,,,,,,,,,['num_4'],3,0.0528800000902,1,['num_4'],0,[0.7081148718716577],,2018_Jun_03_1700,60.049369822,sequenceLearningTask,001,118,
min1.png,min2.png,min3.png,min4.png,allBlank.png,,,,['num_1'],,,,,,0,2,2,2,,,,,,,,,['num_1'],3,0.052447999944,1,['num_1'],0,[0.6932693333365023],,2018_Jun_03_1700,60.049369822,sequenceLearningTask,001,118,
min1.png,min2.png,min3.png,min4.png,allBlank.png,,,,['num_0'],,,,,,0,2,2,2,,,,,,,,,['num_0'],3,0.0545378462411,1,['num_0'],0,[0.056601435877382755],,2018_Jun_03_1700,60.049369822,sequenceLearningTask,001,118,
min1.png,min2.png,min3.png,min4.png,allBlank.png,,,,['num_7'],,,,,,0,3,3,3,,,,,,,,,['num_7'],4,0.0584566154284,1,['num_7'],0,[1.0014219486620277],,2018_Jun_03_1700,60.049369822,sequenceLearningTask,001,118,
min1.png,min2.png,min3.png,min4.png,allBlank.png,,,,['num_1'],,,,,,0,3,3,3,,,,,,,,,['num_1'],4,0.0556541538099,0,"['num_4', 'num_1']",0,"[0.0003922050818800926, 1.0891864615259692]",,2018_Jun_03_1700,60.049369822,sequenceLearningTask,001,118,
min1.png,min2.png,min3.png,min4.png,allBlank.png,,,,['num_4'],,,,,,0,3,3,3,,,,,,,,,['num_4'],4,0.0568619486876,0,"['num_0', 'num_4']",0,"[0.00032615382224321365, 1.4214966153958812]",,2018_Jun_03_1700,60.049369822,sequenceLearningTask,001,118,
min1.png,min2.png,min3.png,min4.png,allBlank.png,,,,['num_0'],,,,,,0,3,3,3,,,,,,,,,['num_0'],4,0.056180923013,0,"['num_0', 'num_0']",0,"[0.0004283076850697398, 0.4371581538580358]",,2018_Jun_03_1700,60.049369822,sequenceLearningTask,001,118,
min1.png,min2.png,min3.png,min4.png,allBlank.png,,,,['num_0'],,,,,,0,3,3,3,,,,,,,,,['num_0'],4,0.0533788718749,1,['num_0'],0,[3.4240980512695387],,2018_Jun_03_1700,60.049369822,sequenceLearningTask,001,118,
min1.png,min2.png,min3.png,min4.png,allBlank.png,,,,['num_4'],,,,,,0,3,3,3,,,,,,,,,['num_4'],4,0.0533169230912,0,"['num_4', 'num_4']",0,"[0.0003606154350563884, 0.47387651284225285]",,2018_Jun_03_1700,60.049369822,sequenceLearningTask,001,118,
min1.png,min2.png,min3.png,min4.png,allBlank.png,,,,['num_1'],,,,,,0,3,3,3,,,,,,,,,['num_1'],4,0.0560397948138,1,['num_1'],0,[0.07228594878688455],,2018_Jun_03_1700,60.049369822,sequenceLearningTask,001,118,
min1.png,min2.png,min3.png,min4.png,allBlank.png,,,,['num_0'],,,,,,0,3,3,3,,,,,,,,,['num_0'],4,0.0557210256811,0,"['num_7', 'num_0']",0,"[0.3553796922788024, 0.771896205144003]",,2018_Jun_03_1700,60.049369822,sequenceLearningTask,001,118,
min1.png,min2.png,min3.png,min4.png,allBlank.png,,,,['num_7'],,,,,,0,4,4,4,,,,,,,,,['num_7'],5,0.0574724102626,1,['num_7'],0,[0.13571364094968885],,2018_Jun_03_1700,60.049369822,sequenceLearningTask,001,118,
min1.png,min2.png,min3.png,min4.png,allBlank.png,,,,['num_1'],,,,,,0,4,4,4,,,,,,,,,['num_1'],5,0.0581050256733,1,['num_1'],0,[3.8024750768672675],,2018_Jun_03_1700,60.049369822,sequenceLearningTask,001,118,
min1.png,min2.png,min3.png,min4.png,allBlank.png,,,,['num_4'],,,,,,0,4,4,4,,,,,,,,,['num_4'],5,0.0535216410644,0,"['num_4', 'num_4']",0,"[0.0004221538547426462, 0.5739236923400313]",,2018_Jun_03_1700,60.049369822,sequenceLearningTask,001,118,
min1.png,min2.png,min3.png,min4.png,allBlank.png,,,,['num_0'],,,,,,0,4,4,4,,,,,,,,,['num_0'],5,0.0575745641254,0,"['num_0', 'num_0']",0,"[0.0007737436098977923, 0.5859109743032604]",,2018_Jun_03_1700,60.049369822,sequenceLearningTask,001,118,
min1.png,min2.png,min3.png,min4.png,allBlank.png,,,,['num_0'],,,,,,0,4,4,4,,,,,,,,,['num_0'],5,0.0594921025913,0,"['num_7', 'num_7', 'num_1', 'num_0', 'num_0']",0,"[0.00035815383307635784, 0.43491979490499943, 0.9851909743156284, 2.302044717944227]",,2018_Jun_03_1700,60.049369822,sequenceLearningTask,001,118,
min1.png,min2.png,min3.png,min4.png,allBlank.png,,,,['num_4'],,,,,,0,4,4,4,,,,,,,,,['num_4'],5,0.0551064615138,0,"['num_4', 'num_4']",0,"[0.000744615332223475, 0.4879856409970671]",,2018_Jun_03_1700,60.049369822,sequenceLearningTask,001,118,
min1.png,min2.png,min3.png,min4.png,allBlank.png,,,,['num_1'],,,,,,0,4,4,4,,,,,,,,,['num_1'],5,0.0556705641793,0,"['num_1', 'num_1']",0,"[0.0009017435368150473, 0.4216201025992632]",,2018_Jun_03_1700,60.049369822,sequenceLearningTask,001,118,
min1.png,min2.png,min3.png,min4.png,allBlank.png,,,,['num_0'],,,,,,0,4,4,4,,,,,,,,,['num_0'],5,0.0598412308609,0,"['num_1', 'num_7', 'num_0']",0,"[0.00035815383307635784, 0.03235733334440738, 0.8678022564854473]",,2018_Jun_03_1700,60.049369822,sequenceLearningTask,001,118,
min1.png,min2.png,min3.png,min4.png,allBlank.png,,,,['num_7'],,,,,,0,5,5,5,,,,,,,,,['num_7'],6,0.0589599999366,0,"['num_0', 'num_7']",0,"[0.0003253333270549774, 0.41651323076803237]",,2018_Jun_03_1700,60.049369822,sequenceLearningTask,001,118,
min1.png,min2.png,min3.png,min4.png,allBlank.png,,,,['num_1'],,,,,,0,5,5,5,,,,,,,,,['num_1'],6,0.0489165128674,1,['num_1'],0,[1.4798445128835738],,2018_Jun_03_1700,60.049369822,sequenceLearningTask,001,118,
min1.png,min2.png,min3.png,min4.png,allBlank.png,,,,['num_4'],,,,,,0,5,5,5,,,,,,,,,['num_4'],6,0.0538908718154,0,"['num_7', 'num_4']",0,"[2.540270359022543, 3.10746666660998]",,2018_Jun_03_1700,60.049369822,sequenceLearningTask,001,118,
min1.png,min2.png,min3.png,min4.png,allBlank.png,,,,['num_0'],,,,,,0,5,5,5,,,,,,,,,['num_0'],6,0.0531766153872,1,['num_0'],0,[2.7910695384489372],,2018_Jun_03_1700,60.049369822,sequenceLearningTask,001,118,
min1.png,min2.png,min3.png,min4.png,allBlank.png,,,,['num_0'],,,,,,0,5,5,5,,,,,,,,,['num_0'],6,0.051632000017,0,"['num_4', 'num_0']",0,"[0.3759101538453251, 0.92590112821199]",,2018_Jun_03_1700,60.049369822,sequenceLearningTask,001,118,
min1.png,min2.png,min3.png,min4.png,allBlank.png,,,,['num_4'],,,,,,0,5,5,5,,,,,,,,,['num_4'],6,0.0293751794379,0,"['num_7', 'num_4']",0,"[0.28366194863338023, 0.9337731281993911]",,2018_Jun_03_1700,60.049369822,sequenceLearningTask,001,118,
min1.png,min2.png,min3.png,min4.png,allBlank.png,,,,['num_1'],,,,,,0,5,5,5,,,,,,,,,['num_1'],6,0.0566773333121,1,['num_1'],0,[1.2377628717804328],,2018_Jun_03_1700,60.049369822,sequenceLearningTask,001,118,
min1.png,min2.png,min3.png,min4.png,allBlank.png,,,,['num_0'],,,,,,0,5,5,5,,,,,,,,,['num_0'],6,0.0598141539376,1,['num_0'],0,[0.11796553840395063],,2018_Jun_03_1700,60.049369822,sequenceLearningTask,001,118,
min1.png,min2.png,min3.png,min4.png,allBlank.png,,,,['num_7'],,,,,,0,6,6,6,,,,,,,,,['num_7'],7,0.0568746665958,1,['num_7'],0,[1.070307282032445],,2018_Jun_03_1700,60.049369822,sequenceLearningTask,001,118,
min1.png,min2.png,min3.png,min4.png,allBlank.png,,,,['num_1'],,,,,,0,6,6,6,,,,,,,,,['num_1'],7,0.0543060512282,0,"['num_1', 'num_0', 'num_1']",0,"[0.03917005122639239, 0.07336369226686656, 0.5570650255540386]",,2018_Jun_03_1700,60.049369822,sequenceLearningTask,001,118,
min1.png,min2.png,min3.png,min4.png,allBlank.png,,,,['num_4'],,,,,,0,6,6,6,,,,,,,,,['num_4'],7,0.0542650256539,1,['num_4'],0,[0.9404730256646872],,2018_Jun_03_1700,60.049369822,sequenceLearningTask,001,118,
min1.png,min2.png,min3.png,min4.png,allBlank.png,,,,['num_0'],,,,,,0,6,6,6,,,,,,,,,['num_0'],7,0.0560841024853,1,['num_0'],0,[0.7203999999910593],,2018_Jun_03_1700,60.049369822,sequenceLearningTask,001,118,
min1.png,min2.png,min3.png,min4.png,allBlank.png,,,,['num_0'],,,,,,0,6,6,6,,,,,,,,,['num_0'],7,0.0567680000095,0,"['num_0', 'num_0']",0,"[0.000300718005746603, 0.5872065641451627]",,2018_Jun_03_1700,60.049369822,sequenceLearningTask,001,118,
min1.png,min2.png,min3.png,min4.png,allBlank.png,,,,['num_4'],,,,,,0,6,6,6,,,,,,,,,['num_4'],7,0.0491872819839,1,['num_4'],0,[1.6792504616314545],,2018_Jun_03_1700,60.049369822,sequenceLearningTask,001,118,
min1.png,min2.png,min3.png,min4.png,allBlank.png,,,,['num_1'],,,,,,0,6,6,6,,,,,,,,,['num_1'],7,0.0574728205102,1,['num_1'],0,[0.5370486152824014],,2018_Jun_03_1700,60.049369822,sequenceLearningTask,001,118,
min1.png,min2.png,min3.png,min4.png,allBlank.png,,,,['num_0'],,,,,,0,6,6,6,,,,,,,,,['num_0'],7,0.0499257436022,0,"['num_0', 'num_0']",0,"[0.00037825643084943295, 0.5613398974528536]",,2018_Jun_03_1700,60.049369822,sequenceLearningTask,001,118,
min1.png,min2.png,min3.png,min4.png,allBlank.png,,,,['num_7'],,,,,,0,7,7,7,,,,,,,,,['num_7'],8,0.0485874871956,1,['num_7'],0,[0.6605973333353177],,2018_Jun_03_1700,60.049369822,sequenceLearningTask,001,118,
min1.png,min2.png,min3.png,min4.png,allBlank.png,,,,['num_1'],,,,,,0,7,7,7,,,,,,,,,['num_1'],8,0.0510998974787,1,['num_1'],0,[0.8443577435100451],,2018_Jun_03_1700,60.049369822,sequenceLearningTask,001,118,
min1.png,min2.png,min3.png,min4.png,allBlank.png,,,,['num_4'],,,,,,0,7,7,7,,,,,,,,,['num_4'],8,0.032128820545,1,['num_4'],0,[0.7815478974953294],,2018_Jun_03_1700,60.049369822,sequenceLearningTask,001,118,
min1.png,min2.png,min3.png,min4.png,allBlank.png,,,,['num_0'],,,,,,0,7,7,7,,,,,,,,,['num_0'],8,0.0593411281006,1,['num_0'],0,[0.6852229742798954],,2018_Jun_03_1700,60.049369822,sequenceLearningTask,001,118,
min1.png,min2.png,min3.png,min4.png,allBlank.png,,,,['num_0'],,,,,,0,7,7,7,,,,,,,,,['num_0'],8,0.0558272820199,1,['num_0'],0,[0.5553111794870347],,2018_Jun_03_1700,60.049369822,sequenceLearningTask,001,118,
min1.png,min2.png,min3.png,min4.png,allBlank.png,,,,['num_4'],,,,,,0,7,7,7,,,,,,,,,['num_4'],8,0.0564512819983,1,['num_4'],0,[0.9719835896976292],,2018_Jun_03_1700,60.049369822,sequenceLearningTask,001,118,
min1.png,min2.png,min3.png,min4.png,allBlank.png,,,,['num_1'],,,,,,0,7,7,7,,,,,,,,,['num_1'],8,0.0587675897405,1,['num_1'],0,[0.5857292307773605],,2018_Jun_03_1700,60.049369822,sequenceLearningTask,001,118,
min1.png,min2.png,min3.png,min4.png,allBlank.png,,,,['num_0'],,,,,,0,7,7,7,,,,,,,,,['num_0'],8,0.058201846201,1,['num_0'],0,[0.4694350769277662],,2018_Jun_03_1700,60.049369822,sequenceLearningTask,001,118,
min1.png,min2.png,min3.png,min4.png,allBlank.png,,,,['num_7'],,,,,,0,8,8,8,,,,,,,,,['num_7'],9,0.0556217436679,1,['num_7'],0,[0.9871548718074337],,2018_Jun_03_1700,60.049369822,sequenceLearningTask,001,118,
min1.png,min2.png,min3.png,min4.png,allBlank.png,,,,['num_1'],,,,,,0,8,8,8,,,,,,,,,['num_1'],9,0.0532553845551,1,['num_1'],0,[0.9583893333328888],,2018_Jun_03_1700,60.049369822,sequenceLearningTask,001,118,
min1.png,min2.png,min3.png,min4.png,allBlank.png,,,,['num_4'],,,,,,0,8,8,8,,,,,,,,,['num_4'],9,0.0488246154273,0,"['num_7', 'num_7', 'num_4']",0,"[0.6798239999916404, 1.3299265641253442, 2.0305271794786677]",,2018_Jun_03_1700,60.049369822,sequenceLearningTask,001,118,
min1.png,min2.png,min3.png,min4.png,allBlank.png,,,,['num_0'],,,,,,0,8,8,8,,,,,,,,,['num_0'],9,0.0561673846096,1,['num_0'],0,[0.7216980513185263],,2018_Jun_03_1700,60.049369822,sequenceLearningTask,001,118,
min1.png,min2.png,min3.png,min4.png,allBlank.png,,,,['num_0'],,,,,,0,8,8,8,,,,,,,,,['num_0'],9,0.0528463589726,0,"['num_1', 'num_0']",0,"[0.7412135384511203, 0.8084246154176071]",,2018_Jun_03_1700,60.049369822,sequenceLearningTask,001,118,
min1.png,min2.png,min3.png,min4.png,allBlank.png,,,,['num_4'],,,,,,0,8,8,8,,,,,,,,,['num_4'],9,0.0519035897451,0,"['num_7', 'num_4']",0,"[0.9755659487564117, 1.5093936410266906]",,2018_Jun_03_1700,60.049369822,sequenceLearningTask,001,118,
min1.png,min2.png,min3.png,min4.png,allBlank.png,,,,['num_1'],,,,,,0,8,8,8,,,,,,,,,['num_1'],9,0.054267897387,1,['num_1'],0,[0.640461128205061],,2018_Jun_03_1700,60.049369822,sequenceLearningTask,001,118,
min1.png,min2.png,min3.png,min4.png,allBlank.png,,,,['num_0'],,,,,,0,8,8,8,,,,,,,,,['num_0'],9,0.055102769169,0,"['num_4', 'num_0']",0,"[0.6561316922307014, 1.3064722050912678]",,2018_Jun_03_1700,60.049369822,sequenceLearningTask,001,118,
min1.png,min2.png,min3.png,min4.png,allBlank.png,,,,['num_7'],,,,,,0,9,9,9,,,,,,,,,['num_7'],10,0.0547429743456,0,"['num_1', 'num_0', 'num_4', 'num_4', 'num_4', 'num_4', 'num_7']",0,"[0.00034830765798687935, 0.8036008204799145, 1.5537509743589908, 2.004111179499887, 2.637565538403578, 2.954344615340233, 3.220820102491416]",,2018_Jun_03_1700,60.049369822,sequenceLearningTask,001,118,
min1.png,min2.png,min3.png,min4.png,allBlank.png,,,,['num_1'],,,,,,0,9,9,9,,,,,,,,,['num_1'],10,0.0370043076109,0,"['num_7', 'num_4', 'num_1']",0,"[0.19219076924491674, 0.20911220519337803, 0.25868882052600384]",,2018_Jun_03_1700,60.049369822,sequenceLearningTask,001,118,
min1.png,min2.png,min3.png,min4.png,allBlank.png,,,,['num_4'],,,,,,0,9,9,9,,,,,,,,,['num_4'],10,0.0540574358311,0,"['num_4', 'num_1', 'num_0', 'num_4']",0,"[0.0002838975051417947, 0.15710030775517225, 0.690345435985364]",,2018_Jun_03_1700,60.049369822,sequenceLearningTask,001,118,
min1.png,min2.png,min3.png,min4.png,allBlank.png,,,,['num_0'],,,,,,0,9,9,9,,,,,,,,,['num_0'],10,0.0563499487471,0,"['num_7', 'num_0', 'num_1', 'num_4', 'num_7', 'num_0']",0,"[0.00046358967665582895, 0.08759097440633923, 0.1874818461947143, 0.27140061545651406, 0.538057025638409]",,2018_Jun_03_1700,60.049369822,sequenceLearningTask,001,118,
min1.png,min2.png,min3.png,min4.png,allBlank.png,,,,['num_0'],,,,,,0,9,9,9,,,,,,,,,['num_0'],10,0.0508681025822,0,"['num_1', 'num_7', 'num_4', 'num_0', 'num_4', 'num_1', 'num_7', 'num_0']",0,"[0.0006740513490512967, 0.2769271794240922, 0.5612344614928588, 0.8775409230729565, 1.9777891281992197]",,2018_Jun_03_1700,60.049369822,sequenceLearningTask,001,118,
min1.png,min2.png,min3.png,min4.png,allBlank.png,,,,['num_4'],,,,,,0,9,9,9,,,,,,,,,['num_4'],10,0.0582633846207,0,"['num_0', 'num_1', 'num_4']",0,"[1.0199417435796931, 1.3022880000062287, 1.3522949743783101]",,2018_Jun_03_1700,60.049369822,sequenceLearningTask,001,118,
min1.png,min2.png,min3.png,min4.png,allBlank.png,,,,['num_1'],,,,,,0,9,9,9,,,,,,,,,['num_1'],10,0.0493669743882,0,"['num_7', 'num_0', 'num_1']",0,"[0.0002178461290895939, 0.04493292304687202, 0.16235569235868752]",,2018_Jun_03_1700,60.049369822,sequenceLearningTask,001,118,
min1.png,min2.png,min3.png,min4.png,allBlank.png,,,,['num_0'],,,,,,0,9,9,9,,,,,,,,,['num_0'],10,0.0503745640162,0,"['num_4', 'num_7', 'num_1', 'num_0', 'num_4', 'num_7', 'num_0']",0,"[0.0007306666811928153, 0.16005948721431196, 0.17617846152279526, 0.5768291282001883]",,2018_Jun_03_1700,60.049369822,sequenceLearningTask,001,118,
min1.png,min2.png,min3.png,min4.png,images/allBlank.png,images/min4.png,'num_0',"['num_7', 'num_4', 'num_1', 'num_0']",['num_0'],num_0,,,,,0,9,9,9,0,0,0,3,,,,,['num_0'],,0.060507897404,1,['num_0'],0,[0.6195561025524512],1,2018_Jun_03_1700,60.049369822,sequenceLearningTask,001,118,
min1.png,min2.png,min3.png,min4.png,images/allBlank.png,images/min2.png,'num_4',"['num_7', 'num_4', 'num_1', 'num_0']",['num_4'],num_4,,,,,0,9,9,9,0,1,1,1,,,,,['num_4'],,0.0536541538313,0,"['num_1', 'num_7', 'num_0', 'num_1', 'num_4']",0,"[0.0003483077744022012, 0.03822851285804063, 0.13868553843349218, 0.3217911794781685]",0,2018_Jun_03_1700,60.049369822,sequenceLearningTask,001,118,
min1.png,min2.png,min3.png,min4.png,images/allBlank.png,images/min3.png,'num_1',"['num_7', 'num_4', 'num_1', 'num_0']",['num_1'],num_1,,,,,0,9,9,9,0,2,2,2,,,,,['num_1'],,0.0552640000824,0,"['num_7', 'num_0', 'num_4', 'num_1', 'num_7', 'num_0', 'num_1']",0,"[0.00025887181982398033, 0.018816410331055522, 0.12099117948673666, 0.3377378461882472]",0,2018_Jun_03_1700,60.049369822,sequenceLearningTask,001,118,
min1.png,min2.png,min3.png,min4.png,images/allBlank.png,images/min1.png,'num_7',"['num_7', 'num_4', 'num_1', 'num_0']",['num_7'],num_7,,,,,0,9,9,9,0,3,3,0,,,,,['num_7'],,0.0598728205077,0,"['num_4', 'num_7', 'num_7']",0,"[0.0002477949019521475, 0.2303454359062016]",0,2018_Jun_03_1700,60.049369822,sequenceLearningTask,001,118,
min1.png,min2.png,min3.png,min4.png,images/allBlank.png,images/min3.png,'num_1',"['num_7', 'num_4', 'num_1', 'num_0']",['num_1'],num_1,,,,,0,9,9,9,1,0,4,2,,,,,['num_1'],,0.0589210256003,0,"['num_4', 'num_0', 'num_1', 'num_7', 'num_4', 'num_1', 'num_0', 'num_0', 'num_4', 'num_1', 'num_0', 'num_0', 'num_1']",0,"[0.00024369230959564447, 0.48405866662506014, 1.1825070768827572, 1.2011183589929715, 1.9011823589680716, 2.2161878974875435, 2.28437497431878]",0,2018_Jun_03_1700,60.049369822,sequenceLearningTask,001,118,
min1.png,min2.png,min3.png,min4.png,images/allBlank.png,images/min2.png,'num_4',"['num_7', 'num_4', 'num_1', 'num_0']",['num_4'],num_4,,,,,0,9,9,9,1,1,5,1,,,,,['num_4'],,0.0595971283037,0,"['num_0', 'num_1', 'num_4']",0,"[0.114885333343409, 0.149505230714567, 0.4654133333824575]",0,2018_Jun_03_1700,60.049369822,sequenceLearningTask,001,118,
min1.png,min2.png,min3.png,min4.png,images/allBlank.png,images/min1.png,'num_7',"['num_7', 'num_4', 'num_1', 'num_0']",['num_7'],num_7,,,,,0,9,9,9,1,2,6,0,,,,,['num_7'],,0.0673021539114,0,"['num_7', 'num_1', 'num_0', 'num_4', 'num_7']",0,"[0.0003368204925209284, 0.07505025644786656, 0.4244377436116338, 0.6076106666587293]",0,2018_Jun_03_1700,60.049369822,sequenceLearningTask,001,118,
min1.png,min2.png,min3.png,min4.png,images/allBlank.png,images/min4.png,'num_0',"['num_7', 'num_4', 'num_1', 'num_0']",['num_0'],num_0,,,,,0,9,9,9,1,3,7,3,,,,,['num_0'],,0.055884307716,0,"['num_0', 'num_1', 'num_4', 'num_7', 'num_1', 'num_0', 'num_4', 'num_7', 'num_0']",0,"[0.00025558972265571356, 0.033890461549162865, 0.43578092311508954, 0.45192123076412827, 0.5853936410276219, 0.7517435897607356]",0,2018_Jun_03_1700,60.049369822,sequenceLearningTask,001,118,
min1.png,min2.png,min3.png,min4.png,images/allBlank.png,images/min1.png,'num_7',"['num_7', 'num_4', 'num_1', 'num_0']",['num_7'],num_7,,,,,0,9,9,9,2,0,8,0,,,,,['num_7'],,0.0567413333338,0,"['num_1', 'num_4', 'num_1', 'num_0', 'num_4', 'num_7']",0,"[0.0002621538005769253, 0.11847507697530091, 0.1346953846514225, 0.16821374360006303, 0.28484676929656416]",0,2018_Jun_03_1700,60.049369822,sequenceLearningTask,001,118,
min1.png,min2.png,min3.png,min4.png,images/allBlank.png,images/min4.png,'num_0',"['num_7', 'num_4', 'num_1', 'num_0']",['num_0'],num_0,,,,,0,9,9,9,2,1,9,3,,,,,['num_0'],,0.0547979486873,0,"['num_1', 'num_7', 'num_4', 'num_0']",0,"[0.00029538467060774565, 0.3214391794754192, 0.6871437948429957]",0,2018_Jun_03_1700,60.049369822,sequenceLearningTask,001,118,
min1.png,min2.png,min3.png,min4.png,images/allBlank.png,images/min2.png,'num_4',"['num_7', 'num_4', 'num_1', 'num_0']",['num_4'],num_4,,,,,0,9,9,9,2,2,10,1,,,,,['num_4'],,0.0549489230616,0,"['num_1', 'num_4', 'num_7', 'num_7', 'num_0', 'num_4', 'num_1', 'num_7', 'num_4']",0,"[0.00024492305237799883, 0.12105805124156177, 0.5211885127937421, 0.7210330256493762, 0.8542026666691527, 1.02207466668915, 1.0886576409684494]",0,2018_Jun_03_1700,60.049369822,sequenceLearningTask,001,118,
min1.png,min2.png,min3.png,min4.png,images/allBlank.png,images/min3.png,'num_1',"['num_7', 'num_4', 'num_1', 'num_0']",['num_1'],num_1,,,,,0,9,9,9,2,3,11,2,,,,,['num_1'],,0.0563183589838,0,"['num_0', 'num_4', 'num_0', 'num_0', 'num_1']",0,"[0.0005907692248001695, 0.13594953843858093, 0.28534276923164725, 0.4184972307411954]",0,2018_Jun_03_1700,60.049369822,sequenceLearningTask,001,118,
min1.png,min2.png,min3.png,min4.png,images/allBlank.png,images/min1.png,'num_7',"['num_7', 'num_4', 'num_1', 'num_0']",['num_7'],num_7,,,,,0,9,9,9,3,0,12,0,,,,,['num_7'],,0.0593005127739,0,"['num_4', 'num_0', 'num_1', 'num_7']",0,"[0.0005780513165518641, 0.5153017436387017]",0,2018_Jun_03_1700,60.049369822,sequenceLearningTask,001,118,
min1.png,min2.png,min3.png,min4.png,images/allBlank.png,images/min3.png,'num_1',"['num_7', 'num_4', 'num_1', 'num_0']",['num_1'],num_1,,,,,0,9,9,9,3,1,13,2,,,,,['num_1'],,0.0576508718077,0,"['num_4', 'num_0', 'num_0', 'num_1']",0,"[0.46746871795039624, 0.7838063589297235, 0.9342847178922966, 0.9675696409540251]",0,2018_Jun_03_1700,60.049369822,sequenceLearningTask,001,118,
min1.png,min2.png,min3.png,min4.png,images/allBlank.png,images/min2.png,'num_4',"['num_7', 'num_4', 'num_1', 'num_0']",['num_4'],num_4,,,,,0,9,9,9,3,2,14,1,,,,,['num_4'],,0.0551035897806,0,"['num_0', 'num_0', 'num_0', 'num_4']",0,"[0.00027569232042878866, 0.07091117952950299, 0.5715146666625515, 1.2551774359308183]",0,2018_Jun_03_1700,60.049369822,sequenceLearningTask,001,118,
min1.png,min2.png,min3.png,min4.png,images/allBlank.png,images/min4.png,'num_0',"['num_7', 'num_4', 'num_1', 'num_0']",['num_0'],num_0,,,,,0,9,9,9,3,3,15,3,,,,,['num_0'],,0.0555782564916,1,['num_0'],0,[1.2355495383962989],1,2018_Jun_03_1700,60.049369822,sequenceLearningTask,001,118,
min1.png,min2.png,min3.png,min4.png,images/allBlank.png,images/min1.png,'num_7',"['num_7', 'num_4', 'num_1', 'num_0']",['num_7'],num_7,,,,,0,9,9,9,4,0,16,0,,,,,['num_7'],,0.0572557948763,1,['num_7'],0,[0.6021887179231271],1,2018_Jun_03_1700,60.049369822,sequenceLearningTask,001,118,
min1.png,min2.png,min3.png,min4.png,images/allBlank.png,images/min4.png,'num_0',"['num_7', 'num_4', 'num_1', 'num_0']",['num_0'],num_0,,,,,0,9,9,9,4,1,17,3,,,,,['num_0'],,0.0517128205393,1,['num_0'],0,[0.5242531282128766],1,2018_Jun_03_1700,60.049369822,sequenceLearningTask,001,118,
min1.png,min2.png,min3.png,min4.png,images/allBlank.png,images/min2.png,'num_4',"['num_7', 'num_4', 'num_1', 'num_0']",['num_4'],num_4,,,,,0,9,9,9,4,2,18,1,,,,,['num_4'],,0.052153846249,1,['num_4'],0,[2.5917403077473864],1,2018_Jun_03_1700,60.049369822,sequenceLearningTask,001,118,
min1.png,min2.png,min3.png,min4.png,images/allBlank.png,images/min3.png,'num_1',"['num_7', 'num_4', 'num_1', 'num_0']",['num_1'],num_1,,,,,0,9,9,9,4,3,19,2,,,,,['num_1'],,0.0545706666308,1,['num_1'],0,[0.7379700512392446],1,2018_Jun_03_1700,60.049369822,sequenceLearningTask,001,118,
min1.png,min2.png,min3.png,min4.png,images/allBlank.png,images/min3.png,'num_1',"['num_7', 'num_4', 'num_1', 'num_0']",['num_1'],num_1,,,,,0,9,9,9,5,0,20,2,,,,,['num_1'],,0.0586330257356,1,['num_1'],0,[0.6160172306699678],1,2018_Jun_03_1700,60.049369822,sequenceLearningTask,001,118,
min1.png,min2.png,min3.png,min4.png,images/allBlank.png,images/min1.png,'num_7',"['num_7', 'num_4', 'num_1', 'num_0']",['num_7'],num_7,,,,,0,9,9,9,5,1,21,0,,,,,['num_7'],,0.0538724103244,1,['num_7'],0,[0.5718387691304088],1,2018_Jun_03_1700,60.049369822,sequenceLearningTask,001,118,
min1.png,min2.png,min3.png,min4.png,images/allBlank.png,images/min4.png,'num_0',"['num_7', 'num_4', 'num_1', 'num_0']",['num_0'],num_0,,,,,0,9,9,9,5,2,22,3,,,,,['num_0'],,0.0560155897401,1,['num_0'],0,[0.4022732308367267],1,2018_Jun_03_1700,60.049369822,sequenceLearningTask,001,118,
min1.png,min2.png,min3.png,min4.png,images/allBlank.png,images/min2.png,'num_4',"['num_7', 'num_4', 'num_1', 'num_0']",['num_4'],num_4,,,,,0,9,9,9,5,3,23,1,,,,,['num_4'],,0.0552586667472,0,"['num_1', 'num_4']",0,"[0.5700225641485304, 0.9035811282228678]",0,2018_Jun_03_1700,60.049369822,sequenceLearningTask,001,118,
min1.png,min2.png,min3.png,min4.png,images/allBlank.png,images/min3.png,'num_1',"['num_7', 'num_4', 'num_1', 'num_0']",['num_1'],num_1,,,,,0,9,9,9,6,0,24,2,,,,,['num_1'],,0.0538391794544,1,['num_1'],0,[0.47196348721627146],1,2018_Jun_03_1700,60.049369822,sequenceLearningTask,001,118,
min1.png,min2.png,min3.png,min4.png,images/allBlank.png,images/min4.png,'num_0',"['num_7', 'num_4', 'num_1', 'num_0']",['num_0'],num_0,,,,,0,9,9,9,6,1,25,3,,,,,['num_0'],,0.05095589743,1,['num_0'],0,[0.5584233845584095],1,2018_Jun_03_1700,60.049369822,sequenceLearningTask,001,118,
min1.png,min2.png,min3.png,min4.png,images/allBlank.png,images/min1.png,'num_7',"['num_7', 'num_4', 'num_1', 'num_0']",['num_7'],num_7,,,,,0,9,9,9,6,2,26,0,,,,,['num_7'],,0.0582851282088,1,['num_7'],0,[0.43415917945094407],1,2018_Jun_03_1700,60.049369822,sequenceLearningTask,001,118,
min1.png,min2.png,min3.png,min4.png,images/allBlank.png,images/min2.png,'num_4',"['num_7', 'num_4', 'num_1', 'num_0']",['num_4'],num_4,,,,,0,9,9,9,6,3,27,1,,,,,['num_4'],,0.0535331282299,1,['num_4'],0,[0.4379109743749723],1,2018_Jun_03_1700,60.049369822,sequenceLearningTask,001,118,
min1.png,min2.png,min3.png,min4.png,images/allBlank.png,images/min1.png,'num_7',"['num_7', 'num_4', 'num_1', 'num_0']",['num_7'],num_7,,,,,0,9,9,9,7,0,28,0,,,,,['num_7'],,0.0552820513258,1,['num_7'],0,[0.6354404102312401],1,2018_Jun_03_1700,60.049369822,sequenceLearningTask,001,118,
min1.png,min2.png,min3.png,min4.png,images/allBlank.png,images/min3.png,'num_1',"['num_7', 'num_4', 'num_1', 'num_0']",['num_1'],num_1,,,,,0,9,9,9,7,1,29,2,,,,,['num_1'],,0.0529530256754,1,['num_1'],0,[0.38872041017748415],1,2018_Jun_03_1700,60.049369822,sequenceLearningTask,001,118,
min1.png,min2.png,min3.png,min4.png,images/allBlank.png,images/min2.png,'num_4',"['num_7', 'num_4', 'num_1', 'num_0']",['num_4'],num_4,,,,,0,9,9,9,7,2,30,1,,,,,['num_4'],,0.0548135384452,1,['num_4'],0,[0.654269948718138],1,2018_Jun_03_1700,60.049369822,sequenceLearningTask,001,118,
min1.png,min2.png,min3.png,min4.png,images/allBlank.png,images/min4.png,'num_0',"['num_7', 'num_4', 'num_1', 'num_0']",['num_0'],num_0,,,,,0,9,9,9,7,3,31,3,,,,,['num_0'],,0.0497833845438,1,['num_0'],0,[0.6269714870722964],1,2018_Jun_03_1700,60.049369822,sequenceLearningTask,001,118,
min1.png,min2.png,min3.png,min4.png,images/allBlank.png,images/min3.png,'num_1',"['num_7', 'num_4', 'num_1', 'num_0']",['num_1'],num_1,,,,,0,9,9,9,8,0,32,2,,,,,['num_1'],,0.0574625640875,0,"['num_4', 'num_1']",0,"[0.749882256379351, 1.1178843076340854]",0,2018_Jun_03_1700,60.049369822,sequenceLearningTask,001,118,
min1.png,min2.png,min3.png,min4.png,images/allBlank.png,images/min1.png,'num_7',"['num_7', 'num_4', 'num_1', 'num_0']",['num_7'],num_7,,,,,0,9,9,9,8,1,33,0,,,,,['num_7'],,0.0569292308064,1,['num_7'],0,[0.6008800000417978],1,2018_Jun_03_1700,60.049369822,sequenceLearningTask,001,118,
min1.png,min2.png,min3.png,min4.png,images/allBlank.png,images/min4.png,'num_0',"['num_7', 'num_4', 'num_1', 'num_0']",['num_0'],num_0,,,,,0,9,9,9,8,2,34,3,,,,,['num_0'],,0.056480410276,1,['num_0'],0,[0.6024611281463876],1,2018_Jun_03_1700,60.049369822,sequenceLearningTask,001,118,
min1.png,min2.png,min3.png,min4.png,images/allBlank.png,images/min2.png,'num_4',"['num_7', 'num_4', 'num_1', 'num_0']",['num_4'],num_4,,,,,0,9,9,9,8,3,35,1,,,,,['num_4'],,0.0549534357851,1,['num_4'],0,[0.6716578461928293],1,2018_Jun_03_1700,60.049369822,sequenceLearningTask,001,118,
min1.png,min2.png,min3.png,min4.png,images/allBlank.png,images/min3.png,'num_1',"['num_7', 'num_4', 'num_1', 'num_0']",['num_1'],num_1,,,,,0,9,9,9,9,0,36,2,,,,,['num_1'],,0.0535979487468,0,"['num_1', 'num_0', 'num_1']",0,"[0.4402334358310327, 1.0728783590020612]",0,2018_Jun_03_1700,60.049369822,sequenceLearningTask,001,118,
min1.png,min2.png,min3.png,min4.png,images/allBlank.png,images/min4.png,'num_0',"['num_7', 'num_4', 'num_1', 'num_0']",['num_0'],num_0,,,,,0,9,9,9,9,1,37,3,,,,,['num_0'],,0.0519179487601,1,['num_0'],0,[0.6760828718543053],1,2018_Jun_03_1700,60.049369822,sequenceLearningTask,001,118,
min1.png,min2.png,min3.png,min4.png,images/allBlank.png,images/min2.png,'num_4',"['num_7', 'num_4', 'num_1', 'num_0']",['num_4'],num_4,,,,,0,9,9,9,9,2,38,1,,,,,['num_4'],,0.0605883076787,1,['num_4'],0,[0.6983708718325943],1,2018_Jun_03_1700,60.049369822,sequenceLearningTask,001,118,
min1.png,min2.png,min3.png,min4.png,images/allBlank.png,images/min1.png,'num_7',"['num_7', 'num_4', 'num_1', 'num_0']",['num_7'],num_7,,,,,0,9,9,9,9,3,39,0,,,,,['num_7'],,0.0488763076719,1,['num_7'],0,[0.593961846199818],1,2018_Jun_03_1700,60.049369822,sequenceLearningTask,001,118,
min1.png,min2.png,min3.png,min4.png,images/allBlank.png,images/min1.png,'num_7',"['num_7', 'num_4', 'num_1', 'num_0']",['num_7'],num_7,,,,,0,9,9,9,10,0,40,0,,,,,['num_7'],,0.0546896411106,1,['num_7'],0,[0.7528664615238085],1,2018_Jun_03_1700,60.049369822,sequenceLearningTask,001,118,
min1.png,min2.png,min3.png,min4.png,images/allBlank.png,images/min3.png,'num_1',"['num_7', 'num_4', 'num_1', 'num_0']",['num_1'],num_1,,,,,0,9,9,9,10,1,41,2,,,,,['num_1'],,0.0558055384317,1,['num_1'],0,[0.6864980512764305],1,2018_Jun_03_1700,60.049369822,sequenceLearningTask,001,118,
min1.png,min2.png,min3.png,min4.png,images/allBlank.png,images/min2.png,'num_4',"['num_7', 'num_4', 'num_1', 'num_0']",['num_4'],num_4,,,,,0,9,9,9,10,2,42,1,,,,,['num_4'],,0.0595269744517,1,['num_4'],0,[0.9988041026517749],1,2018_Jun_03_1700,60.049369822,sequenceLearningTask,001,118,
min1.png,min2.png,min3.png,min4.png,images/allBlank.png,images/min4.png,'num_0',"['num_7', 'num_4', 'num_1', 'num_0']",['num_0'],num_0,,,,,0,9,9,9,10,3,43,3,,,,,['num_0'],,0.0563528204802,1,['num_0'],0,[0.5854116922710091],1,2018_Jun_03_1700,60.049369822,sequenceLearningTask,001,118,
min1.png,min2.png,min3.png,min4.png,images/allBlank.png,images/min1.png,'num_7',"['num_7', 'num_4', 'num_1', 'num_0']",['num_7'],num_7,,,,,0,9,9,9,11,0,44,0,,,,,['num_7'],,0.0503019487951,1,['num_7'],0,[0.4587364102480933],1,2018_Jun_03_1700,60.049369822,sequenceLearningTask,001,118,
min1.png,min2.png,min3.png,min4.png,images/allBlank.png,images/min4.png,'num_0',"['num_7', 'num_4', 'num_1', 'num_0']",['num_0'],num_0,,,,,0,9,9,9,11,1,45,3,,,,,['num_0'],,0.0547003076645,1,['num_0'],0,[0.6385124103398994],1,2018_Jun_03_1700,60.049369822,sequenceLearningTask,001,118,
min1.png,min2.png,min3.png,min4.png,images/allBlank.png,images/min3.png,'num_1',"['num_7', 'num_4', 'num_1', 'num_0']",['num_1'],num_1,,,,,0,9,9,9,11,2,46,2,,,,,['num_1'],,0.0546793845715,1,['num_1'],0,[0.787412102567032],1,2018_Jun_03_1700,60.049369822,sequenceLearningTask,001,118,
min1.png,min2.png,min3.png,min4.png,images/allBlank.png,images/min2.png,'num_4',"['num_7', 'num_4', 'num_1', 'num_0']",['num_4'],num_4,,,,,0,9,9,9,11,3,47,1,,,,,['num_4'],,0.0546834871639,1,['num_4'],0,[0.6041653333231807],1,2018_Jun_03_1700,60.049369822,sequenceLearningTask,001,118,
min1.png,min2.png,min3.png,min4.png,images/allBlank.png,images/min3.png,'num_1',"['num_7', 'num_4', 'num_1', 'num_0']",['num_1'],num_1,,,,,0,9,9,9,12,0,48,2,,,,,['num_1'],,0.0538998974953,0,"['num_7', 'num_1']",0,"[0.8054186666850001, 1.5397394872270525]",0,2018_Jun_03_1700,60.049369822,sequenceLearningTask,001,118,
min1.png,min2.png,min3.png,min4.png,images/allBlank.png,images/min1.png,'num_7',"['num_7', 'num_4', 'num_1', 'num_0']",['num_7'],num_7,,,,,0,9,9,9,12,1,49,0,,,,,['num_7'],,0.0332795897266,1,['num_7'],0,[0.9956771282013506],1,2018_Jun_03_1700,60.049369822,sequenceLearningTask,001,118,
min1.png,min2.png,min3.png,min4.png,images/allBlank.png,images/min4.png,'num_0',"['num_7', 'num_4', 'num_1', 'num_0']",['num_0'],num_0,,,,,0,9,9,9,12,2,50,3,,,,,['num_0'],,0.0538502563722,1,['num_0'],0,[0.5880533333402127],1,2018_Jun_03_1700,60.049369822,sequenceLearningTask,001,118,
min1.png,min2.png,min3.png,min4.png,images/allBlank.png,images/min2.png,'num_4',"['num_7', 'num_4', 'num_1', 'num_0']",['num_4'],num_4,,,,,0,9,9,9,12,3,51,1,,,,,['num_4'],,0.0429218461504,0,"['num_7', 'num_4']",0,"[0.8173423589905724, 1.4669415384996682]",0,2018_Jun_03_1700,60.049369822,sequenceLearningTask,001,118,
min1.png,min2.png,min3.png,min4.png,images/allBlank.png,images/min1.png,'num_7',"['num_7', 'num_4', 'num_1', 'num_0']",['num_7'],num_7,,,,,0,9,9,9,13,0,52,0,,,,,['num_7'],,0.0606453333749,1,['num_7'],0,[0.6976890256628394],1,2018_Jun_03_1700,60.049369822,sequenceLearningTask,001,118,
min1.png,min2.png,min3.png,min4.png,images/allBlank.png,images/min4.png,'num_0',"['num_7', 'num_4', 'num_1', 'num_0']",['num_0'],num_0,,,,,0,9,9,9,13,1,53,3,,,,,['num_0'],,0.0569952820661,1,['num_0'],0,[0.6354559999890625],1,2018_Jun_03_1700,60.049369822,sequenceLearningTask,001,118,
min1.png,min2.png,min3.png,min4.png,images/allBlank.png,images/min2.png,'num_4',"['num_7', 'num_4', 'num_1', 'num_0']",['num_4'],num_4,,,,,0,9,9,9,13,2,54,1,,,,,['num_4'],,0.0572106667096,1,['num_4'],0,[0.41810461541172117],1,2018_Jun_03_1700,60.049369822,sequenceLearningTask,001,118,
min1.png,min2.png,min3.png,min4.png,images/allBlank.png,images/min3.png,'num_1',"['num_7', 'num_4', 'num_1', 'num_0']",['num_1'],num_1,,,,,0,9,9,9,13,3,55,2,,,,,['num_1'],,0.0625583590008,1,['num_1'],0,[0.37848533340729773],1,2018_Jun_03_1700,60.049369822,sequenceLearningTask,001,118,
min1.png,min2.png,min3.png,min4.png,images/allBlank.png,images/min2.png,'num_4',"['num_7', 'num_4', 'num_1', 'num_0']",['num_4'],num_4,,,,,0,9,9,9,14,0,56,1,,,,,['num_4'],,0.0520652307896,0,"['num_7', 'num_7', 'num_7', 'num_7', 'num_7', 'num_7', 'num_7', 'num_7', 'num_7', 'num_4']",0,"[0.5901193845784292, 1.2075536410557106, 1.5909755897009745, 1.8393948717275634, 2.023431384586729, 2.1902211281703785, 2.3906970255775377, 2.573995487182401, 2.7242621538462117, 4.29114707687404]",0,2018_Jun_03_1700,60.049369822,sequenceLearningTask,001,118,
min1.png,min2.png,min3.png,min4.png,images/allBlank.png,images/min4.png,'num_0',"['num_7', 'num_4', 'num_1', 'num_0']",['num_0'],num_0,,,,,0,9,9,9,14,1,57,3,,,,,['num_0'],,0.0571204102598,1,['num_0'],0,[0.7178687179693952],1,2018_Jun_03_1700,60.049369822,sequenceLearningTask,001,118,
min1.png,min2.png,min3.png,min4.png,images/allBlank.png,images/min1.png,'num_7',"['num_7', 'num_4', 'num_1', 'num_0']",['num_7'],num_7,,,,,0,9,9,9,14,2,58,0,,,,,['num_7'],,0.0587790769059,1,['num_7'],0,[0.6158424614695832],1,2018_Jun_03_1700,60.049369822,sequenceLearningTask,001,118,
min1.png,min2.png,min3.png,min4.png,images/allBlank.png,images/min3.png,'num_1',"['num_7', 'num_4', 'num_1', 'num_0']",['num_1'],num_1,,,,,0,9,9,9,14,3,59,2,,,,,['num_1'],,0.0529801025987,1,['num_1'],0,[0.722992820548825],1,2018_Jun_03_1700,60.049369822,sequenceLearningTask,001,118,
min1.png,min2.png,min3.png,min4.png,images/allBlank.png,images/min2.png,'num_4',"['num_7', 'num_4', 'num_1', 'num_0']",['num_4'],num_4,,,,,0,9,9,9,15,0,60,1,,,,,['num_4'],,0.0543355897535,1,['num_4'],0,[0.5714982564095408],1,2018_Jun_03_1700,60.049369822,sequenceLearningTask,001,118,
min1.png,min2.png,min3.png,min4.png,images/allBlank.png,images/min4.png,'num_0',"['num_7', 'num_4', 'num_1', 'num_0']",['num_0'],num_0,,,,,0,9,9,9,15,1,61,3,,,,,['num_0'],,0.0502822564449,1,['num_0'],0,[0.5408188718138263],1,2018_Jun_03_1700,60.049369822,sequenceLearningTask,001,118,
min1.png,min2.png,min3.png,min4.png,images/allBlank.png,images/min3.png,'num_1',"['num_7', 'num_4', 'num_1', 'num_0']",['num_1'],num_1,,,,,0,9,9,9,15,2,62,2,,,,,['num_1'],,0.0531458462356,1,['num_1'],0,[0.5383602051297203],1,2018_Jun_03_1700,60.049369822,sequenceLearningTask,001,118,
min1.png,min2.png,min3.png,min4.png,images/allBlank.png,images/min1.png,'num_7',"['num_7', 'num_4', 'num_1', 'num_0']",['num_7'],num_7,,,,,0,9,9,9,15,3,63,0,,,,,['num_7'],,0.0526240000036,1,['num_7'],0,[0.6066240000072867],1,2018_Jun_03_1700,60.049369822,sequenceLearningTask,001,118,
min1.png,min2.png,min3.png,min4.png,images/allBlank.png,images/min3.png,'num_1',"['num_7', 'num_4', 'num_1', 'num_0']",['num_1'],num_1,,,,,0,9,9,9,16,0,64,2,,,,,['num_1'],,0.057275897474,1,['num_1'],0,[0.5509288206230849],1,2018_Jun_03_1700,60.049369822,sequenceLearningTask,001,118,
min1.png,min2.png,min3.png,min4.png,images/allBlank.png,images/min1.png,'num_7',"['num_7', 'num_4', 'num_1', 'num_0']",['num_7'],num_7,,,,,0,9,9,9,16,1,65,0,,,,,['num_7'],,0.0540221538395,1,['num_7'],0,[1.4879175384994596],1,2018_Jun_03_1700,60.049369822,sequenceLearningTask,001,118,
min1.png,min2.png,min3.png,min4.png,images/allBlank.png,images/min4.png,'num_0',"['num_7', 'num_4', 'num_1', 'num_0']",['num_0'],num_0,,,,,0,9,9,9,16,2,66,3,,,,,['num_0'],,0.0623971282039,1,['num_0'],0,[0.6948594871209934],1,2018_Jun_03_1700,60.049369822,sequenceLearningTask,001,118,
min1.png,min2.png,min3.png,min4.png,images/allBlank.png,images/min2.png,'num_4',"['num_7', 'num_4', 'num_1', 'num_0']",['num_4'],num_4,,,,,0,9,9,9,16,3,67,1,,,,,['num_4'],,0.0596024615224,1,['num_4'],0,[0.9823655384825543],1,2018_Jun_03_1700,60.049369822,sequenceLearningTask,001,118,
min1.png,min2.png,min3.png,min4.png,images/allBlank.png,images/min4.png,'num_0',"['num_7', 'num_4', 'num_1', 'num_0']",['num_0'],num_0,,,,,0,9,9,9,17,0,68,3,,,,,['num_0'],,0.0506900512846,0,"['num_1', 'num_0']",0,"[0.5922773333732039, 1.1099052308127284]",0,2018_Jun_03_1700,60.049369822,sequenceLearningTask,001,118,
min1.png,min2.png,min3.png,min4.png,images/allBlank.png,images/min2.png,'num_4',"['num_7', 'num_4', 'num_1', 'num_0']",['num_4'],num_4,,,,,0,9,9,9,17,1,69,1,,,,,['num_4'],,0.0592619486852,0,"['num_0', 'num_0', 'num_4']",0,"[0.2313083077315241, 0.7467044102959335, 4.731221333378926]",0,2018_Jun_03_1700,60.049369822,sequenceLearningTask,001,118,
min1.png,min2.png,min3.png,min4.png,images/allBlank.png,images/min1.png,'num_7',"['num_7', 'num_4', 'num_1', 'num_0']",['num_7'],num_7,,,,,0,9,9,9,17,2,70,0,,,,,['num_7'],,0.0607950768899,1,['num_7'],0,[0.6154900513356552],1,2018_Jun_03_1700,60.049369822,sequenceLearningTask,001,118,
min1.png,min2.png,min3.png,min4.png,images/allBlank.png,images/min3.png,'num_1',"['num_7', 'num_4', 'num_1', 'num_0']",['num_1'],num_1,,,,,0,9,9,9,17,3,71,2,,,,,['num_1'],,0.0553718974115,0,"['num_0', 'num_1']",0,"[0.5544336410239339, 1.021625846158713]",0,2018_Jun_03_1700,60.049369822,sequenceLearningTask,001,118,
min1.png,min2.png,min3.png,min4.png,images/allBlank.png,images/min2.png,'num_4',"['num_7', 'num_4', 'num_1', 'num_0']",['num_4'],num_4,,,,,0,9,9,9,18,0,72,1,,,,,['num_4'],,0.0737809230341,1,['num_4'],0,[0.8320492308121175],1,2018_Jun_03_1700,60.049369822,sequenceLearningTask,001,118,
min1.png,min2.png,min3.png,min4.png,images/allBlank.png,images/min3.png,'num_1',"['num_7', 'num_4', 'num_1', 'num_0']",['num_1'],num_1,,,,,0,9,9,9,18,1,73,2,,,,,['num_1'],,0.0565665641334,1,['num_1'],0,[0.9356964103644714],1,2018_Jun_03_1700,60.049369822,sequenceLearningTask,001,118,
min1.png,min2.png,min3.png,min4.png,images/allBlank.png,images/min4.png,'num_0',"['num_7', 'num_4', 'num_1', 'num_0']",['num_0'],num_0,,,,,0,9,9,9,18,2,74,3,,,,,['num_0'],,0.0537189743482,1,['num_0'],0,[0.5557173333363608],1,2018_Jun_03_1700,60.049369822,sequenceLearningTask,001,118,
min1.png,min2.png,min3.png,min4.png,images/allBlank.png,images/min1.png,'num_7',"['num_7', 'num_4', 'num_1', 'num_0']",['num_7'],num_7,,,,,0,9,9,9,18,3,75,0,,,,,['num_7'],,0.0529661539476,1,['num_7'],0,[1.3735101538477466],1,2018_Jun_03_1700,60.049369822,sequenceLearningTask,001,118,
min1.png,min2.png,min3.png,min4.png,images/allBlank.png,images/min2.png,'num_4',"['num_7', 'num_4', 'num_1', 'num_0']",['num_4'],num_4,,,,,0,9,9,9,19,0,76,1,,,,,['num_4'],,0.0605185640743,1,['num_4'],0,[0.3992438974091783],1,2018_Jun_03_1700,60.049369822,sequenceLearningTask,001,118,
min1.png,min2.png,min3.png,min4.png,images/allBlank.png,images/min1.png,'num_7',"['num_7', 'num_4', 'num_1', 'num_0']",['num_7'],num_7,,,,,0,9,9,9,19,1,77,0,,,,,['num_7'],,0.0567852308741,1,['num_7'],0,[0.6192172307055444],1,2018_Jun_03_1700,60.049369822,sequenceLearningTask,001,118,
min1.png,min2.png,min3.png,min4.png,images/allBlank.png,images/min3.png,'num_1',"['num_7', 'num_4', 'num_1', 'num_0']",['num_1'],num_1,,,,,0,9,9,9,19,2,78,2,,,,,['num_1'],,0.0515975385206,1,['num_1'],0,[0.6573337436420843],1,2018_Jun_03_1700,60.049369822,sequenceLearningTask,001,118,
min1.png,min2.png,min3.png,min4.png,images/allBlank.png,images/min4.png,'num_0',"['num_7', 'num_4', 'num_1', 'num_0']",['num_0'],num_0,,,,,0,9,9,9,19,3,79,3,,,,,['num_0'],,0.0631446153857,0,"['num_0', 'num_0']",0,"[0.00033230765257030725, 0.5277985640568659]",0,2018_Jun_03_1700,60.049369822,sequenceLearningTask,001,118,
min1.png,min2.png,min3.png,min4.png,allBlank.png,,,,['num_7'],,,,,,0,0,0,0,,,,,,,,,['num_7'],1,0.0476139487,1,['num_7'],0,[1.338413538527675],,2018_Jun_03_1700,60.049369822,sequenceLearningTask,001,118,
min1.png,min2.png,min3.png,min4.png,allBlank.png,,,,['num_1'],,,,,,0,0,0,0,,,,,,,,,['num_1'],1,0.0501021539094,1,['num_1'],0,[0.7945813332917169],,2018_Jun_03_1700,60.049369822,sequenceLearningTask,001,118,
min1.png,min2.png,min3.png,min4.png,allBlank.png,,,,['num_4'],,,,,,0,0,0,0,,,,,,,,,['num_4'],1,0.0543544616085,0,"['num_0', 'num_0', 'num_7', 'num_4']",0,"[0.6568529231008142, 1.5233698461670429, 3.273300923057832, 3.6562375384382904]",,2018_Jun_03_1700,60.049369822,sequenceLearningTask,001,118,
min1.png,min2.png,min3.png,min4.png,allBlank.png,,,,['num_0'],,,,,,0,0,0,0,,,,,,,,,['num_0'],1,0.0500098462217,1,['num_0'],0,[0.9113924102857709],,2018_Jun_03_1700,60.049369822,sequenceLearningTask,001,118,
min1.png,min2.png,min3.png,min4.png,allBlank.png,,,,['num_0'],,,,,,0,0,0,0,,,,,,,,,['num_0'],1,0.0395696409978,1,['num_0'],0,[3.440882051247172],,2018_Jun_03_1700,60.049369822,sequenceLearningTask,001,118,
min1.png,min2.png,min3.png,min4.png,allBlank.png,,,,['num_4'],,,,,,0,0,0,0,,,,,,,,,['num_4'],1,0.0557755896589,1,['num_4'],0,[1.0551774358609691],,2018_Jun_03_1700,60.049369822,sequenceLearningTask,001,118,
min1.png,min2.png,min3.png,min4.png,allBlank.png,,,,['num_1'],,,,,,0,0,0,0,,,,,,,,,['num_1'],1,0.0580771282548,1,['num_1'],0,[1.3377177435904741],,2018_Jun_03_1700,60.049369822,sequenceLearningTask,001,118,
min1.png,min2.png,min3.png,min4.png,allBlank.png,,,,['num_0'],,,,,,0,0,0,0,,,,,,,,,['num_0'],1,0.0536754871719,1,['num_0'],0,[1.725198769243434],,2018_Jun_03_1700,60.049369822,sequenceLearningTask,001,118,
min1.png,min2.png,min3.png,min4.png,allBlank.png,,,,['num_7'],,,,,,0,1,1,1,,,,,,,,,['num_7'],2,0.0522580513498,1,['num_7'],0,[0.673586871707812],,2018_Jun_03_1700,60.049369822,sequenceLearningTask,001,118,
min1.png,min2.png,min3.png,min4.png,allBlank.png,,,,['num_1'],,,,,,0,1,1,1,,,,,,,,,['num_1'],2,0.0524705641437,0,"['num_4', 'num_4', 'num_1']",0,"[0.5576607179827988, 1.1417177435941994, 1.3757907692342997]",,2018_Jun_03_1700,60.049369822,sequenceLearningTask,001,118,
min1.png,min2.png,min3.png,min4.png,allBlank.png,,,,['num_4'],,,,,,0,1,1,1,,,,,,,,,['num_4'],2,0.057574974373,0,"['num_0', 'num_7', 'num_4']",0,"[0.00039425643626600504, 0.6863446154166013, 1.803049435839057]",,2018_Jun_03_1700,60.049369822,sequenceLearningTask,001,118,
min1.png,min2.png,min3.png,min4.png,allBlank.png,,,,['num_0'],,,,,,0,1,1,1,,,,,,,,,['num_0'],2,0.0595766153419,0,"['num_1', 'num_0']",0,"[0.6356648205546662, 1.0508164103375748]",,2018_Jun_03_1700,60.049369822,sequenceLearningTask,001,118,
min1.png,min2.png,min3.png,min4.png,allBlank.png,,,,['num_0'],,,,,,0,1,1,1,,,,,,,,,['num_0'],2,0.0598166153068,0,"['num_1', 'num_0']",0,"[1.0510962051339447, 2.3844779486535117]",,2018_Jun_03_1700,60.049369822,sequenceLearningTask,001,118,
min1.png,min2.png,min3.png,min4.png,allBlank.png,,,,['num_4'],,,,,,0,1,1,1,,,,,,,,,['num_4'],2,0.0882026666077,1,['num_4'],0,[1.2538962051039562],,2018_Jun_03_1700,60.049369822,sequenceLearningTask,001,118,
min1.png,min2.png,min3.png,min4.png,allBlank.png,,,,['num_1'],,,,,,0,1,1,1,,,,,,,,,['num_1'],2,0.0485107692657,1,['num_1'],0,[1.0637911795638502],,2018_Jun_03_1700,60.049369822,sequenceLearningTask,001,118,
min1.png,min2.png,min3.png,min4.png,allBlank.png,,,,['num_0'],,,,,,0,1,1,1,,,,,,,,,['num_0'],2,0.051870769239,1,['num_0'],0,[1.4922769230324775],,2018_Jun_03_1700,60.049369822,sequenceLearningTask,001,118,
min1.png,min2.png,min3.png,min4.png,allBlank.png,,,,['num_7'],,,,,,0,2,2,2,,,,,,,,,['num_7'],3,0.0551860512933,1,['num_7'],0,[0.9544726153835654],,2018_Jun_03_1700,60.049369822,sequenceLearningTask,001,118,
min1.png,min2.png,min3.png,min4.png,allBlank.png,,,,['num_1'],,,,,,0,2,2,2,,,,,,,,,['num_1'],3,0.0532664615894,1,['num_1'],0,[1.0242875897092745],,2018_Jun_03_1700,60.049369822,sequenceLearningTask,001,118,
min1.png,min2.png,min3.png,min4.png,allBlank.png,,,,['num_4'],,,,,,0,2,2,2,,,,,,,,,['num_4'],3,0.0538904615678,0,"['num_7', 'num_4']",0,"[1.4738945642020553, 1.940129230846651]",,2018_Jun_03_1700,60.049369822,sequenceLearningTask,001,118,
min1.png,min2.png,min3.png,min4.png,allBlank.png,,,,['num_0'],,,,,,0,2,2,2,,,,,,,,,['num_0'],3,0.0581169229699,1,['num_0'],0,[0.6858223589370027],,2018_Jun_03_1700,60.049369822,sequenceLearningTask,001,118,
min1.png,min2.png,min3.png,min4.png,allBlank.png,,,,['num_0'],,,,,,0,2,2,2,,,,,,,,,['num_0'],3,0.0523142564343,1,['num_0'],0,[0.7255126154050231],,2018_Jun_03_1700,60.049369822,sequenceLearningTask,001,118,
min1.png,min2.png,min3.png,min4.png,allBlank.png,,,,['num_4'],,,,,,0,2,2,2,,,,,,,,,['num_4'],3,0.0572463590652,1,['num_4'],0,[0.7869821538915858],,2018_Jun_03_1700,60.049369822,sequenceLearningTask,001,118,
min1.png,min2.png,min3.png,min4.png,allBlank.png,,,,['num_1'],,,,,,0,2,2,2,,,,,,,,,['num_1'],3,0.0551158974413,1,['num_1'],0,[0.7397993846097961],,2018_Jun_03_1700,60.049369822,sequenceLearningTask,001,118,
min1.png,min2.png,min3.png,min4.png,allBlank.png,,,,['num_0'],,,,,,0,2,2,2,,,,,,,,,['num_0'],3,0.0527298462112,1,['num_0'],0,[0.6247425640467554],,2018_Jun_03_1700,60.049369822,sequenceLearningTask,001,118,
min1.png,min2.png,min3.png,min4.png,allBlank.png,,,,['num_7'],,,,,,0,3,3,3,,,,,,,,,['num_7'],4,0.0470252307132,1,['num_7'],0,[0.7141165127977729],,2018_Jun_03_1700,60.049369822,sequenceLearningTask,001,118,
min1.png,min2.png,min3.png,min4.png,allBlank.png,,,,['num_1'],,,,,,0,3,3,3,,,,,,,,,['num_1'],4,0.0567532308633,0,"['num_1', 'num_0', 'num_1']",0,"[0.9726211281958967, 1.4877768204314634]",,2018_Jun_03_1700,60.049369822,sequenceLearningTask,001,118,
min1.png,min2.png,min3.png,min4.png,allBlank.png,,,,['num_4'],,,,,,0,3,3,3,,,,,,,,,['num_4'],4,0.0528012308059,1,['num_4'],0,[0.5249710769858211],,2018_Jun_03_1700,60.049369822,sequenceLearningTask,001,118,
min1.png,min2.png,min3.png,min4.png,allBlank.png,,,,['num_0'],,,,,,0,3,3,3,,,,,,,,,['num_0'],4,0.0494666666491,1,['num_0'],0,[0.44684266671538353],,2018_Jun_03_1700,60.049369822,sequenceLearningTask,001,118,
min1.png,min2.png,min3.png,min4.png,allBlank.png,,,,['num_0'],,,,,,0,3,3,3,,,,,,,,,['num_0'],4,0.0592886153609,1,['num_0'],0,[0.6184475896880031],,2018_Jun_03_1700,60.049369822,sequenceLearningTask,001,118,
min1.png,min2.png,min3.png,min4.png,allBlank.png,,,,['num_4'],,,,,,0,3,3,3,,,,,,,,,['num_4'],4,0.0546067692339,1,['num_4'],0,[0.7567909744102508],,2018_Jun_03_1700,60.049369822,sequenceLearningTask,001,118,
min1.png,min2.png,min3.png,min4.png,allBlank.png,,,,['num_1'],,,,,,0,3,3,3,,,,,,,,,['num_1'],4,0.0542859487468,1,['num_1'],0,[0.35696984617970884],,2018_Jun_03_1700,60.049369822,sequenceLearningTask,001,118,
min1.png,min2.png,min3.png,min4.png,allBlank.png,,,,['num_0'],,,,,,0,3,3,3,,,,,,,,,['num_0'],4,0.0568414358422,1,['num_0'],0,[0.6048615383915603],,2018_Jun_03_1700,60.049369822,sequenceLearningTask,001,118,
min1.png,min2.png,min3.png,min4.png,allBlank.png,,,,['num_7'],,,,,,0,4,4,4,,,,,,,,,['num_7'],5,0.0519581538392,1,['num_7'],0,[0.6082051282282919],,2018_Jun_03_1700,60.049369822,sequenceLearningTask,001,118,
min1.png,min2.png,min3.png,min4.png,allBlank.png,,,,['num_1'],,,,,,0,4,4,4,,,,,,,,,['num_1'],5,0.0546461538179,1,['num_1'],0,[0.7050662563415244],,2018_Jun_03_1700,60.049369822,sequenceLearningTask,001,118,
min1.png,min2.png,min3.png,min4.png,allBlank.png,,,,['num_4'],,,,,,0,4,4,4,,,,,,,,,['num_4'],5,0.0489476923831,1,['num_4'],0,[0.36268717946950346],,2018_Jun_03_1700,60.049369822,sequenceLearningTask,001,118,
min1.png,min2.png,min3.png,min4.png,allBlank.png,,,,['num_0'],,,,,,0,4,4,4,,,,,,,,,['num_0'],5,0.0528016409371,1,['num_0'],0,[0.408285538549535],,2018_Jun_03_1700,60.049369822,sequenceLearningTask,001,118,
min1.png,min2.png,min3.png,min4.png,allBlank.png,,,,['num_0'],,,,,,0,4,4,4,,,,,,,,,['num_0'],5,0.0518063589698,0,"['num_7', 'num_0']",0,"[0.39325005130376667, 0.8272004101891071]",,2018_Jun_03_1700,60.049369822,sequenceLearningTask,001,118,
min1.png,min2.png,min3.png,min4.png,allBlank.png,,,,['num_4'],,,,,,0,4,4,4,,,,,,,,,['num_4'],5,0.0542404102162,1,['num_4'],0,[0.6398223589640111],,2018_Jun_03_1700,60.049369822,sequenceLearningTask,001,118,
min1.png,min2.png,min3.png,min4.png,allBlank.png,,,,['num_1'],,,,,,0,4,4,4,,,,,,,,,['num_1'],5,0.050588717917,1,['num_1'],0,[0.29410133336205035],,2018_Jun_03_1700,60.049369822,sequenceLearningTask,001,118,
min1.png,min2.png,min3.png,min4.png,allBlank.png,,,,['num_0'],,,,,,0,4,4,4,,,,,,,,,['num_0'],5,0.0583261538995,0,"['num_7', 'num_0']",0,"[1.0031163076637313, 2.4859478974249214]",,2018_Jun_03_1700,60.049369822,sequenceLearningTask,001,118,
min1.png,min2.png,min3.png,min4.png,allBlank.png,,,,['num_7'],,,,,,0,5,5,5,,,,,,,,,['num_7'],6,0.0578235897701,1,['num_7'],0,[0.4327052307780832],,2018_Jun_03_1700,60.049369822,sequenceLearningTask,001,118,
min1.png,min2.png,min3.png,min4.png,allBlank.png,,,,['num_1'],,,,,,0,5,5,5,,,,,,,,,['num_1'],6,0.0582494358532,1,['num_1'],0,[1.0033357948996127],,2018_Jun_03_1700,60.049369822,sequenceLearningTask,001,118,
min1.png,min2.png,min3.png,min4.png,allBlank.png,,,,['num_4'],,,,,,0,5,5,5,,,,,,,,,['num_4'],6,0.0539819486439,1,['num_4'],0,[0.32384246157016605],,2018_Jun_03_1700,60.049369822,sequenceLearningTask,001,118,
min1.png,min2.png,min3.png,min4.png,allBlank.png,,,,['num_0'],,,,,,0,5,5,5,,,,,,,,,['num_0'],6,0.0510022564558,1,['num_0'],0,[0.3428406154271215],,2018_Jun_03_1700,60.049369822,sequenceLearningTask,001,118,
min1.png,min2.png,min3.png,min4.png,allBlank.png,,,,['num_0'],,,,,,0,5,5,5,,,,,,,,,['num_0'],6,0.0493907692144,1,['num_0'],0,[0.4955158974044025],,2018_Jun_03_1700,60.049369822,sequenceLearningTask,001,118,
min1.png,min2.png,min3.png,min4.png,allBlank.png,,,,['num_4'],,,,,,0,5,5,5,,,,,,,,,['num_4'],6,0.0528324102052,0,"['num_7', 'num_4']",0,"[1.37530010251794, 1.8246719999006018]",,2018_Jun_03_1700,60.049369822,sequenceLearningTask,001,118,
min1.png,min2.png,min3.png,min4.png,allBlank.png,,,,['num_1'],,,,,,0,5,5,5,,,,,,,,,['num_1'],6,0.0478272819892,1,['num_1'],0,[0.4468709743814543],,2018_Jun_03_1700,60.049369822,sequenceLearningTask,001,118,
min1.png,min2.png,min3.png,min4.png,allBlank.png,,,,['num_0'],,,,,,0,5,5,5,,,,,,,,,['num_0'],6,0.0533850255888,1,['num_0'],0,[0.35827364097349346],,2018_Jun_03_1700,60.049369822,sequenceLearningTask,001,118,
min1.png,min2.png,min3.png,min4.png,allBlank.png,,,,['num_7'],,,,,,0,6,6,6,,,,,,,,,['num_7'],7,0.0566588718211,1,['num_7'],0,[0.670093948720023],,2018_Jun_03_1700,60.049369822,sequenceLearningTask,001,118,
min1.png,min2.png,min3.png,min4.png,allBlank.png,,,,['num_1'],,,,,,0,6,6,6,,,,,,,,,['num_1'],7,0.0576648205752,1,['num_1'],0,[0.5696508717956021],,2018_Jun_03_1700,60.049369822,sequenceLearningTask,001,118,
min1.png,min2.png,min3.png,min4.png,allBlank.png,,,,['num_4'],,,,,,0,6,6,6,,,,,,,,,['num_4'],7,0.0612746666884,0,"['num_7', 'num_7', 'num_4']",0,"[0.46518687170464545, 1.0826912820339203, 2.2327241025632247]",,2018_Jun_03_1700,60.049369822,sequenceLearningTask,001,118,
min1.png,min2.png,min3.png,min4.png,allBlank.png,,,,['num_0'],,,,,,0,6,6,6,,,,,,,,,['num_0'],7,0.0575839999365,1,['num_0'],0,[0.5539716923376545],,2018_Jun_03_1700,60.049369822,sequenceLearningTask,001,118,
min1.png,min2.png,min3.png,min4.png,allBlank.png,,,,['num_0'],,,,,,0,6,6,6,,,,,,,,,['num_0'],7,0.0549755897373,1,['num_0'],0,[0.7550728204660118],,2018_Jun_03_1700,60.049369822,sequenceLearningTask,001,118,
min1.png,min2.png,min3.png,min4.png,allBlank.png,,,,['num_4'],,,,,,0,6,6,6,,,,,,,,,['num_4'],7,0.0535815383773,1,['num_4'],0,[0.4236931282794103],,2018_Jun_03_1700,60.049369822,sequenceLearningTask,001,118,
min1.png,min2.png,min3.png,min4.png,allBlank.png,,,,['num_1'],,,,,,0,6,6,6,,,,,,,,,['num_1'],7,0.0479195897933,1,['num_1'],0,[0.3453037948347628],,2018_Jun_03_1700,60.049369822,sequenceLearningTask,001,118,
min1.png,min2.png,min3.png,min4.png,allBlank.png,,,,['num_0'],,,,,,0,6,6,6,,,,,,,,,['num_0'],7,0.0570399999851,1,['num_0'],0,[0.6045649230945855],,2018_Jun_03_1700,60.049369822,sequenceLearningTask,001,118,
min1.png,min2.png,min3.png,min4.png,allBlank.png,,,,['num_7'],,,,,,0,7,7,7,,,,,,,,,['num_7'],8,0.0574330256786,1,['num_7'],0,[0.3523437948897481],,2018_Jun_03_1700,60.049369822,sequenceLearningTask,001,118,
min1.png,min2.png,min3.png,min4.png,allBlank.png,,,,['num_1'],,,,,,0,7,7,7,,,,,,,,,['num_1'],8,0.0527659488143,0,"['num_4', 'num_1']",0,"[0.5763331281486899, 1.0590699487365782]",,2018_Jun_03_1700,60.049369822,sequenceLearningTask,001,118,
min1.png,min2.png,min3.png,min4.png,allBlank.png,,,,['num_4'],,,,,,0,7,7,7,,,,,,,,,['num_4'],8,0.0534092307789,0,"['num_7', 'num_4']",0,"[1.207206153892912, 2.256763897370547]",,2018_Jun_03_1700,60.049369822,sequenceLearningTask,001,118,
min1.png,min2.png,min3.png,min4.png,allBlank.png,,,,['num_0'],,,,,,0,7,7,7,,,,,,,,,['num_0'],8,0.0546436923323,1,['num_0'],0,[0.6234662564238533],,2018_Jun_03_1700,60.049369822,sequenceLearningTask,001,118,
min1.png,min2.png,min3.png,min4.png,allBlank.png,,,,['num_0'],,,,,,0,7,7,7,,,,,,,,,['num_0'],8,0.0535208204528,1,['num_0'],0,[0.6900996923213825],,2018_Jun_03_1700,60.049369822,sequenceLearningTask,001,118,
min1.png,min2.png,min3.png,min4.png,allBlank.png,,,,['num_4'],,,,,,0,7,7,7,,,,,,,,,['num_4'],8,0.0556955897482,1,['num_4'],0,[0.7554227692307904],,2018_Jun_03_1700,60.049369822,sequenceLearningTask,001,118,
min1.png,min2.png,min3.png,min4.png,allBlank.png,,,,['num_1'],,,,,,0,7,7,7,,,,,,,,,['num_1'],8,0.0545386666199,1,['num_1'],0,[0.40665066661313176],,2018_Jun_03_1700,60.049369822,sequenceLearningTask,001,118,
min1.png,min2.png,min3.png,min4.png,allBlank.png,,,,['num_0'],,,,,,0,7,7,7,,,,,,,,,['num_0'],8,0.0533751795301,1,['num_0'],0,[0.35703794879373163],,2018_Jun_03_1700,60.049369822,sequenceLearningTask,001,118,
min1.png,min2.png,min3.png,min4.png,allBlank.png,,,,['num_7'],,,,,,0,8,8,8,,,,,,,,,['num_7'],9,0.0562888204586,1,['num_7'],0,[0.8869915896793827],,2018_Jun_03_1700,60.049369822,sequenceLearningTask,001,118,
min1.png,min2.png,min3.png,min4.png,allBlank.png,,,,['num_1'],,,,,,0,8,8,8,,,,,,,,,['num_1'],9,0.0531675897073,0,"['num_4', 'num_1']",0,"[0.575020307675004, 0.9930075897136703]",,2018_Jun_03_1700,60.049369822,sequenceLearningTask,001,118,
min1.png,min2.png,min3.png,min4.png,allBlank.png,,,,['num_4'],,,,,,0,8,8,8,,,,,,,,,['num_4'],9,0.0577284102328,0,"['num_0', 'num_1', 'num_4']",0,"[0.23772758967243135, 0.8369087178725749, 1.2361784614622593]",,2018_Jun_03_1700,60.049369822,sequenceLearningTask,001,118,
min1.png,min2.png,min3.png,min4.png,allBlank.png,,,,['num_0'],,,,,,0,8,8,8,,,,,,,,,['num_0'],9,0.058164512855,1,['num_0'],0,[0.5865403077332303],,2018_Jun_03_1700,60.049369822,sequenceLearningTask,001,118,
min1.png,min2.png,min3.png,min4.png,allBlank.png,,,,['num_0'],,,,,,0,8,8,8,,,,,,,,,['num_0'],9,0.0547823590459,0,"['num_1', 'num_0']",0,"[0.5404562051407993, 0.9245009231381118]",,2018_Jun_03_1700,60.049369822,sequenceLearningTask,001,118,
min1.png,min2.png,min3.png,min4.png,allBlank.png,,,,['num_4'],,,,,,0,8,8,8,,,,,,,,,['num_4'],9,0.0519286154304,1,['num_4'],0,[0.9588578460970894],,2018_Jun_03_1700,60.049369822,sequenceLearningTask,001,118,
min1.png,min2.png,min3.png,min4.png,allBlank.png,,,,['num_1'],,,,,,0,8,8,8,,,,,,,,,['num_1'],9,0.0550317948218,0,"['num_0', 'num_0', 'num_1']",0,"[0.5401095384731889, 1.0894043076550588, 1.7244898461503908]",,2018_Jun_03_1700,60.049369822,sequenceLearningTask,001,118,
min1.png,min2.png,min3.png,min4.png,allBlank.png,,,,['num_0'],,,,,,0,8,8,8,,,,,,,,,['num_0'],9,0.0540939486818,1,['num_0'],0,[0.6221997948596254],,2018_Jun_03_1700,60.049369822,sequenceLearningTask,001,118,
min1.png,min2.png,min3.png,min4.png,allBlank.png,,,,['num_7'],,,,,,0,9,9,9,,,,,,,,,['num_7'],10,0.0560381538235,1,['num_7'],0,[0.8547704614466056],,2018_Jun_03_1700,60.049369822,sequenceLearningTask,001,118,
min1.png,min2.png,min3.png,min4.png,allBlank.png,,,,['num_1'],,,,,,0,9,9,9,,,,,,,,,['num_1'],10,0.0570953846909,1,['num_1'],0,[0.6870962051907554],,2018_Jun_03_1700,60.049369822,sequenceLearningTask,001,118,
min1.png,min2.png,min3.png,min4.png,allBlank.png,,,,['num_4'],,,,,,0,9,9,9,,,,,,,,,['num_4'],10,0.0552697436651,1,['num_4'],0,[0.6897755897371098],,2018_Jun_03_1700,60.049369822,sequenceLearningTask,001,118,
min1.png,min2.png,min3.png,min4.png,allBlank.png,,,,['num_0'],,,,,,0,9,9,9,,,,,,,,,['num_0'],10,0.0520726153627,1,['num_0'],0,[0.5926535384496674],,2018_Jun_03_1700,60.049369822,sequenceLearningTask,001,118,
min1.png,min2.png,min3.png,min4.png,allBlank.png,,,,['num_0'],,,,,,0,9,9,9,,,,,,,,,['num_0'],10,0.0491257435642,1,['num_0'],0,[0.6963368204887956],,2018_Jun_03_1700,60.049369822,sequenceLearningTask,001,118,
min1.png,min2.png,min3.png,min4.png,allBlank.png,,,,['num_4'],,,,,,0,9,9,9,,,,,,,,,['num_4'],10,0.0545526152709,1,['num_4'],0,[0.423056410276331],,2018_Jun_03_1700,60.049369822,sequenceLearningTask,001,118,
min1.png,min2.png,min3.png,min4.png,allBlank.png,,,,['num_1'],,,,,,0,9,9,9,,,,,,,,,['num_1'],10,0.0554904615274,0,"['num_0', 'num_4', 'num_1']",0,"[0.6223917949246243, 1.0232110769720748, 1.506558359018527]",,2018_Jun_03_1700,60.049369822,sequenceLearningTask,001,118,
min1.png,min2.png,min3.png,min4.png,allBlank.png,,,,['num_0'],,,,,,0,9,9,9,,,,,,,,,['num_0'],10,0.0567712821066,1,['num_0'],0,[0.40425599995069206],,2018_Jun_03_1700,60.049369822,sequenceLearningTask,001,118,
min1.png,min2.png,min3.png,min4.png,allBlank.png,,,,,,,,,,0,9,9,9,,,,,0,-1,-1,0,,,,,,,,,2018_Jun_03_1700,60.049369822,sequenceLearningTask,001,118,
