pawPatrol1,pawPatrol2,pawPatrol3,pawPatrol4,blank,allowableKey,correctKey,correctKeyPressNum,posLoc,correctKeyPress,randomPaw,im_size,trials.thisRepN,trials.thisTrialN,trials.thisN,trials.thisIndex,trials_3.thisRepN,trials_3.thisTrialN,trials_3.thisN,trials_3.thisIndex,trials_2.thisRepN,trials_2.thisTrialN,trials_2.thisN,trials_2.thisIndex,trials_questions.thisRepN,trials_questions.thisTrialN,trials_questions.thisN,trials_questions.thisIndex,correctLocation,correctImage,repetitionNumber,stimulusPresent.t,responseTimeCorrect,pressLoc,responseTimeIncorrect,trialIncorrect,anticipatoryResponse,date,frameRate,expName,session,participant,
min1.png,min2.png,min3.png,min4.png,allBlank.png,,,,,,,,,,,,0,0,0,0,,,,,,,,,"(-0.75, -0.04)",images/min1.png,1,0.119815745711,1.32105504777,[ 0.728125   -0.08611111],,,,2018_Jun_25_1202,59.7114986563,sequenceLearningTask,001,116,
min1.png,min2.png,min3.png,min4.png,allBlank.png,,,,,,,,,,,,0,0,0,0,,,,,,,,,"(0.25, -0.04)",images/min3.png,1,0.0871917590848,1.14367214619,[-0.7203125   0.01944444],0.532310755982,1,,2018_Jun_25_1202,59.7114986563,sequenceLearningTask,001,116,
min1.png,min2.png,min3.png,min4.png,allBlank.png,,,,,,,,,,,,0,0,0,0,,,,,,,,,"(-0.25, -0.04)",images/min2.png,1,0.0747421231936,0.702269250352,[ 0.2265625  0.05     ],,,,2018_Jun_25_1202,59.7114986563,sequenceLearningTask,001,116,
min1.png,min2.png,min3.png,min4.png,allBlank.png,,,,,,,,,,,,0,0,0,0,,,,,,,,,"(0.75, -0.04)",images/min4.png,1,0.0975105240941,0.690192947601,[-0.175  0.   ],,,,2018_Jun_25_1202,59.7114986563,sequenceLearningTask,001,116,
min1.png,min2.png,min3.png,min4.png,allBlank.png,,,,,,,,,,,,0,0,0,0,,,,,,,,,"(0.75, -0.04)",images/min4.png,1,0.0589447963284,0.930218695285,[ 0.7765625  -0.00277778],,,,2018_Jun_25_1202,59.7114986563,sequenceLearningTask,001,116,
min1.png,min2.png,min3.png,min4.png,allBlank.png,,,,,,,,,,,,0,0,0,0,,,,,,,,,"(-0.25, -0.04)",images/min2.png,1,0.0603384368005,1.19458248426,[ 0.703125    0.08333333],,,,2018_Jun_25_1202,59.7114986563,sequenceLearningTask,001,116,
min1.png,min2.png,min3.png,min4.png,allBlank.png,,,,,,,,,,,,0,0,0,0,,,,,,,,,"(0.25, -0.04)",images/min3.png,1,0.0527843885939,0.991741952108,[-0.3359375  -0.06666667],,,,2018_Jun_25_1202,59.7114986563,sequenceLearningTask,001,116,
min1.png,min2.png,min3.png,min4.png,allBlank.png,,,,,,,,,,,,0,0,0,0,,,,,,,,,"(0.75, -0.04)",images/min4.png,1,0.0576840788999,0.974304420786,[ 0.2453125  0.05     ],,,,2018_Jun_25_1202,59.7114986563,sequenceLearningTask,001,116,
min1.png,min2.png,min3.png,min4.png,allBlank.png,,,,,,,,,,,,0,1,1,1,,,,,,,,,"(-0.75, -0.04)",images/min1.png,2,0.0622531026602,0.855792059156,[ 0.7234375  -0.06666667],,,,2018_Jun_25_1202,59.7114986563,sequenceLearningTask,001,116,
min1.png,min2.png,min3.png,min4.png,allBlank.png,,,,,,,,,,,,0,1,1,1,,,,,,,,,"(0.25, -0.04)",images/min3.png,2,0.0641780249716,0.763710045634,[-0.6203125   0.19444444],,,,2018_Jun_25_1202,59.7114986563,sequenceLearningTask,001,116,
min1.png,min2.png,min3.png,min4.png,allBlank.png,,,,,,,,,,,,0,1,1,1,,,,,,,,,"(-0.25, -0.04)",images/min2.png,2,0.0564282845589,0.721849960246,[ 0.315625    0.00833333],,,,2018_Jun_25_1202,59.7114986563,sequenceLearningTask,001,116,
min1.png,min2.png,min3.png,min4.png,allBlank.png,,,,,,,,,,,,0,1,1,1,,,,,,,,,"(0.75, -0.04)",images/min4.png,2,0.0534510549915,0.956823402317,[-0.265625   -0.04722222],,,,2018_Jun_25_1202,59.7114986563,sequenceLearningTask,001,116,
min1.png,min2.png,min3.png,min4.png,allBlank.png,,,,,,,,,,,,0,1,1,1,,,,,,,,,"(0.75, -0.04)",images/min4.png,2,0.0606018212857,0.614694722171,[ 0.8140625  -0.01944444],,,,2018_Jun_25_1202,59.7114986563,sequenceLearningTask,001,116,
min1.png,min2.png,min3.png,min4.png,allBlank.png,,,,,,,,,,,,0,1,1,1,,,,,,,,,"(-0.25, -0.04)",images/min2.png,2,0.0566354639304,0.888071020279,[ 0.665625   -0.15277778],,,,2018_Jun_25_1202,59.7114986563,sequenceLearningTask,001,116,
min1.png,min2.png,min3.png,min4.png,allBlank.png,,,,,,,,,,,,0,1,1,1,,,,,,,,,"(0.25, -0.04)",images/min3.png,2,0.0615737183252,0.579451659694,[-0.2515625  -0.06388889],,,,2018_Jun_25_1202,59.7114986563,sequenceLearningTask,001,116,
min1.png,min2.png,min3.png,min4.png,allBlank.png,,,,,,,,,,,,0,1,1,1,,,,,,,,,"(0.75, -0.04)",images/min4.png,2,0.0500631589384,0.726825958205,[ 0.1484375  -0.01388889],,,,2018_Jun_25_1202,59.7114986563,sequenceLearningTask,001,116,
min1.png,min2.png,min3.png,min4.png,allBlank.png,,,,,,,,,,,,0,2,2,2,,,,,,,,,"(-0.75, -0.04)",images/min1.png,3,0.0685854077747,0.755370356783,[ 0.7109375   0.23611111],,,,2018_Jun_25_1202,59.7114986563,sequenceLearningTask,001,116,
min1.png,min2.png,min3.png,min4.png,allBlank.png,,,,,,,,,,,,0,2,2,2,,,,,,,,,"(0.25, -0.04)",images/min3.png,3,0.0613796671387,1.3178632542,[-0.621875   -0.06944444],0.311814846413,1,,2018_Jun_25_1202,59.7114986563,sequenceLearningTask,001,116,
min1.png,min2.png,min3.png,min4.png,allBlank.png,,,,,,,,,,,,0,2,2,2,,,,,,,,,"(-0.25, -0.04)",images/min2.png,3,0.0542732084868,1.54299013622,[ 0.2109375  -0.05277778],0.940359409084,1,,2018_Jun_25_1202,59.7114986563,sequenceLearningTask,001,116,
min1.png,min2.png,min3.png,min4.png,allBlank.png,,,,,,,,,,,,0,2,2,2,,,,,,,,,"(0.75, -0.04)",images/min4.png,3,0.0596766934614,2.65732157649,[-0.2328125  -0.17777778],2.20789406856,1,,2018_Jun_25_1202,59.7114986563,sequenceLearningTask,001,116,
min1.png,min2.png,min3.png,min4.png,allBlank.png,,,,,,,,,,,,0,2,2,2,,,,,,,,,"(0.75, -0.04)",images/min4.png,3,0.0532857217186,1.61286046653,[ 0.6515625   0.03888889],,,,2018_Jun_25_1202,59.7114986563,sequenceLearningTask,001,116,
min1.png,min2.png,min3.png,min4.png,allBlank.png,,,,,,,,,,,,0,2,2,2,,,,,,,,,"(-0.25, -0.04)",images/min2.png,3,0.0545612084097,0.95718073551,[ 0.8015625  -0.10277778],,,,2018_Jun_25_1202,59.7114986563,sequenceLearningTask,001,116,
min1.png,min2.png,min3.png,min4.png,allBlank.png,,,,,,,,,,,,0,2,2,2,,,,,,,,,"(0.25, -0.04)",images/min3.png,3,0.0523376195633,0.99243856722,[-0.23125    -0.15833333],,,,2018_Jun_25_1202,59.7114986563,sequenceLearningTask,001,116,
min1.png,min2.png,min3.png,min4.png,allBlank.png,,,,,,,,,,,,0,2,2,2,,,,,,,,,"(0.75, -0.04)",images/min4.png,3,0.0481189546117,1.56778233114,[ 0.1984375  -0.03611111],,,,2018_Jun_25_1202,59.7114986563,sequenceLearningTask,001,116,
min1.png,min2.png,min3.png,min4.png,allBlank.png,,,,,,,,,,,,0,3,3,3,,,,,,,,,"(-0.75, -0.04)",images/min1.png,4,0.0569747458503,1.05343259347,[ 0.7671875  -0.01388889],,,,2018_Jun_25_1202,59.7114986563,sequenceLearningTask,001,116,
min1.png,min2.png,min3.png,min4.png,allBlank.png,,,,,,,,,,,,0,3,3,3,,,,,,,,,"(0.25, -0.04)",images/min3.png,4,0.0601624368574,0.743042156711,[-0.6765625  -0.06944444],,,,2018_Jun_25_1202,59.7114986563,sequenceLearningTask,001,116,
min1.png,min2.png,min3.png,min4.png,allBlank.png,,,,,,,,,,,,0,3,3,3,,,,,,,,,"(-0.25, -0.04)",images/min2.png,4,0.0529985423491,0.786035369849,[ 0.1921875  -0.14722222],,,,2018_Jun_25_1202,59.7114986563,sequenceLearningTask,001,116,
min1.png,min2.png,min3.png,min4.png,allBlank.png,,,,,,,,,,,,0,3,3,3,,,,,,,,,"(0.75, -0.04)",images/min4.png,4,0.0597168985987,0.797160288319,[-0.2203125  -0.31944444],,,,2018_Jun_25_1202,59.7114986563,sequenceLearningTask,001,116,
min1.png,min2.png,min3.png,min4.png,allBlank.png,,,,,,,,,,,,0,3,3,3,,,,,,,,,"(0.75, -0.04)",images/min4.png,4,0.0623622308194,0.809091770643,[ 0.6140625  -0.04722222],,,,2018_Jun_25_1202,59.7114986563,sequenceLearningTask,001,116,
min1.png,min2.png,min3.png,min4.png,allBlank.png,,,,,,,,,,,,0,3,3,3,,,,,,,,,"(-0.25, -0.04)",images/min2.png,4,0.0588266425184,1.1388368661,[ 0.80625    -0.23055556],,,,2018_Jun_25_1202,59.7114986563,sequenceLearningTask,001,116,
min1.png,min2.png,min3.png,min4.png,allBlank.png,,,,,,,,,,,,0,3,3,3,,,,,,,,,"(0.25, -0.04)",images/min3.png,4,0.0581296171877,3.70132935332,[-0.2296875  0.       ],,,,2018_Jun_25_1202,59.7114986563,sequenceLearningTask,001,116,
min1.png,min2.png,min3.png,min4.png,allBlank.png,,,,,,,,,,,,0,3,3,3,,,,,,,,,"(0.75, -0.04)",images/min4.png,4,0.0534075678443,1.58835011758,[ 0.2609375  -0.25277778],,,,2018_Jun_25_1202,59.7114986563,sequenceLearningTask,001,116,
min1.png,min2.png,min3.png,min4.png,allBlank.png,,,,,,,,,,,,0,4,4,4,,,,,,,,,"(-0.75, -0.04)",images/min1.png,5,0.0567774125957,1.29776849321,[ 0.6828125  -0.02222222],,,,2018_Jun_25_1202,59.7114986563,sequenceLearningTask,001,116,
min1.png,min2.png,min3.png,min4.png,allBlank.png,,,,,,,,,,,,0,4,4,4,,,,,,,,,"(0.25, -0.04)",images/min3.png,5,0.058564488776,0.950122687122,[-0.6953125  0.025    ],,,,2018_Jun_25_1202,59.7114986563,sequenceLearningTask,001,116,
min1.png,min2.png,min3.png,min4.png,allBlank.png,,,,,,,,,,,,0,4,4,4,,,,,,,,,"(-0.25, -0.04)",images/min2.png,5,0.0595047961106,0.91637090611,[ 0.2515625   0.05833333],,,,2018_Jun_25_1202,59.7114986563,sequenceLearningTask,001,116,
min1.png,min2.png,min3.png,min4.png,allBlank.png,,,,,,,,,,,,0,4,4,4,,,,,,,,,"(0.75, -0.04)",images/min4.png,5,0.0562042846577,0.705682172033,[-0.2203125  -0.01111111],,,,2018_Jun_25_1202,59.7114986563,sequenceLearningTask,001,116,
min1.png,min2.png,min3.png,min4.png,allBlank.png,,,,,,,,,,,,0,4,4,4,,,,,,,,,"(0.75, -0.04)",images/min4.png,5,0.0592270526104,0.526378860959,[ 0.8140625   0.11388889],,,,2018_Jun_25_1202,59.7114986563,sequenceLearningTask,001,116,
min1.png,min2.png,min3.png,min4.png,allBlank.png,,,,,,,,,,,,0,4,4,4,,,,,,,,,"(-0.25, -0.04)",images/min2.png,5,0.0572368995927,0.80205915813,[ 0.6984375  -0.00555556],,,,2018_Jun_25_1202,59.7114986563,sequenceLearningTask,001,116,
min1.png,min2.png,min3.png,min4.png,allBlank.png,,,,,,,,,,,,0,4,4,4,,,,,,,,,"(0.25, -0.04)",images/min3.png,5,0.0605328982638,0.831129505183,[-0.2921875  -0.08611111],,,,2018_Jun_25_1202,59.7114986563,sequenceLearningTask,001,116,
min1.png,min2.png,min3.png,min4.png,allBlank.png,,,,,,,,,,,,0,4,4,4,,,,,,,,,"(0.75, -0.04)",images/min4.png,5,0.0618448977184,1.09860139547,[ 0.184375   -0.06388889],,,,2018_Jun_25_1202,59.7114986563,sequenceLearningTask,001,116,
min1.png,min2.png,min3.png,min4.png,allBlank.png,,,,,,,,,,,,0,5,5,5,,,,,,,,,"(-0.75, -0.04)",images/min1.png,6,0.0525747476495,1.74934451308,[ 0.7796875   0.00277778],,,,2018_Jun_25_1202,59.7114986563,sequenceLearningTask,001,116,
min1.png,min2.png,min3.png,min4.png,allBlank.png,,,,,,,,,,,,0,5,5,5,,,,,,,,,"(0.25, -0.04)",images/min3.png,6,0.0592172064644,1.83426509364,[-0.7140625  0.225    ],,,,2018_Jun_25_1202,59.7114986563,sequenceLearningTask,001,116,
min1.png,min2.png,min3.png,min4.png,allBlank.png,,,,,,,,,,,,0,5,5,5,,,,,,,,,"(-0.25, -0.04)",images/min2.png,6,0.05950643713,1.02283404191,[ 0.1296875   0.09722222],,,,2018_Jun_25_1202,59.7114986563,sequenceLearningTask,001,116,
min1.png,min2.png,min3.png,min4.png,allBlank.png,,,,,,,,,,,,0,5,5,5,,,,,,,,,"(0.75, -0.04)",images/min4.png,6,0.0584623349714,1.67230167289,[-0.23125    -0.06944444],,,,2018_Jun_25_1202,59.7114986563,sequenceLearningTask,001,116,
min1.png,min2.png,min3.png,min4.png,allBlank.png,,,,,,,,,,,,0,5,5,5,,,,,,,,,"(0.75, -0.04)",images/min4.png,6,0.0610342313594,0.994001233223,[ 0.7296875  0.175    ],,,,2018_Jun_25_1202,59.7114986563,sequenceLearningTask,001,116,
min1.png,min2.png,min3.png,min4.png,allBlank.png,,,,,,,,,,,,0,5,5,5,,,,,,,,,"(-0.25, -0.04)",images/min2.png,6,0.0820717611932,1.35785749421,[ 0.8390625  -0.05277778],,,,2018_Jun_25_1202,59.7114986563,sequenceLearningTask,001,116,
min1.png,min2.png,min3.png,min4.png,allBlank.png,,,,,,,,,,,,0,5,5,5,,,,,,,,,"(0.25, -0.04)",images/min3.png,6,0.0656492038397,4.26012502148,[-0.271875   -0.07222222],,,,2018_Jun_25_1202,59.7114986563,sequenceLearningTask,001,116,
min1.png,min2.png,min3.png,min4.png,allBlank.png,,,,,,,,,,,,0,5,5,5,,,,,,,,,"(0.75, -0.04)",images/min4.png,6,0.0512795686955,0.641418403509,[ 0.3203125  -0.09166667],,,,2018_Jun_25_1202,59.7114986563,sequenceLearningTask,001,116,
min1.png,min2.png,min3.png,min4.png,allBlank.png,,,,,,,,,,,,0,6,6,6,,,,,,,,,"(-0.75, -0.04)",images/min1.png,7,0.0552418235166,3.76596399347,[ 0.7         0.00555556],,,,2018_Jun_25_1202,59.7114986563,sequenceLearningTask,001,116,
min1.png,min2.png,min3.png,min4.png,allBlank.png,,,,,,,,,,,,0,6,6,6,,,,,,,,,"(0.25, -0.04)",images/min3.png,7,0.0559618232073,1.62775194758,[-0.7140625   0.05277778],,,,2018_Jun_25_1202,59.7114986563,sequenceLearningTask,001,116,
min1.png,min2.png,min3.png,min4.png,allBlank.png,,,,,,,,,,,,0,6,6,6,,,,,,,,,"(-0.25, -0.04)",images/min2.png,7,0.064010230155,2.11978046369,[ 0.340625   -0.13055556],,,,2018_Jun_25_1202,59.7114986563,sequenceLearningTask,001,116,
min1.png,min2.png,min3.png,min4.png,allBlank.png,,,,,,,,,,,,0,6,6,6,,,,,,,,,"(0.75, -0.04)",images/min4.png,7,0.0554313618923,1.17565941511,[-0.275      -0.13333333],,,,2018_Jun_25_1202,59.7114986563,sequenceLearningTask,001,116,
min1.png,min2.png,min3.png,min4.png,allBlank.png,,,,,,,,,,,,0,6,6,6,,,,,,,,,"(0.75, -0.04)",images/min4.png,7,0.060729410965,0.743377336039,[ 0.7421875   0.00277778],,,,2018_Jun_25_1202,59.7114986563,sequenceLearningTask,001,116,
min1.png,min2.png,min3.png,min4.png,allBlank.png,,,,,,,,,,,,0,6,6,6,,,,,,,,,"(-0.25, -0.04)",images/min2.png,7,0.0313952691795,0.802910850092,[ 0.78125 -0.325  ],,,,2018_Jun_25_1202,59.7114986563,sequenceLearningTask,001,116,
min1.png,min2.png,min3.png,min4.png,allBlank.png,,,,,,,,,,,,0,6,6,6,,,,,,,,,"(0.25, -0.04)",images/min3.png,7,0.0549833620607,0.565606742341,[-0.2203125   0.04166667],,,,2018_Jun_25_1202,59.7114986563,sequenceLearningTask,001,116,
min1.png,min2.png,min3.png,min4.png,allBlank.png,,,,,,,,,,,,0,6,6,6,,,,,,,,,"(0.75, -0.04)",images/min4.png,7,0.0580266428587,0.55314192691,[ 0.2921875  -0.26944444],,,,2018_Jun_25_1202,59.7114986563,sequenceLearningTask,001,116,
min1.png,min2.png,min3.png,min4.png,allBlank.png,,,,,,,,,,,,0,7,7,7,,,,,,,,,"(-0.75, -0.04)",images/min1.png,8,0.0509882867627,0.75214820425,[ 0.7328125  -0.13333333],,,,2018_Jun_25_1202,59.7114986563,sequenceLearningTask,001,116,
min1.png,min2.png,min3.png,min4.png,allBlank.png,,,,,,,,,,,,0,7,7,7,,,,,,,,,"(0.25, -0.04)",images/min3.png,8,0.0735129954992,0.596837088466,[-0.7875      0.06944444],,,,2018_Jun_25_1202,59.7114986563,sequenceLearningTask,001,116,
min1.png,min2.png,min3.png,min4.png,allBlank.png,,,,,,,,,,,,0,7,7,7,,,,,,,,,"(-0.25, -0.04)",images/min2.png,8,0.0368988566624,0.634574508877,[ 0.2265625  -0.12777778],,,,2018_Jun_25_1202,59.7114986563,sequenceLearningTask,001,116,
min1.png,min2.png,min3.png,min4.png,allBlank.png,,,,,,,,,,,,0,7,7,7,,,,,,,,,"(0.75, -0.04)",images/min4.png,8,0.0567634639156,1.03127342308,[-0.3328125   0.06111111],,,,2018_Jun_25_1202,59.7114986563,sequenceLearningTask,001,116,
min1.png,min2.png,min3.png,min4.png,allBlank.png,,,,,,,,,,,,0,7,7,7,,,,,,,,,"(0.75, -0.04)",images/min4.png,8,0.0634383329598,0.573737200524,[ 0.7828125   0.04722222],,,,2018_Jun_25_1202,59.7114986563,sequenceLearningTask,001,116,
min1.png,min2.png,min3.png,min4.png,allBlank.png,,,,,,,,,,,,0,7,7,7,,,,,,,,,"(-0.25, -0.04)",images/min2.png,8,0.0610063339409,0.747858975228,[ 0.725 -0.275],,,,2018_Jun_25_1202,59.7114986563,sequenceLearningTask,001,116,
min1.png,min2.png,min3.png,min4.png,allBlank.png,,,,,,,,,,,,0,7,7,7,,,,,,,,,"(0.25, -0.04)",images/min3.png,8,0.0566887972527,0.46836903863,[-0.2953125   0.01666667],,,,2018_Jun_25_1202,59.7114986563,sequenceLearningTask,001,116,
min1.png,min2.png,min3.png,min4.png,allBlank.png,,,,,,,,,,,,0,7,7,7,,,,,,,,,"(0.75, -0.04)",images/min4.png,8,0.0544935161306,0.484158980835,[ 0.2578125  -0.31944444],,,,2018_Jun_25_1202,59.7114986563,sequenceLearningTask,001,116,
min1.png,min2.png,min3.png,min4.png,allBlank.png,,,,,,,,,,,,0,8,8,8,,,,,,,,,"(-0.75, -0.04)",images/min1.png,9,0.0569234638242,0.392675941461,[ 0.7671875 -0.275    ],,,,2018_Jun_25_1202,59.7114986563,sequenceLearningTask,001,116,
min1.png,min2.png,min3.png,min4.png,allBlank.png,,,,,,,,,,,,0,8,8,8,,,,,,,,,"(0.25, -0.04)",images/min3.png,9,0.0583564888802,1.23182144336,[-0.7921875  -0.13611111],0.578457608848,1,,2018_Jun_25_1202,59.7114986563,sequenceLearningTask,001,116,
min1.png,min2.png,min3.png,min4.png,allBlank.png,,,,,,,,,,,,0,8,8,8,,,,,,,,,"(-0.25, -0.04)",images/min2.png,9,0.0593382320658,0.69971335397,[ 0.23125    -0.08055556],,,,2018_Jun_25_1202,59.7114986563,sequenceLearningTask,001,116,
min1.png,min2.png,min3.png,min4.png,allBlank.png,,,,,,,,,,,,0,8,8,8,,,,,,,,,"(0.75, -0.04)",images/min4.png,9,0.0556282848702,0.386691123422,[-0.390625   -0.02222222],,,,2018_Jun_25_1202,59.7114986563,sequenceLearningTask,001,116,
min1.png,min2.png,min3.png,min4.png,allBlank.png,,,,,,,,,,,,0,8,8,8,,,,,,,,,"(0.75, -0.04)",images/min4.png,9,0.0596922831901,0.191647100844,[ 0.775       0.03333333],,,,2018_Jun_25_1202,59.7114986563,sequenceLearningTask,001,116,
min1.png,min2.png,min3.png,min4.png,allBlank.png,,,,,,,,,,,,0,8,8,8,,,,,,,,,"(-0.25, -0.04)",images/min2.png,9,0.0571704380854,2.03913639419,[ 0.7953125  -0.40277778],1.59143524454,1,,2018_Jun_25_1202,59.7114986563,sequenceLearningTask,001,116,
min1.png,min2.png,min3.png,min4.png,allBlank.png,,,,,,,,,,,,0,8,8,8,,,,,,,,,"(0.25, -0.04)",images/min3.png,9,0.0495273642882,0.579840992898,[-0.2265625  -0.11944444],,,,2018_Jun_25_1202,59.7114986563,sequenceLearningTask,001,116,
min1.png,min2.png,min3.png,min4.png,allBlank.png,,,,,,,,,,,,0,8,8,8,,,,,,,,,"(0.75, -0.04)",images/min4.png,9,0.0595175140479,1.75022902555,[ 0.1953125  0.025    ],1.21964011501,1,,2018_Jun_25_1202,59.7114986563,sequenceLearningTask,001,116,
min1.png,min2.png,min3.png,min4.png,allBlank.png,,,,,,,,,,,,0,9,9,9,,,,,,,,,"(-0.75, -0.04)",images/min1.png,10,0.0543043879734,1.04848531345,[ 0.74375    -0.10277778],,,,2018_Jun_25_1202,59.7114986563,sequenceLearningTask,001,116,
min1.png,min2.png,min3.png,min4.png,allBlank.png,,,,,,,,,,,,0,9,9,9,,,,,,,,,"(0.25, -0.04)",images/min3.png,10,0.0538933112402,3.65295686034,[-0.68125    -0.09166667],3.25155640961,1,,2018_Jun_25_1202,59.7114986563,sequenceLearningTask,001,116,
min1.png,min2.png,min3.png,min4.png,allBlank.png,,,,,,,,,,,,0,9,9,9,,,,,,,,,"(-0.25, -0.04)",images/min2.png,10,0.0581271556439,0.551285107184,[ 0.2484375  -0.09166667],,,,2018_Jun_25_1202,59.7114986563,sequenceLearningTask,001,116,
min1.png,min2.png,min3.png,min4.png,allBlank.png,,,,,,,,,,,,0,9,9,9,,,,,,,,,"(0.75, -0.04)",images/min4.png,10,0.0555265413132,0.857996365958,[-0.271875   -0.08611111],0.351718830061,1,,2018_Jun_25_1202,59.7114986563,sequenceLearningTask,001,116,
min1.png,min2.png,min3.png,min4.png,allBlank.png,,,,,,,,,,,,0,9,9,9,,,,,,,,,"(0.75, -0.04)",images/min4.png,10,0.0661242805654,0.0736709441408,[ 0.7953125   0.16388889],,,,2018_Jun_25_1202,59.7114986563,sequenceLearningTask,001,116,
min1.png,min2.png,min3.png,min4.png,allBlank.png,,,,,,,,,,,,0,9,9,9,,,,,,,,,"(-0.25, -0.04)",images/min2.png,10,0.0557702335354,0.772475580539,[ 0.7609375   0.08055556],0.149052656809,1,,2018_Jun_25_1202,59.7114986563,sequenceLearningTask,001,116,
min1.png,min2.png,min3.png,min4.png,allBlank.png,,,,,,,,,,,,0,9,9,9,,,,,,,,,"(0.25, -0.04)",images/min3.png,10,0.0547207980708,0.835873708362,[-0.1234375  -0.01944444],0.0524446964264,1,,2018_Jun_25_1202,59.7114986563,sequenceLearningTask,001,116,
min1.png,min2.png,min3.png,min4.png,allBlank.png,,,,,,,,,,,,0,9,9,9,,,,,,,,,"(0.75, -0.04)",images/min4.png,10,0.0543183367117,0.973260318657,[ 0.2421875  -0.01111111],0.408974191174,1,,2018_Jun_25_1202,59.7114986563,sequenceLearningTask,001,116,
min1.png,min2.png,min3.png,min4.png,allBlank.png,,,,,,,,,,,,0,0,0,0,,,,,,,,,"(-0.75, -0.04)",images/min1.png,1,0.0336533195223,2.14176158287,[ 0.753125   -0.01666667],,,,2018_Jun_25_1202,59.7114986563,sequenceLearningTask,001,116,
min1.png,min2.png,min3.png,min4.png,allBlank.png,,,,,,,,,,,,0,0,0,0,,,,,,,,,"(0.25, -0.04)",images/min3.png,1,0.05350192677,0.600794009923,[-0.8546875   0.08055556],,,,2018_Jun_25_1202,59.7114986563,sequenceLearningTask,001,116,
min1.png,min2.png,min3.png,min4.png,allBlank.png,,,,,,,,,,,,0,0,0,0,,,,,,,,,"(-0.25, -0.04)",images/min2.png,1,0.0590440783417,0.732363186748,[ 0.1515625  -0.06388889],,,,2018_Jun_25_1202,59.7114986563,sequenceLearningTask,001,116,
min1.png,min2.png,min3.png,min4.png,allBlank.png,,,,,,,,,,,,0,0,0,0,,,,,,,,,"(0.75, -0.04)",images/min4.png,1,0.0550834645692,0.655695730995,[-0.1390625  -0.01388889],,,,2018_Jun_25_1202,59.7114986563,sequenceLearningTask,001,116,
min1.png,min2.png,min3.png,min4.png,allBlank.png,,,,,,,,,,,,0,0,0,0,,,,,,,,,"(0.75, -0.04)",images/min4.png,1,0.0599105395086,1.05022562042,[ 0.7265625 -0.125    ],,,,2018_Jun_25_1202,59.7114986563,sequenceLearningTask,001,116,
min1.png,min2.png,min3.png,min4.png,allBlank.png,,,,,,,,,,,,0,0,0,0,,,,,,,,,"(-0.25, -0.04)",images/min2.png,1,0.0581435658969,1.37102220676,[ 0.6703125  -0.11944444],,,,2018_Jun_25_1202,59.7114986563,sequenceLearningTask,001,116,
min1.png,min2.png,min3.png,min4.png,allBlank.png,,,,,,,,,,,,0,0,0,0,,,,,,,,,"(0.25, -0.04)",images/min3.png,1,0.056732284429,0.579974736407,[-0.2265625  -0.05277778],,,,2018_Jun_25_1202,59.7114986563,sequenceLearningTask,001,116,
min1.png,min2.png,min3.png,min4.png,allBlank.png,,,,,,,,,,,,0,0,0,0,,,,,,,,,"(0.75, -0.04)",images/min4.png,1,0.0581484889844,0.601797906973,[ 0.1515625  -0.11388889],,,,2018_Jun_25_1202,59.7114986563,sequenceLearningTask,001,116,
min1.png,min2.png,min3.png,min4.png,allBlank.png,,,,,,,,,,,,0,1,1,1,,,,,,,,,"(-0.75, -0.04)",images/min1.png,2,0.0530453115643,0.682033361227,[ 0.709375    0.11944444],,,,2018_Jun_25_1202,59.7114986563,sequenceLearningTask,001,116,
min1.png,min2.png,min3.png,min4.png,allBlank.png,,,,,,,,,,,,0,1,1,1,,,,,,,,,"(0.25, -0.04)",images/min3.png,2,0.0589419245371,1.00108799955,[-0.6984375  -0.11666667],,,,2018_Jun_25_1202,59.7114986563,sequenceLearningTask,001,116,
min1.png,min2.png,min3.png,min4.png,allBlank.png,,,,,,,,,,,,0,1,1,1,,,,,,,,,"(-0.25, -0.04)",images/min2.png,2,0.0511733123567,0.754206459824,[ 0.2734375   0.04722222],,,,2018_Jun_25_1202,59.7114986563,sequenceLearningTask,001,116,
min1.png,min2.png,min3.png,min4.png,allBlank.png,,,,,,,,,,,,0,1,1,1,,,,,,,,,"(0.75, -0.04)",images/min4.png,2,0.0609287955158,1.11240856929,[-0.2234375  -0.10833333],,,,2018_Jun_25_1202,59.7114986563,sequenceLearningTask,001,116,
min1.png,min2.png,min3.png,min4.png,allBlank.png,,,,,,,,,,,,0,1,1,1,,,,,,,,,"(0.75, -0.04)",images/min4.png,2,0.0578268480895,0.768315582216,[ 0.69375    -0.06388889],,,,2018_Jun_25_1202,59.7114986563,sequenceLearningTask,001,116,
min1.png,min2.png,min3.png,min4.png,allBlank.png,,,,,,,,,,,,0,1,1,1,,,,,,,,,"(-0.25, -0.04)",images/min2.png,2,0.055351772171,1.82675535313,[ 0.7890625  -0.06666667],,,,2018_Jun_25_1202,59.7114986563,sequenceLearningTask,001,116,
min1.png,min2.png,min3.png,min4.png,allBlank.png,,,,,,,,,,,,0,1,1,1,,,,,,,,,"(0.25, -0.04)",images/min3.png,2,0.0521041837346,0.591834013612,[-0.1421875  -0.03333333],,,,2018_Jun_25_1202,59.7114986563,sequenceLearningTask,001,116,
min1.png,min2.png,min3.png,min4.png,allBlank.png,,,,,,,,,,,,0,1,1,1,,,,,,,,,"(0.75, -0.04)",images/min4.png,2,0.0580779248849,4.67235377544,[ 0.2515625  -0.06944444],4.20404709579,1,,2018_Jun_25_1202,59.7114986563,sequenceLearningTask,001,116,
min1.png,min2.png,min3.png,min4.png,allBlank.png,,,,,,,,,,,,0,2,2,2,,,,,,,,,"(-0.75, -0.04)",images/min1.png,3,0.0518461325846,1.07616694312,[ 0.6328125  -0.04166667],,,,2018_Jun_25_1202,59.7114986563,sequenceLearningTask,001,116,
min1.png,min2.png,min3.png,min4.png,allBlank.png,,,,,,,,,,,,0,2,2,2,,,,,,,,,"(0.25, -0.04)",images/min3.png,3,0.0611962825933,4.37642692251,[-0.7328125  -0.08055556],3.84229626984,1,,2018_Jun_25_1202,59.7114986563,sequenceLearningTask,001,116,
min1.png,min2.png,min3.png,min4.png,allBlank.png,,,,,,,,,,,,0,2,2,2,,,,,,,,,"(-0.25, -0.04)",images/min2.png,3,0.0523618246953,0.95799427366,[ 0.178125   -0.01388889],,,,2018_Jun_25_1202,59.7114986563,sequenceLearningTask,001,116,
min1.png,min2.png,min3.png,min4.png,allBlank.png,,,,,,,,,,,,0,2,2,2,,,,,,,,,"(0.75, -0.04)",images/min4.png,3,0.0521644914406,0.759188611613,[-0.1984375  -0.09722222],,,,2018_Jun_25_1202,59.7114986563,sequenceLearningTask,001,116,
min1.png,min2.png,min3.png,min4.png,allBlank.png,,,,,,,,,,,,0,2,2,2,,,,,,,,,"(0.75, -0.04)",images/min4.png,3,0.0662014087429,1.31488356311,[ 0.8265625 -0.075    ],,,,2018_Jun_25_1202,59.7114986563,sequenceLearningTask,001,116,
min1.png,min2.png,min3.png,min4.png,allBlank.png,,,,,,,,,,,,0,2,2,2,,,,,,,,,"(-0.25, -0.04)",images/min2.png,3,0.0542059264844,1.37747840924,[ 0.7515625  -0.06944444],,,,2018_Jun_25_1202,59.7114986563,sequenceLearningTask,001,116,
min1.png,min2.png,min3.png,min4.png,allBlank.png,,,,,,,,,,,,0,2,2,2,,,,,,,,,"(0.25, -0.04)",images/min3.png,3,0.059038334759,1.30253567075,[-0.25625    -0.10833333],0.0483376212069,1,,2018_Jun_25_1202,59.7114986563,sequenceLearningTask,001,116,
min1.png,min2.png,min3.png,min4.png,allBlank.png,,,,,,,,,,,,0,2,2,2,,,,,,,,,"(0.75, -0.04)",images/min4.png,3,0.0579331044282,4.41632434202,[ 0.19375     0.01388889],,,,2018_Jun_25_1202,59.7114986563,sequenceLearningTask,001,116,
min1.png,min2.png,min3.png,min4.png,allBlank.png,,,,,,,,,,,,0,3,3,3,,,,,,,,,"(-0.75, -0.04)",images/min1.png,4,0.0565230537322,1.37040682239,[ 0.7453125   0.19444444],,,,2018_Jun_25_1202,59.7114986563,sequenceLearningTask,001,116,
min1.png,min2.png,min3.png,min4.png,allBlank.png,,,,,,,,,,,,0,3,3,3,,,,,,,,,"(0.25, -0.04)",images/min3.png,4,0.0611843851511,0.749826564192,[-0.725      -0.07222222],,,,2018_Jun_25_1202,59.7114986563,sequenceLearningTask,001,116,
min1.png,min2.png,min3.png,min4.png,allBlank.png,,,,,,,,,,,,0,3,3,3,,,,,,,,,"(-0.25, -0.04)",images/min2.png,4,0.0610518723843,0.877355537494,[ 0.21875    -0.09166667],,,,2018_Jun_25_1202,59.7114986563,sequenceLearningTask,001,116,
min1.png,min2.png,min3.png,min4.png,allBlank.png,,,,,,,,,,,,0,3,3,3,,,,,,,,,"(0.75, -0.04)",images/min4.png,4,0.0582965914509,0.502718562988,[-0.1234375  -0.13888889],,,,2018_Jun_25_1202,59.7114986563,sequenceLearningTask,001,116,
min1.png,min2.png,min3.png,min4.png,allBlank.png,,,,,,,,,,,,0,3,3,3,,,,,,,,,"(0.75, -0.04)",images/min4.png,4,0.0559782334312,0.836531759385,[ 0.80625     0.05833333],,,,2018_Jun_25_1202,59.7114986563,sequenceLearningTask,001,116,
min1.png,min2.png,min3.png,min4.png,allBlank.png,,,,,,,,,,,,0,3,3,3,,,,,,,,,"(-0.25, -0.04)",images/min2.png,4,0.0534170037427,0.650297579385,[ 0.6171875   0.09166667],,,,2018_Jun_25_1202,59.7114986563,sequenceLearningTask,001,116,
min1.png,min2.png,min3.png,min4.png,allBlank.png,,,,,,,,,,,,0,3,3,3,,,,,,,,,"(0.25, -0.04)",images/min3.png,4,0.056486130663,0.668405059114,[-0.1734375  -0.12777778],,,,2018_Jun_25_1202,59.7114986563,sequenceLearningTask,001,116,
min1.png,min2.png,min3.png,min4.png,allBlank.png,,,,,,,,,,,,0,3,3,3,,,,,,,,,"(0.75, -0.04)",images/min4.png,4,0.0536898241262,0.37051718132,[ 0.26875    -0.08611111],,,,2018_Jun_25_1202,59.7114986563,sequenceLearningTask,001,116,
min1.png,min2.png,min3.png,min4.png,allBlank.png,,,,,,,,,,,,0,4,4,4,,,,,,,,,"(-0.75, -0.04)",images/min1.png,5,0.0565607972967,0.852386932354,[ 0.6640625 -0.05     ],,,,2018_Jun_25_1202,59.7114986563,sequenceLearningTask,001,116,
min1.png,min2.png,min3.png,min4.png,allBlank.png,,,,,,,,,,,,0,4,4,4,,,,,,,,,"(0.25, -0.04)",images/min3.png,5,0.0589226424927,0.882256868819,[-0.7046875  -0.34166667],,,,2018_Jun_25_1202,59.7114986563,sequenceLearningTask,001,116,
min1.png,min2.png,min3.png,min4.png,allBlank.png,,,,,,,,,,,,0,4,4,4,,,,,,,,,"(-0.25, -0.04)",images/min2.png,5,0.0508102355816,2.98419364751,[ 0.31875  0.     ],2.55065372284,1,,2018_Jun_25_1202,59.7114986563,sequenceLearningTask,001,116,
min1.png,min2.png,min3.png,min4.png,allBlank.png,,,,,,,,,,,,0,4,4,4,,,,,,,,,"(0.75, -0.04)",images/min4.png,5,0.0676069466281,1.6959611504,[-0.1953125  -0.05555556],,,,2018_Jun_25_1202,59.7114986563,sequenceLearningTask,001,116,
min1.png,min2.png,min3.png,min4.png,allBlank.png,,,,,,,,,,,,0,4,4,4,,,,,,,,,"(0.75, -0.04)",images/min4.png,5,0.0550391568977,5.2805176285,[ 0.7484375  -0.19166667],3.73097118729,1,,2018_Jun_25_1202,59.7114986563,sequenceLearningTask,001,116,
min1.png,min2.png,min3.png,min4.png,allBlank.png,,,,,,,,,,,,0,4,4,4,,,,,,,,,"(-0.25, -0.04)",images/min2.png,5,0.0535798754427,0.956185043615,[ 0.6921875  -0.24722222],,,,2018_Jun_25_1202,59.7114986563,sequenceLearningTask,001,116,
min1.png,min2.png,min3.png,min4.png,allBlank.png,,,,,,,,,,,,0,4,4,4,,,,,,,,,"(0.25, -0.04)",images/min3.png,5,0.0625919743034,0.7237437031,[-0.2140625  -0.14722222],,,,2018_Jun_25_1202,59.7114986563,sequenceLearningTask,001,116,
min1.png,min2.png,min3.png,min4.png,allBlank.png,,,,,,,,,,,,0,4,4,4,,,,,,,,,"(0.75, -0.04)",images/min4.png,5,0.0562042846286,0.268141018198,[ 0.2203125  -0.12777778],0.268141018198,1,,2018_Jun_25_1202,59.7114986563,sequenceLearningTask,001,116,
min1.png,min2.png,min3.png,min4.png,allBlank.png,,,,,,,,,,,,0,5,5,5,,,,,,,,,"(-0.75, -0.04)",images/min1.png,6,0.0326248071215,1.42505582565,[ 0.6875     -0.10277778],0.0,1,,2018_Jun_25_1202,59.7114986563,sequenceLearningTask,001,116,
min1.png,min2.png,min3.png,min4.png,allBlank.png,,,,,,,,,,,,0,5,5,5,,,,,,,,,"(0.25, -0.04)",images/min3.png,6,0.0521246965509,1.3048023365,[-0.765625    0.06944444],,,,2018_Jun_25_1202,59.7114986563,sequenceLearningTask,001,116,
min1.png,min2.png,min3.png,min4.png,allBlank.png,,,,,,,,,,,,0,5,5,5,,,,,,,,,"(-0.25, -0.04)",images/min2.png,6,0.0551302338135,1.22120770413,[ 0.2390625  -0.13611111],,,,2018_Jun_25_1202,59.7114986563,sequenceLearningTask,001,116,
min1.png,min2.png,min3.png,min4.png,allBlank.png,,,,,,,,,,,,0,5,5,5,,,,,,,,,"(0.75, -0.04)",images/min4.png,6,0.0597599754983,1.01685291616,[-0.2234375  -0.01388889],,,,2018_Jun_25_1202,59.7114986563,sequenceLearningTask,001,116,
min1.png,min2.png,min3.png,min4.png,allBlank.png,,,,,,,,,,,,0,5,5,5,,,,,,,,,"(0.75, -0.04)",images/min4.png,6,0.0534026447567,0.558238129946,[ 0.6625     -0.10833333],,,,2018_Jun_25_1202,59.7114986563,sequenceLearningTask,001,116,
min1.png,min2.png,min3.png,min4.png,allBlank.png,,,,,,,,,,,,0,5,5,5,,,,,,,,,"(-0.25, -0.04)",images/min2.png,6,0.0561312590435,0.804943259514,[ 0.6390625   0.00833333],,,,2018_Jun_25_1202,59.7114986563,sequenceLearningTask,001,116,
min1.png,min2.png,min3.png,min4.png,allBlank.png,,,,,,,,,,,,0,5,5,5,,,,,,,,,"(0.25, -0.04)",images/min3.png,6,0.0612533082021,0.660572857218,[-0.30625    -0.15277778],,,,2018_Jun_25_1202,59.7114986563,sequenceLearningTask,001,116,
min1.png,min2.png,min3.png,min4.png,allBlank.png,,,,,,,,,,,,0,5,5,5,,,,,,,,,"(0.75, -0.04)",images/min4.png,6,0.0657993576315,0.545195263519,[ 0.2234375  -0.13611111],,,,2018_Jun_25_1202,59.7114986563,sequenceLearningTask,001,116,
min1.png,min2.png,min3.png,min4.png,allBlank.png,,,,,,,,,,,,0,6,6,6,,,,,,,,,"(-0.75, -0.04)",images/min1.png,7,0.052238337521,0.768242146383,[ 0.6609375  -0.28611111],,,,2018_Jun_25_1202,59.7114986563,sequenceLearningTask,001,116,
min1.png,min2.png,min3.png,min4.png,allBlank.png,,,,,,,,,,,,0,6,6,6,,,,,,,,,"(0.25, -0.04)",images/min3.png,7,0.048125108442,0.654717680096,[-0.8375     -0.14444444],,,,2018_Jun_25_1202,59.7114986563,sequenceLearningTask,001,116,
min1.png,min2.png,min3.png,min4.png,allBlank.png,,,,,,,,,,,,0,6,6,6,,,,,,,,,"(-0.25, -0.04)",images/min2.png,7,0.0497948513657,0.889170507027,[ 0.4375     -0.14166667],,,,2018_Jun_25_1202,59.7114986563,sequenceLearningTask,001,116,
min1.png,min2.png,min3.png,min4.png,allBlank.png,,,,,,,,,,,,0,6,6,6,,,,,,,,,"(0.75, -0.04)",images/min4.png,7,0.0518391582009,0.60145000965,[-0.215625   -0.06111111],,,,2018_Jun_25_1202,59.7114986563,sequenceLearningTask,001,116,
min1.png,min2.png,min3.png,min4.png,allBlank.png,,,,,,,,,,,,0,6,6,6,,,,,,,,,"(0.75, -0.04)",images/min4.png,7,0.0674834594829,0.458385863225,[ 0.6609375  -0.18055556],,,,2018_Jun_25_1202,59.7114986563,sequenceLearningTask,001,116,
min1.png,min2.png,min3.png,min4.png,allBlank.png,,,,,,,,,,,,0,6,6,6,,,,,,,,,"(-0.25, -0.04)",images/min2.png,7,0.0581033607887,0.627476665657,[ 0.728125   -0.15555556],0.57832837812,1,,2018_Jun_25_1202,59.7114986563,sequenceLearningTask,001,116,
min1.png,min2.png,min3.png,min4.png,allBlank.png,,,,,,,,,,,,0,6,6,6,,,,,,,,,"(0.25, -0.04)",images/min3.png,7,0.060153000959,1.04585557093,[-0.325 -0.3  ],0.463528425229,1,,2018_Jun_25_1202,59.7114986563,sequenceLearningTask,001,116,
min1.png,min2.png,min3.png,min4.png,allBlank.png,,,,,,,,,,,,0,6,6,6,,,,,,,,,"(0.75, -0.04)",images/min4.png,7,0.052829106542,1.38090240784,[ 0.2515625   0.09722222],0.537585010228,1,,2018_Jun_25_1202,59.7114986563,sequenceLearningTask,001,116,
min1.png,min2.png,min3.png,min4.png,allBlank.png,,,,,,,,,,,,0,7,7,7,,,,,,,,,"(-0.75, -0.04)",images/min1.png,8,0.0568368997483,2.70947376022,[ 0.75625  0.075  ],,,,2018_Jun_25_1202,59.7114986563,sequenceLearningTask,001,116,
min1.png,min2.png,min3.png,min4.png,allBlank.png,,,,,,,,,,,,0,7,7,7,,,,,,,,,"(0.25, -0.04)",images/min3.png,8,0.0610900262254,2.96310975871,[-0.7875     -0.33888889],,,,2018_Jun_25_1202,59.7114986563,sequenceLearningTask,001,116,
min1.png,min2.png,min3.png,min4.png,allBlank.png,,,,,,,,,,,,0,7,7,7,,,,,,,,,"(-0.25, -0.04)",images/min2.png,8,0.0591675654578,1.639200148,[ 0.3390625   0.01388889],,,,2018_Jun_25_1202,59.7114986563,sequenceLearningTask,001,116,
min1.png,min2.png,min3.png,min4.png,allBlank.png,,,,,,,,,,,,0,7,7,7,,,,,,,,,"(0.75, -0.04)",images/min4.png,8,0.024744605209,2.6119718515,[-0.28125 -0.025  ],0.168095931032,1,,2018_Jun_25_1202,59.7114986563,sequenceLearningTask,001,116,
min1.png,min2.png,min3.png,min4.png,allBlank.png,,,,,,,,,,,,0,7,7,7,,,,,,,,,"(0.75, -0.04)",images/min4.png,8,0.0567540279881,0.768784505141,[ 0.7796875   0.11944444],,,,2018_Jun_25_1202,59.7114986563,sequenceLearningTask,001,116,
min1.png,min2.png,min3.png,min4.png,allBlank.png,,,,,,,,,,,,0,7,7,7,,,,,,,,,"(-0.25, -0.04)",images/min2.png,8,0.0562670538493,1.19834371348,[ 0.765625   -0.06388889],,,,2018_Jun_25_1202,59.7114986563,sequenceLearningTask,001,116,
min1.png,min2.png,min3.png,min4.png,allBlank.png,,,,,,,,,,,,0,7,7,7,,,,,,,,,"(0.25, -0.04)",images/min3.png,8,0.0651093066263,0.761680097785,[-0.2828125  -0.13055556],,,,2018_Jun_25_1202,59.7114986563,sequenceLearningTask,001,116,
min1.png,min2.png,min3.png,min4.png,allBlank.png,,,,,,,,,,,,0,7,7,7,,,,,,,,,"(0.75, -0.04)",images/min4.png,8,0.0584167965571,0.597703959909,[ 0.2859375   0.02777778],,,,2018_Jun_25_1202,59.7114986563,sequenceLearningTask,001,116,
min1.png,min2.png,min3.png,min4.png,allBlank.png,,,,,,,,,,,,0,8,8,8,,,,,,,,,"(-0.75, -0.04)",images/min1.png,9,0.0525476707553,1.12376651331,[ 0.740625   -0.11388889],,,,2018_Jun_25_1202,59.7114986563,sequenceLearningTask,001,116,
min1.png,min2.png,min3.png,min4.png,allBlank.png,,,,,,,,,,,,0,8,8,8,,,,,,,,,"(0.25, -0.04)",images/min3.png,9,0.061660282372,1.58602396472,[-0.6609375  -0.08611111],,,,2018_Jun_25_1202,59.7114986563,sequenceLearningTask,001,116,
min1.png,min2.png,min3.png,min4.png,allBlank.png,,,,,,,,,,,,0,8,8,8,,,,,,,,,"(-0.25, -0.04)",images/min2.png,9,0.0555860284949,1.64422947928,[ 0.140625  0.      ],,,,2018_Jun_25_1202,59.7114986563,sequenceLearningTask,001,116,
min1.png,min2.png,min3.png,min4.png,allBlank.png,,,,,,,,,,,,0,8,8,8,,,,,,,,,"(0.75, -0.04)",images/min4.png,9,0.0604475649598,1.09577267864,[-0.246875    0.06388889],0.730938777036,1,,2018_Jun_25_1202,59.7114986563,sequenceLearningTask,001,116,
min1.png,min2.png,min3.png,min4.png,allBlank.png,,,,,,,,,,,,0,8,8,8,,,,,,,,,"(0.75, -0.04)",images/min4.png,9,0.051506440388,0.87049646338,[ 0.728125   -0.03888889],,,,2018_Jun_25_1202,59.7114986563,sequenceLearningTask,001,116,
min1.png,min2.png,min3.png,min4.png,allBlank.png,,,,,,,,,,,,0,8,8,8,,,,,,,,,"(-0.25, -0.04)",images/min2.png,9,0.0562572077033,1.02179568337,[ 0.815625   -0.10833333],,,,2018_Jun_25_1202,59.7114986563,sequenceLearningTask,001,116,
min1.png,min2.png,min3.png,min4.png,allBlank.png,,,,,,,,,,,,0,8,8,8,,,,,,,,,"(0.25, -0.04)",images/min3.png,9,0.0640381275734,0.839331758238,[-0.1296875   0.08055556],,,,2018_Jun_25_1202,59.7114986563,sequenceLearningTask,001,116,
min1.png,min2.png,min3.png,min4.png,allBlank.png,,,,,,,,,,,,0,8,8,8,,,,,,,,,"(0.75, -0.04)",images/min4.png,9,0.0654777167365,5.44758381639,[ 0.2921875  -0.06388889],,,,2018_Jun_25_1202,59.7114986563,sequenceLearningTask,001,116,
min1.png,min2.png,min3.png,min4.png,allBlank.png,,,,,,,,,,,,0,9,9,9,,,,,,,,,"(-0.75, -0.04)",images/min1.png,10,0.0545759776141,2.38122692052,[ 0.7609375   0.02222222],,,,2018_Jun_25_1202,59.7114986563,sequenceLearningTask,001,116,
min1.png,min2.png,min3.png,min4.png,allBlank.png,,,,,,,,,,,,0,9,9,9,,,,,,,,,"(0.25, -0.04)",images/min3.png,10,0.0596631549997,0.911377677374,[-0.7359375  -0.06944444],,,,2018_Jun_25_1202,59.7114986563,sequenceLearningTask,001,116,
min1.png,min2.png,min3.png,min4.png,allBlank.png,,,,,,,,,,,,0,9,9,9,,,,,,,,,"(-0.25, -0.04)",images/min2.png,10,0.0562001820654,2.26150225167,[ 0.1703125   0.05277778],,,,2018_Jun_25_1202,59.7114986563,sequenceLearningTask,001,116,
min1.png,min2.png,min3.png,min4.png,allBlank.png,,,,,,,,,,,,0,9,9,9,,,,,,,,,"(0.75, -0.04)",images/min4.png,10,0.0603946418851,1.38495532927,[-0.2890625  -0.06388889],,,,2018_Jun_25_1202,59.7114986563,sequenceLearningTask,001,116,
min1.png,min2.png,min3.png,min4.png,allBlank.png,,,,,,,,,,,,0,9,9,9,,,,,,,,,"(0.75, -0.04)",images/min4.png,10,0.0602674624533,0.797939775191,[ 0.828125    0.13611111],,,,2018_Jun_25_1202,59.7114986563,sequenceLearningTask,001,116,
min1.png,min2.png,min3.png,min4.png,allBlank.png,,,,,,,,,,,,0,9,9,9,,,,,,,,,"(-0.25, -0.04)",images/min2.png,10,0.0599302318296,0.73278205833,[ 0.7265625   0.04722222],,,,2018_Jun_25_1202,59.7114986563,sequenceLearningTask,001,116,
min1.png,min2.png,min3.png,min4.png,allBlank.png,,,,,,,,,,,,0,9,9,9,,,,,,,,,"(0.25, -0.04)",images/min3.png,10,0.0513287994545,0.556142541056,[-0.28125    -0.15277778],,,,2018_Jun_25_1202,59.7114986563,sequenceLearningTask,001,116,
min1.png,min2.png,min3.png,min4.png,allBlank.png,,,,,,,,,,,,0,9,9,9,,,,,,,,,"(0.75, -0.04)",images/min4.png,10,0.0530268500152,0.466515090637,[ 0.2171875  0.       ],,,,2018_Jun_25_1202,59.7114986563,sequenceLearningTask,001,116,
min1.png,min2.png,min3.png,min4.png,images/allBlank.png,"['num_7', 'num_4', 'num_1', 'num_0']",['num_0'],num_0,[4],'num_0',images/min4.png,"[(0.45, 0.79)]",,,,,0,-1,-1,0,0,0,0,3,,,,,"(-0.25, 0.04)",images/min2.png,1,0.0416582393227,0.725628420245,[ 0.7625      0.05277778],,,,2018_Jun_25_1202,59.7114986563,sequenceLearningTask,001,116,
min1.png,min2.png,min3.png,min4.png,images/allBlank.png,"['num_7', 'num_4', 'num_1', 'num_0']",['num_0'],num_0,[4],'num_0',images/min4.png,"[(0.45, 0.79)]",,,,,0,-1,-1,0,0,0,0,3,,,,,"(-0.25, 0.04)",images/min2.png,1,0.0585468477802,0.700260635786,[-0.140625   -0.05277778],,,,2018_Jun_25_1202,59.7114986563,sequenceLearningTask,001,116,
min1.png,min2.png,min3.png,min4.png,images/allBlank.png,"['num_7', 'num_4', 'num_1', 'num_0']",['num_0'],num_0,[4],'num_0',images/min4.png,"[(0.45, 0.79)]",,,,,0,-1,-1,0,0,0,0,3,,,,,"(-0.25, 0.04)",images/min2.png,1,0.0594034628302,0.6098003652,[-0.1828125  -0.05833333],,,,2018_Jun_25_1202,59.7114986563,sequenceLearningTask,001,116,
min1.png,min2.png,min3.png,min4.png,images/allBlank.png,"['num_7', 'num_4', 'num_1', 'num_0']",['num_0'],num_0,[4],'num_0',images/min4.png,"[(0.45, 0.79)]",,,,,0,-1,-1,0,0,0,0,3,,,,,"(-0.25, 0.04)",images/min2.png,1,0.0656848961371,3.03750603588,[-0.1796875   0.05277778],,,,2018_Jun_25_1202,59.7114986563,sequenceLearningTask,001,116,
min1.png,min2.png,min3.png,min4.png,images/allBlank.png,"['num_7', 'num_4', 'num_1', 'num_0']",['num_7'],num_7,[1],'num_7',images/min1.png,"[(0.45, 0.79)]",,,,,0,-1,-1,0,0,1,1,0,,,,,"(0.25, 0.04)",images/min3.png,2,0.061257821013,2.05451649043,[-0.1609375  0.075    ],,,,2018_Jun_25_1202,59.7114986563,sequenceLearningTask,001,116,
min1.png,min2.png,min3.png,min4.png,images/allBlank.png,"['num_7', 'num_4', 'num_1', 'num_0']",['num_7'],num_7,[1],'num_7',images/min1.png,"[(0.45, 0.79)]",,,,,0,-1,-1,0,0,1,1,0,,,,,"(-0.75, 0.04)",images/min1.png,2,0.0658075627289,0.971565139858,[ 0.3546875  -0.05833333],,,,2018_Jun_25_1202,59.7114986563,sequenceLearningTask,001,116,
min1.png,min2.png,min3.png,min4.png,images/allBlank.png,"['num_7', 'num_4', 'num_1', 'num_0']",['num_7'],num_7,[1],'num_7',images/min1.png,"[(0.45, 0.79)]",,,,,0,-1,-1,0,0,1,1,0,,,,,"(-0.25, 0.04)",images/min2.png,2,0.063419461163,0.895363735239,[-0.7484375  -0.00833333],,,,2018_Jun_25_1202,59.7114986563,sequenceLearningTask,001,116,
min1.png,min2.png,min3.png,min4.png,images/allBlank.png,"['num_7', 'num_4', 'num_1', 'num_0']",['num_7'],num_7,[1],'num_7',images/min1.png,"[(0.45, 0.79)]",,,,,0,-1,-1,0,0,1,1,0,,,,,"(0.25, 0.04)",images/min3.png,2,0.0657587422465,0.608599545201,[-0.1734375  -0.14166667],,,,2018_Jun_25_1202,59.7114986563,sequenceLearningTask,001,116,
min1.png,min2.png,min3.png,min4.png,images/allBlank.png,"['num_7', 'num_4', 'num_1', 'num_0']",['num_4'],num_4,[2],'num_4',images/min2.png,"[(0.45, 0.79)]",,,,,0,-1,-1,0,0,2,2,1,,,,,"(0.25, 0.04)",images/min3.png,3,0.0981579084473,1.04245618772,[ 0.3765625  -0.00833333],0.250572615158,1,,2018_Jun_25_1202,59.7114986563,sequenceLearningTask,001,116,
min1.png,min2.png,min3.png,min4.png,images/allBlank.png,"['num_7', 'num_4', 'num_1', 'num_0']",['num_4'],num_4,[2],'num_4',images/min2.png,"[(0.45, 0.79)]",,,,,0,-1,-1,0,0,2,2,1,,,,,"(0.75, 0.04)",images/min4.png,3,0.0559507462895,0.546492903988,[ 0.4859375   0.09722222],,,,2018_Jun_25_1202,59.7114986563,sequenceLearningTask,001,116,
min1.png,min2.png,min3.png,min4.png,images/allBlank.png,"['num_7', 'num_4', 'num_1', 'num_0']",['num_4'],num_4,[2],'num_4',images/min2.png,"[(0.45, 0.79)]",,,,,0,-1,-1,0,0,2,2,1,,,,,"(-0.25, 0.04)",images/min2.png,3,0.0556926950812,0.885639431537,[ 0.7546875  -0.06944444],,,,2018_Jun_25_1202,59.7114986563,sequenceLearningTask,001,116,
min1.png,min2.png,min3.png,min4.png,images/allBlank.png,"['num_7', 'num_4', 'num_1', 'num_0']",['num_4'],num_4,[2],'num_4',images/min2.png,"[(0.45, 0.79)]",,,,,0,-1,-1,0,0,2,2,1,,,,,"(-0.75, 0.04)",images/min1.png,3,0.0550982338027,0.183947411715,[-0.3453125  -0.06666667],,,,2018_Jun_25_1202,59.7114986563,sequenceLearningTask,001,116,
min1.png,min2.png,min3.png,min4.png,images/allBlank.png,"['num_7', 'num_4', 'num_1', 'num_0']",['num_1'],num_1,[3],'num_1',images/min3.png,"[(0.45, 0.79)]",,,,,0,-1,-1,0,0,3,3,2,,,,,"(-0.25, 0.04)",images/min2.png,4,0.0546949519194,2.81159392343,[-0.6640625 -0.2      ],2.37871204974,1,,2018_Jun_25_1202,59.7114986563,sequenceLearningTask,001,116,
min1.png,min2.png,min3.png,min4.png,images/allBlank.png,"['num_7', 'num_4', 'num_1', 'num_0']",['num_1'],num_1,[3],'num_1',images/min3.png,"[(0.45, 0.79)]",,,,,0,-1,-1,0,0,3,3,2,,,,,"(0.25, 0.04)",images/min3.png,4,0.0561164898099,0.637417584658,[-0.2546875  -0.07222222],,,,2018_Jun_25_1202,59.7114986563,sequenceLearningTask,001,116,
min1.png,min2.png,min3.png,min4.png,images/allBlank.png,"['num_7', 'num_4', 'num_1', 'num_0']",['num_1'],num_1,[3],'num_1',images/min3.png,"[(0.45, 0.79)]",,,,,0,-1,-1,0,0,3,3,2,,,,,"(-0.75, 0.04)",images/min1.png,4,0.0623679744022,1.76592337809,[ 0.275      -0.32222222],,,,2018_Jun_25_1202,59.7114986563,sequenceLearningTask,001,116,
min1.png,min2.png,min3.png,min4.png,images/allBlank.png,"['num_7', 'num_4', 'num_1', 'num_0']",['num_1'],num_1,[3],'num_1',images/min3.png,"[(0.45, 0.79)]",,,,,0,-1,-1,0,0,3,3,2,,,,,"(-0.75, 0.04)",images/min1.png,4,0.0634026406624,1.85253011179,[-0.6953125  -0.20555556],,,,2018_Jun_25_1202,59.7114986563,sequenceLearningTask,001,116,
min1.png,min2.png,min3.png,min4.png,images/allBlank.png,"['num_7', 'num_4', 'num_1', 'num_0']",['num_1'],num_1,[3],'num_1',images/min3.png,"[(0.45, 0.79)]",,,,,0,-1,-1,0,1,0,4,2,,,,,"(-0.25, 0.04)",images/min2.png,5,0.0615983337048,0.457230991917,[-0.7703125  -0.14166667],,,,2018_Jun_25_1202,59.7114986563,sequenceLearningTask,001,116,
min1.png,min2.png,min3.png,min4.png,images/allBlank.png,"['num_7', 'num_4', 'num_1', 'num_0']",['num_1'],num_1,[3],'num_1',images/min3.png,"[(0.45, 0.79)]",,,,,0,-1,-1,0,1,0,4,2,,,,,"(0.25, 0.04)",images/min3.png,5,0.061746846477,0.245823899168,[-0.3078125  -0.24166667],,,,2018_Jun_25_1202,59.7114986563,sequenceLearningTask,001,116,
min1.png,min2.png,min3.png,min4.png,images/allBlank.png,"['num_7', 'num_4', 'num_1', 'num_0']",['num_1'],num_1,[3],'num_1',images/min3.png,"[(0.45, 0.79)]",,,,,0,-1,-1,0,1,0,4,2,,,,,"(-0.75, 0.04)",images/min1.png,5,0.0735236621404,1.20273878862,[ 0.0953125  -0.27777778],0.167329162126,1,,2018_Jun_25_1202,59.7114986563,sequenceLearningTask,001,116,
min1.png,min2.png,min3.png,min4.png,images/allBlank.png,"['num_7', 'num_4', 'num_1', 'num_0']",['num_1'],num_1,[3],'num_1',images/min3.png,"[(0.45, 0.79)]",,,,,0,-1,-1,0,1,0,4,2,,,,,"(-0.75, 0.04)",images/min1.png,5,0.0606014110381,0.313151051028,[-0.665625   -0.03888889],,,,2018_Jun_25_1202,59.7114986563,sequenceLearningTask,001,116,
min1.png,min2.png,min3.png,min4.png,images/allBlank.png,"['num_7', 'num_4', 'num_1', 'num_0']",['num_4'],num_4,[2],'num_4',images/min2.png,"[(0.45, 0.79)]",,,,,0,-1,-1,0,1,1,5,1,,,,,"(-0.75, 0.04)",images/min1.png,6,0.0615548465285,1.08097391549,[-0.703125   -0.11111111],0.46051919568,1,,2018_Jun_25_1202,59.7114986563,sequenceLearningTask,001,116,
min1.png,min2.png,min3.png,min4.png,images/allBlank.png,"['num_7', 'num_4', 'num_1', 'num_0']",['num_4'],num_4,[2],'num_4',images/min2.png,"[(0.45, 0.79)]",,,,,0,-1,-1,0,1,1,5,1,,,,,"(0.75, 0.04)",images/min4.png,6,0.070155868656,0.853463034466,[-0.7421875  -0.19722222],,,,2018_Jun_25_1202,59.7114986563,sequenceLearningTask,001,116,
min1.png,min2.png,min3.png,min4.png,images/allBlank.png,"['num_7', 'num_4', 'num_1', 'num_0']",['num_4'],num_4,[2],'num_4',images/min2.png,"[(0.45, 0.79)]",,,,,0,-1,-1,0,1,1,5,1,,,,,"(-0.75, 0.04)",images/min1.png,6,0.0616217183124,1.23602903137,[ 0.740625   -0.13611111],,,,2018_Jun_25_1202,59.7114986563,sequenceLearningTask,001,116,
min1.png,min2.png,min3.png,min4.png,images/allBlank.png,"['num_7', 'num_4', 'num_1', 'num_0']",['num_4'],num_4,[2],'num_4',images/min2.png,"[(0.45, 0.79)]",,,,,0,-1,-1,0,1,1,5,1,,,,,"(-0.25, 0.04)",images/min2.png,6,0.0349571138795,0.959607811441,[-0.1171875  -0.98611111],0.144514812506,1,,2018_Jun_25_1202,59.7114986563,sequenceLearningTask,001,116,
min1.png,min2.png,min3.png,min4.png,images/allBlank.png,"['num_7', 'num_4', 'num_1', 'num_0']",['num_7'],num_7,[1],'num_7',images/min1.png,"[(0.45, 0.79)]",,,,,0,-1,-1,0,1,2,6,0,,,,,"(0.25, 0.04)",images/min3.png,7,0.0622994616278,2.18335910424,[-0.2703125 -0.175    ],,,,2018_Jun_25_1202,59.7114986563,sequenceLearningTask,001,116,
min1.png,min2.png,min3.png,min4.png,images/allBlank.png,"['num_7', 'num_4', 'num_1', 'num_0']",['num_7'],num_7,[1],'num_7',images/min1.png,"[(0.45, 0.79)]",,,,,0,-1,-1,0,1,2,6,0,,,,,"(-0.25, 0.04)",images/min2.png,7,0.0605632571969,0.867605387641,[ 0.1984375  -0.13333333],,,,2018_Jun_25_1202,59.7114986563,sequenceLearningTask,001,116,
min1.png,min2.png,min3.png,min4.png,images/allBlank.png,"['num_7', 'num_4', 'num_1', 'num_0']",['num_7'],num_7,[1],'num_7',images/min1.png,"[(0.45, 0.79)]",,,,,0,-1,-1,0,1,2,6,0,,,,,"(0.25, 0.04)",images/min3.png,7,0.0585813093057,0.593846730742,[-0.2375 -0.075 ],,,,2018_Jun_25_1202,59.7114986563,sequenceLearningTask,001,116,
min1.png,min2.png,min3.png,min4.png,images/allBlank.png,"['num_7', 'num_4', 'num_1', 'num_0']",['num_7'],num_7,[1],'num_7',images/min1.png,"[(0.45, 0.79)]",,,,,0,-1,-1,0,1,2,6,0,,,,,"(0.75, 0.04)",images/min4.png,7,0.0575039764226,1.75272297324,[ 0.2796875  -0.01388889],,,,2018_Jun_25_1202,59.7114986563,sequenceLearningTask,001,116,
min1.png,min2.png,min3.png,min4.png,images/allBlank.png,"['num_7', 'num_4', 'num_1', 'num_0']",['num_0'],num_0,[4],'num_0',images/min4.png,"[(0.45, 0.79)]",,,,,0,-1,-1,0,1,3,7,3,,,,,"(0.25, 0.04)",images/min3.png,8,0.0617907438718,1.0457735197,[ 0.7375     -0.10277778],,,,2018_Jun_25_1202,59.7114986563,sequenceLearningTask,001,116,
min1.png,min2.png,min3.png,min4.png,images/allBlank.png,"['num_7', 'num_4', 'num_1', 'num_0']",['num_0'],num_0,[4],'num_0',images/min4.png,"[(0.45, 0.79)]",,,,,0,-1,-1,0,1,3,7,3,,,,,"(0.75, 0.04)",images/min4.png,8,0.0797542236978,2.65092404064,[ 0.0453125 -0.325    ],0.00598194624763,1,,2018_Jun_25_1202,59.7114986563,sequenceLearningTask,001,116,
min1.png,min2.png,min3.png,min4.png,images/allBlank.png,"['num_7', 'num_4', 'num_1', 'num_0']",['num_0'],num_0,[4],'num_0',images/min4.png,"[(0.45, 0.79)]",,,,,0,-1,-1,0,1,3,7,3,,,,,"(-0.25, 0.04)",images/min2.png,8,0.0630896151415,3.07248161131,[ 0.7078125  -0.15555556],1.62687974283,1,,2018_Jun_25_1202,59.7114986563,sequenceLearningTask,001,116,
min1.png,min2.png,min3.png,min4.png,images/allBlank.png,"['num_7', 'num_4', 'num_1', 'num_0']",['num_0'],num_0,[4],'num_0',images/min4.png,"[(0.45, 0.79)]",,,,,0,-1,-1,0,1,3,7,3,,,,,"(0.25, 0.04)",images/min3.png,8,0.0619868463546,0.878566613945,[-0.328125   -0.01388889],,,,2018_Jun_25_1202,59.7114986563,sequenceLearningTask,001,116,
min1.png,min2.png,min3.png,min4.png,images/allBlank.png,"['num_7', 'num_4', 'num_1', 'num_0']",['num_0'],num_0,[4],'num_0',images/min4.png,"[(0.45, 0.79)]",,,,,0,-1,-1,0,2,0,8,3,,,,,"(0.25, 0.04)",images/min3.png,9,0.062526743568,1.41287942036,[ 0.140625  0.025   ],,,,2018_Jun_25_1202,59.7114986563,sequenceLearningTask,001,116,
min1.png,min2.png,min3.png,min4.png,images/allBlank.png,"['num_7', 'num_4', 'num_1', 'num_0']",['num_0'],num_0,[4],'num_0',images/min4.png,"[(0.45, 0.79)]",,,,,0,-1,-1,0,2,0,8,3,,,,,"(-0.75, 0.04)",images/min1.png,9,0.0581575146061,2.00778994552,[ 0.3359375  -0.11944444],,,,2018_Jun_25_1202,59.7114986563,sequenceLearningTask,001,116,
min1.png,min2.png,min3.png,min4.png,images/allBlank.png,"['num_7', 'num_4', 'num_1', 'num_0']",['num_0'],num_0,[4],'num_0',images/min4.png,"[(0.45, 0.79)]",,,,,0,-1,-1,0,2,0,8,3,,,,,"(-0.75, 0.04)",images/min1.png,9,0.0625698204676,0.63142661273,[-0.7765625  0.05     ],,,,2018_Jun_25_1202,59.7114986563,sequenceLearningTask,001,116,
min1.png,min2.png,min3.png,min4.png,images/allBlank.png,"['num_7', 'num_4', 'num_1', 'num_0']",['num_0'],num_0,[4],'num_0',images/min4.png,"[(0.45, 0.79)]",,,,,0,-1,-1,0,2,0,8,3,,,,,"(0.75, 0.04)",images/min4.png,9,0.0625382307626,1.41622382923,[-0.803125    0.03611111],,,,2018_Jun_25_1202,59.7114986563,sequenceLearningTask,001,116,
min1.png,min2.png,min3.png,min4.png,images/allBlank.png,"['num_7', 'num_4', 'num_1', 'num_0']",['num_4'],num_4,[2],'num_4',images/min2.png,"[(0.45, 0.79)]",,,,,0,-1,-1,0,2,1,9,1,,,,,"(0.25, 0.04)",images/min3.png,10,0.0588541296893,1.24852625703,[ 0.84375    -0.08333333],,,,2018_Jun_25_1202,59.7114986563,sequenceLearningTask,001,116,
min1.png,min2.png,min3.png,min4.png,images/allBlank.png,"['num_7', 'num_4', 'num_1', 'num_0']",['num_4'],num_4,[2],'num_4',images/min2.png,"[(0.45, 0.79)]",,,,,0,-1,-1,0,2,1,9,1,,,,,"(-0.25, 0.04)",images/min2.png,10,0.0580360787571,0.516089224169,[ 0.3203125   0.01944444],,,,2018_Jun_25_1202,59.7114986563,sequenceLearningTask,001,116,
min1.png,min2.png,min3.png,min4.png,images/allBlank.png,"['num_7', 'num_4', 'num_1', 'num_0']",['num_4'],num_4,[2],'num_4',images/min2.png,"[(0.45, 0.79)]",,,,,0,-1,-1,0,2,1,9,1,,,,,"(0.75, 0.04)",images/min4.png,10,0.0529025424039,5.47742790668,[-0.1390625  -0.01388889],,,,2018_Jun_25_1202,59.7114986563,sequenceLearningTask,001,116,
min1.png,min2.png,min3.png,min4.png,images/allBlank.png,"['num_7', 'num_4', 'num_1', 'num_0']",['num_4'],num_4,[2],'num_4',images/min2.png,"[(0.45, 0.79)]",,,,,0,-1,-1,0,2,1,9,1,,,,,"(-0.75, 0.04)",images/min1.png,10,0.0690842793556,1.19374022822,[ 0.8484375   0.03055556],,,,2018_Jun_25_1202,59.7114986563,sequenceLearningTask,001,116,
min1.png,min2.png,min3.png,min4.png,images/allBlank.png,"['num_7', 'num_4', 'num_1', 'num_0']",['num_7'],num_7,[1],'num_7',images/min1.png,"[(0.45, 0.79)]",,,,,0,-1,-1,0,2,2,10,0,,,,,"(0.75, 0.04)",images/min4.png,11,0.0517562864698,0.717692423495,[-0.5484375 -0.025    ],,,,2018_Jun_25_1202,59.7114986563,sequenceLearningTask,001,116,
min1.png,min2.png,min3.png,min4.png,images/allBlank.png,"['num_7', 'num_4', 'num_1', 'num_0']",['num_7'],num_7,[1],'num_7',images/min1.png,"[(0.45, 0.79)]",,,,,0,-1,-1,0,2,2,10,0,,,,,"(-0.75, 0.04)",images/min1.png,11,0.0542219264898,0.720792319684,[ 0.7265625   0.01111111],,,,2018_Jun_25_1202,59.7114986563,sequenceLearningTask,001,116,
min1.png,min2.png,min3.png,min4.png,images/allBlank.png,"['num_7', 'num_4', 'num_1', 'num_0']",['num_7'],num_7,[1],'num_7',images/min1.png,"[(0.45, 0.79)]",,,,,0,-1,-1,0,2,2,10,0,,,,,"(-0.75, 0.04)",images/min1.png,11,0.0535737215832,0.809338744875,[-0.6375     -0.25277778],,,,2018_Jun_25_1202,59.7114986563,sequenceLearningTask,001,116,
min1.png,min2.png,min3.png,min4.png,images/allBlank.png,"['num_7', 'num_4', 'num_1', 'num_0']",['num_7'],num_7,[1],'num_7',images/min1.png,"[(0.45, 0.79)]",,,,,0,-1,-1,0,2,2,10,0,,,,,"(-0.75, 0.04)",images/min1.png,11,0.0428344439715,0.0660701267479,[-0.7171875  -0.19166667],,,,2018_Jun_25_1202,59.7114986563,sequenceLearningTask,001,116,
min1.png,min2.png,min3.png,min4.png,images/allBlank.png,"['num_7', 'num_4', 'num_1', 'num_0']",['num_1'],num_1,[3],'num_1',images/min3.png,"[(0.45, 0.79)]",,,,,0,-1,-1,0,2,3,11,2,,,,,"(-0.75, 0.04)",images/min1.png,12,0.0630252049305,0.205930992437,[-0.6203125  -0.22777778],,,,2018_Jun_25_1202,59.7114986563,sequenceLearningTask,001,116,
min1.png,min2.png,min3.png,min4.png,images/allBlank.png,"['num_7', 'num_4', 'num_1', 'num_0']",['num_1'],num_1,[3],'num_1',images/min3.png,"[(0.45, 0.79)]",,,,,0,-1,-1,0,2,3,11,2,,,,,"(-0.25, 0.04)",images/min2.png,12,0.0681464335939,0.853582829295,[-0.6609375  -0.33611111],0.13941532743,1,,2018_Jun_25_1202,59.7114986563,sequenceLearningTask,001,116,
min1.png,min2.png,min3.png,min4.png,images/allBlank.png,"['num_7', 'num_4', 'num_1', 'num_0']",['num_1'],num_1,[3],'num_1',images/min3.png,"[(0.45, 0.79)]",,,,,0,-1,-1,0,2,3,11,2,,,,,"(0.25, 0.04)",images/min3.png,12,0.0685058180534,0.684719719109,[-0.2875     -0.00277778],0.684719719109,1,,2018_Jun_25_1202,59.7114986563,sequenceLearningTask,001,116,
min1.png,min2.png,min3.png,min4.png,images/allBlank.png,"['num_7', 'num_4', 'num_1', 'num_0']",['num_1'],num_1,[3],'num_1',images/min3.png,"[(0.45, 0.79)]",,,,,0,-1,-1,0,2,3,11,2,,,,,"(0.75, 0.04)",images/min4.png,12,0.0605952571786,0.575061917916,[ 0.3671875   0.00277778],,,,2018_Jun_25_1202,59.7114986563,sequenceLearningTask,001,116,
min1.png,min2.png,min3.png,min4.png,images/allBlank.png,"['num_7', 'num_4', 'num_1', 'num_0']",['num_0'],num_0,[4],'num_0',images/min4.png,"[(0.45, 0.79)]",,,,,0,-1,-1,0,3,0,12,3,,,,,"(-0.25, 0.04)",images/min2.png,13,0.060389308579,0.979547905852,[ 0.7328125   0.15277778],0.175428030605,1,,2018_Jun_25_1202,59.7114986563,sequenceLearningTask,001,116,
min1.png,min2.png,min3.png,min4.png,images/allBlank.png,"['num_7', 'num_4', 'num_1', 'num_0']",['num_0'],num_0,[4],'num_0',images/min4.png,"[(0.45, 0.79)]",,,,,0,-1,-1,0,3,0,12,3,,,,,"(-0.75, 0.04)",images/min1.png,13,0.0566723869997,0.804394746927,[-0.275      -0.07777778],,,,2018_Jun_25_1202,59.7114986563,sequenceLearningTask,001,116,
min1.png,min2.png,min3.png,min4.png,images/allBlank.png,"['num_7', 'num_4', 'num_1', 'num_0']",['num_0'],num_0,[4],'num_0',images/min4.png,"[(0.45, 0.79)]",,,,,0,-1,-1,0,3,0,12,3,,,,,"(0.75, 0.04)",images/min4.png,13,0.0568192587525,1.34029893731,[-0.6609375  -0.06944444],0.468226679717,1,,2018_Jun_25_1202,59.7114986563,sequenceLearningTask,001,116,
min1.png,min2.png,min3.png,min4.png,images/allBlank.png,"['num_7', 'num_4', 'num_1', 'num_0']",['num_0'],num_0,[4],'num_0',images/min4.png,"[(0.45, 0.79)]",,,,,0,-1,-1,0,3,0,12,3,,,,,"(0.75, 0.04)",images/min4.png,13,0.0618420258979,0.277538347669,[ 0.721875   -0.17777778],,,,2018_Jun_25_1202,59.7114986563,sequenceLearningTask,001,116,
min1.png,min2.png,min3.png,min4.png,images/allBlank.png,"['num_7', 'num_4', 'num_1', 'num_0']",['num_4'],num_4,[2],'num_4',images/min2.png,"[(0.45, 0.79)]",,,,,0,-1,-1,0,3,1,13,1,,,,,"(-0.75, 0.04)",images/min1.png,14,0.0539864393941,1.00276553733,[ 0.7671875  -0.11944444],,,,2018_Jun_25_1202,59.7114986563,sequenceLearningTask,001,116,
min1.png,min2.png,min3.png,min4.png,images/allBlank.png,"['num_7', 'num_4', 'num_1', 'num_0']",['num_4'],num_4,[2],'num_4',images/min2.png,"[(0.45, 0.79)]",,,,,0,-1,-1,0,3,1,13,1,,,,,"(0.25, 0.04)",images/min3.png,14,0.0558018232696,0.587249810342,[-0.6796875   0.08055556],,,,2018_Jun_25_1202,59.7114986563,sequenceLearningTask,001,116,
min1.png,min2.png,min3.png,min4.png,images/allBlank.png,"['num_7', 'num_4', 'num_1', 'num_0']",['num_4'],num_4,[2],'num_4',images/min2.png,"[(0.45, 0.79)]",,,,,0,-1,-1,0,3,1,13,1,,,,,"(0.75, 0.04)",images/min4.png,14,0.0569891048362,0.568740689749,[ 0.2796875  -0.20277778],,,,2018_Jun_25_1202,59.7114986563,sequenceLearningTask,001,116,
min1.png,min2.png,min3.png,min4.png,images/allBlank.png,"['num_7', 'num_4', 'num_1', 'num_0']",['num_4'],num_4,[2],'num_4',images/min2.png,"[(0.45, 0.79)]",,,,,0,-1,-1,0,3,1,13,1,,,,,"(0.25, 0.04)",images/min3.png,14,0.0546342339949,1.02280122144,[ 0.709375    0.04444444],0.420399007038,1,,2018_Jun_25_1202,59.7114986563,sequenceLearningTask,001,116,
min1.png,min2.png,min3.png,min4.png,images/allBlank.png,"['num_7', 'num_4', 'num_1', 'num_0']",['num_7'],num_7,[1],'num_7',images/min1.png,"[(0.45, 0.79)]",,,,,0,-1,-1,0,3,2,14,0,,,,,"(-0.25, 0.04)",images/min2.png,15,0.0654202808801,0.728351701197,[ 0.2171875   0.06944444],,,,2018_Jun_25_1202,59.7114986563,sequenceLearningTask,001,116,
min1.png,min2.png,min3.png,min4.png,images/allBlank.png,"['num_7', 'num_4', 'num_1', 'num_0']",['num_7'],num_7,[1],'num_7',images/min1.png,"[(0.45, 0.79)]",,,,,0,-1,-1,0,3,2,14,0,,,,,"(0.75, 0.04)",images/min4.png,15,0.0498202872404,0.88828886635,[-0.2640625  -0.09444444],,,,2018_Jun_25_1202,59.7114986563,sequenceLearningTask,001,116,
min1.png,min2.png,min3.png,min4.png,images/allBlank.png,"['num_7', 'num_4', 'num_1', 'num_0']",['num_7'],num_7,[1],'num_7',images/min1.png,"[(0.45, 0.79)]",,,,,0,-1,-1,0,3,2,14,0,,,,,"(0.25, 0.04)",images/min3.png,15,0.0551503363531,1.05887095022,[ 0.7265625   0.06111111],,,,2018_Jun_25_1202,59.7114986563,sequenceLearningTask,001,116,
min1.png,min2.png,min3.png,min4.png,images/allBlank.png,"['num_7', 'num_4', 'num_1', 'num_0']",['num_7'],num_7,[1],'num_7',images/min1.png,"[(0.45, 0.79)]",,,,,0,-1,-1,0,3,2,14,0,,,,,"(-0.75, 0.04)",images/min1.png,15,0.0654108449526,1.26219435397,[ 0.2578125   0.01388889],0.00508348509902,1,,2018_Jun_25_1202,59.7114986563,sequenceLearningTask,001,116,
min1.png,min2.png,min3.png,min4.png,images/allBlank.png,"['num_7', 'num_4', 'num_1', 'num_0']",['num_1'],num_1,[3],'num_1',images/min3.png,"[(0.45, 0.79)]",,,,,0,-1,-1,0,3,3,15,2,,,,,"(0.75, 0.04)",images/min4.png,16,0.0544947468734,1.28826326635,[-0.7359375  -0.26111111],0.616355849721,1,,2018_Jun_25_1202,59.7114986563,sequenceLearningTask,001,116,
min1.png,min2.png,min3.png,min4.png,images/allBlank.png,"['num_7', 'num_4', 'num_1', 'num_0']",['num_1'],num_1,[3],'num_1',images/min3.png,"[(0.45, 0.79)]",,,,,0,-1,-1,0,3,3,15,2,,,,,"(-0.75, 0.04)",images/min1.png,16,0.0634953585686,0.942772126029,[ 0.70625    -0.21944444],,,,2018_Jun_25_1202,59.7114986563,sequenceLearningTask,001,116,
min1.png,min2.png,min3.png,min4.png,images/allBlank.png,"['num_7', 'num_4', 'num_1', 'num_0']",['num_1'],num_1,[3],'num_1',images/min3.png,"[(0.45, 0.79)]",,,,,0,-1,-1,0,3,3,15,2,,,,,"(-0.25, 0.04)",images/min2.png,16,0.0652077681152,1.6613199338,[-0.7578125  -0.18611111],1.04623751951,1,,2018_Jun_25_1202,59.7114986563,sequenceLearningTask,001,116,
min1.png,min2.png,min3.png,min4.png,images/allBlank.png,"['num_7', 'num_4', 'num_1', 'num_0']",['num_1'],num_1,[3],'num_1',images/min3.png,"[(0.45, 0.79)]",,,,,0,-1,-1,0,3,3,15,2,,,,,"(0.75, 0.04)",images/min4.png,16,0.0725452010229,0.0,[ 0.5203125   0.18611111],,,1,2018_Jun_25_1202,59.7114986563,sequenceLearningTask,001,116,
min1.png,min2.png,min3.png,min4.png,images/allBlank.png,"['num_7', 'num_4', 'num_1', 'num_0']",['num_4'],num_4,[2],'num_4',images/min2.png,"[(0.45, 0.79)]",,,,,0,-1,-1,0,4,0,16,1,,,,,"(-0.25, 0.04)",images/min2.png,17,0.052741721971,1.09336201299,[ 0.84375     0.21388889],,,,2018_Jun_25_1202,59.7114986563,sequenceLearningTask,001,116,
min1.png,min2.png,min3.png,min4.png,images/allBlank.png,"['num_7', 'num_4', 'num_1', 'num_0']",['num_4'],num_4,[2],'num_4',images/min2.png,"[(0.45, 0.79)]",,,,,0,-1,-1,0,4,0,16,1,,,,,"(-0.25, 0.04)",images/min2.png,17,0.0525456194882,0.355466110574,[-0.24375     0.06944444],,,,2018_Jun_25_1202,59.7114986563,sequenceLearningTask,001,116,
min1.png,min2.png,min3.png,min4.png,images/allBlank.png,"['num_7', 'num_4', 'num_1', 'num_0']",['num_4'],num_4,[2],'num_4',images/min2.png,"[(0.45, 0.79)]",,,,,0,-1,-1,0,4,0,16,1,,,,,"(0.25, 0.04)",images/min3.png,17,0.0651585373562,0.961178682599,[-0.159375    0.06111111],,,,2018_Jun_25_1202,59.7114986563,sequenceLearningTask,001,116,
min1.png,min2.png,min3.png,min4.png,images/allBlank.png,"['num_7', 'num_4', 'num_1', 'num_0']",['num_4'],num_4,[2],'num_4',images/min2.png,"[(0.45, 0.79)]",,,,,0,-1,-1,0,4,0,16,1,,,,,"(-0.75, 0.04)",images/min1.png,17,0.0670313571172,1.75651620247,[ 0.2515625  -0.09166667],,,,2018_Jun_25_1202,59.7114986563,sequenceLearningTask,001,116,
min1.png,min2.png,min3.png,min4.png,images/allBlank.png,"['num_7', 'num_4', 'num_1', 'num_0']",['num_1'],num_1,[3],'num_1',images/min3.png,"[(0.45, 0.79)]",,,,,0,-1,-1,0,4,1,17,2,,,,,"(-0.75, 0.04)",images/min1.png,18,0.0727552522148,2.76059866234,[-0.84375    -0.17777778],1.06877986924,1,,2018_Jun_25_1202,59.7114986563,sequenceLearningTask,001,116,
min1.png,min2.png,min3.png,min4.png,images/allBlank.png,"['num_7', 'num_4', 'num_1', 'num_0']",['num_1'],num_1,[3],'num_1',images/min3.png,"[(0.45, 0.79)]",,,,,0,-1,-1,0,4,1,17,2,,,,,"(0.25, 0.04)",images/min3.png,18,0.0593624371977,2.0929435516,[-0.6546875  -0.21388889],,,,2018_Jun_25_1202,59.7114986563,sequenceLearningTask,001,116,
min1.png,min2.png,min3.png,min4.png,images/allBlank.png,"['num_7', 'num_4', 'num_1', 'num_0']",['num_1'],num_1,[3],'num_1',images/min3.png,"[(0.45, 0.79)]",,,,,0,-1,-1,0,4,1,17,2,,,,,"(0.25, 0.04)",images/min3.png,18,0.0619548463728,0.595248986559,[ 0.2734375  -0.11944444],,,,2018_Jun_25_1202,59.7114986563,sequenceLearningTask,001,116,
min1.png,min2.png,min3.png,min4.png,images/allBlank.png,"['num_7', 'num_4', 'num_1', 'num_0']",['num_1'],num_1,[3],'num_1',images/min3.png,"[(0.45, 0.79)]",,,,,0,-1,-1,0,4,1,17,2,,,,,"(0.75, 0.04)",images/min4.png,18,0.0607466417423,0.595779858122,[ 0.3203125 -0.175    ],,,,2018_Jun_25_1202,59.7114986563,sequenceLearningTask,001,116,
min1.png,min2.png,min3.png,min4.png,images/allBlank.png,"['num_7', 'num_4', 'num_1', 'num_0']",['num_7'],num_7,[1],'num_7',images/min1.png,"[(0.45, 0.79)]",,,,,0,-1,-1,0,4,2,18,0,,,,,"(-0.25, 0.04)",images/min2.png,19,0.0590223347535,0.659925883112,[ 0.7015625  -0.14722222],,,,2018_Jun_25_1202,59.7114986563,sequenceLearningTask,001,116,
min1.png,min2.png,min3.png,min4.png,images/allBlank.png,"['num_7', 'num_4', 'num_1', 'num_0']",['num_7'],num_7,[1],'num_7',images/min1.png,"[(0.45, 0.79)]",,,,,0,-1,-1,0,4,2,18,0,,,,,"(-0.25, 0.04)",images/min2.png,19,0.0598063344369,1.01855260777,[-0.2546875  -0.18333333],,,,2018_Jun_25_1202,59.7114986563,sequenceLearningTask,001,116,
min1.png,min2.png,min3.png,min4.png,images/allBlank.png,"['num_7', 'num_4', 'num_1', 'num_0']",['num_7'],num_7,[1],'num_7',images/min1.png,"[(0.45, 0.79)]",,,,,0,-1,-1,0,4,2,18,0,,,,,"(-0.25, 0.04)",images/min2.png,19,0.0581579248828,3.02978665446,[-0.184375   -0.06944444],,,,2018_Jun_25_1202,59.7114986563,sequenceLearningTask,001,116,
min1.png,min2.png,min3.png,min4.png,images/allBlank.png,"['num_7', 'num_4', 'num_1', 'num_0']",['num_7'],num_7,[1],'num_7',images/min1.png,"[(0.45, 0.79)]",,,,,0,-1,-1,0,4,2,18,0,,,,,"(-0.75, 0.04)",images/min1.png,19,0.0623983333935,2.50438092128,[-0.2640625  -0.19166667],,,,2018_Jun_25_1202,59.7114986563,sequenceLearningTask,001,116,
min1.png,min2.png,min3.png,min4.png,images/allBlank.png,"['num_7', 'num_4', 'num_1', 'num_0']",['num_0'],num_0,[4],'num_0',images/min4.png,"[(0.45, 0.79)]",,,,,0,-1,-1,0,4,3,19,3,,,,,"(-0.25, 0.04)",images/min2.png,20,0.0536250036384,0.568467048841,[-0.8734375  -0.01111111],,,,2018_Jun_25_1202,59.7114986563,sequenceLearningTask,001,116,
min1.png,min2.png,min3.png,min4.png,images/allBlank.png,"['num_7', 'num_4', 'num_1', 'num_0']",['num_0'],num_0,[4],'num_0',images/min4.png,"[(0.45, 0.79)]",,,,,0,-1,-1,0,4,3,19,3,,,,,"(0.75, 0.04)",images/min4.png,20,0.0601406932692,0.881794510031,[-0.1734375  -0.10833333],,,,2018_Jun_25_1202,59.7114986563,sequenceLearningTask,001,116,
min1.png,min2.png,min3.png,min4.png,images/allBlank.png,"['num_7', 'num_4', 'num_1', 'num_0']",['num_0'],num_0,[4],'num_0',images/min4.png,"[(0.45, 0.79)]",,,,,0,-1,-1,0,4,3,19,3,,,,,"(0.25, 0.04)",images/min3.png,20,0.0602625393658,0.716852628975,[ 0.678125    0.01388889],,,,2018_Jun_25_1202,59.7114986563,sequenceLearningTask,001,116,
min1.png,min2.png,min3.png,min4.png,images/allBlank.png,"['num_7', 'num_4', 'num_1', 'num_0']",['num_0'],num_0,[4],'num_0',images/min4.png,"[(0.45, 0.79)]",,,,,0,-1,-1,0,4,3,19,3,,,,,"(0.25, 0.04)",images/min3.png,20,0.0615987439814,0.545282237814,[ 0.271875    0.00277778],,,,2018_Jun_25_1202,59.7114986563,sequenceLearningTask,001,116,
min1.png,min2.png,min3.png,min4.png,allBlank.png,"['num_7', 'num_4', 'num_1', 'num_0']",['num_0'],num_0,[4],'num_0',images/min4.png,"[(0.45, 0.79)]",,,,,0,0,0,0,4,3,19,3,,,,,"(-0.75, -0.04)",images/min1.png,1,0.0347835754801,1.17940382383,[ 0.115625   -0.08055556],,,,2018_Jun_25_1202,59.7114986563,sequenceLearningTask,001,116,
min1.png,min2.png,min3.png,min4.png,allBlank.png,"['num_7', 'num_4', 'num_1', 'num_0']",['num_0'],num_0,[4],'num_0',images/min4.png,"[(0.45, 0.79)]",,,,,0,0,0,0,4,3,19,3,,,,,"(0.25, -0.04)",images/min3.png,1,0.060657205875,0.665299829619,[-0.7359375  -0.14166667],,,,2018_Jun_25_1202,59.7114986563,sequenceLearningTask,001,116,
min1.png,min2.png,min3.png,min4.png,allBlank.png,"['num_7', 'num_4', 'num_1', 'num_0']",['num_0'],num_0,[4],'num_0',images/min4.png,"[(0.45, 0.79)]",,,,,0,0,0,0,4,3,19,3,,,,,"(-0.25, -0.04)",images/min2.png,1,0.0573521816113,0.779984090274,[ 0.203125    0.06666667],,,,2018_Jun_25_1202,59.7114986563,sequenceLearningTask,001,116,
min1.png,min2.png,min3.png,min4.png,allBlank.png,"['num_7', 'num_4', 'num_1', 'num_0']",['num_0'],num_0,[4],'num_0',images/min4.png,"[(0.45, 0.79)]",,,,,0,0,0,0,4,3,19,3,,,,,"(0.75, -0.04)",images/min4.png,1,0.0629304356989,1.24966266681,[-0.140625   -0.13333333],,,,2018_Jun_25_1202,59.7114986563,sequenceLearningTask,001,116,
min1.png,min2.png,min3.png,min4.png,allBlank.png,"['num_7', 'num_4', 'num_1', 'num_0']",['num_0'],num_0,[4],'num_0',images/min4.png,"[(0.45, 0.79)]",,,,,0,0,0,0,4,3,19,3,,,,,"(0.75, -0.04)",images/min4.png,1,0.0576771045453,0.550794030452,[ 0.640625   -0.03055556],,,,2018_Jun_25_1202,59.7114986563,sequenceLearningTask,001,116,
min1.png,min2.png,min3.png,min4.png,allBlank.png,"['num_7', 'num_4', 'num_1', 'num_0']",['num_0'],num_0,[4],'num_0',images/min4.png,"[(0.45, 0.79)]",,,,,0,0,0,0,4,3,19,3,,,,,"(-0.25, -0.04)",images/min2.png,1,0.0554875669768,0.808264283784,[ 0.7484375   0.01388889],,,,2018_Jun_25_1202,59.7114986563,sequenceLearningTask,001,116,
min1.png,min2.png,min3.png,min4.png,allBlank.png,"['num_7', 'num_4', 'num_1', 'num_0']",['num_0'],num_0,[4],'num_0',images/min4.png,"[(0.45, 0.79)]",,,,,0,0,0,0,4,3,19,3,,,,,"(0.25, -0.04)",images/min3.png,1,0.0513169020123,1.06255299997,[-0.159375   -0.13611111],,,,2018_Jun_25_1202,59.7114986563,sequenceLearningTask,001,116,
min1.png,min2.png,min3.png,min4.png,allBlank.png,"['num_7', 'num_4', 'num_1', 'num_0']",['num_0'],num_0,[4],'num_0',images/min4.png,"[(0.45, 0.79)]",,,,,0,0,0,0,4,3,19,3,,,,,"(0.75, -0.04)",images/min4.png,1,0.059913411329,0.770464914676,[ 0.2765625  -0.13333333],,,,2018_Jun_25_1202,59.7114986563,sequenceLearningTask,001,116,
min1.png,min2.png,min3.png,min4.png,allBlank.png,"['num_7', 'num_4', 'num_1', 'num_0']",['num_0'],num_0,[4],'num_0',images/min4.png,"[(0.45, 0.79)]",,,,,0,1,1,1,4,3,19,3,,,,,"(-0.75, -0.04)",images/min1.png,2,0.0579671557061,1.23399375018,[ 0.7234375  -0.13611111],,,,2018_Jun_25_1202,59.7114986563,sequenceLearningTask,001,116,
min1.png,min2.png,min3.png,min4.png,allBlank.png,"['num_7', 'num_4', 'num_1', 'num_0']",['num_0'],num_0,[4],'num_0',images/min4.png,"[(0.45, 0.79)]",,,,,0,1,1,1,4,3,19,3,,,,,"(0.25, -0.04)",images/min3.png,2,0.0621345386025,0.969826063665,[-0.73125    -0.14166667],,,,2018_Jun_25_1202,59.7114986563,sequenceLearningTask,001,116,
min1.png,min2.png,min3.png,min4.png,allBlank.png,"['num_7', 'num_4', 'num_1', 'num_0']",['num_0'],num_0,[4],'num_0',images/min4.png,"[(0.45, 0.79)]",,,,,0,1,1,1,4,3,19,3,,,,,"(-0.25, -0.04)",images/min2.png,2,0.0723302267143,1.07330581607,[ 0.2609375  -0.04722222],,,,2018_Jun_25_1202,59.7114986563,sequenceLearningTask,001,116,
min1.png,min2.png,min3.png,min4.png,allBlank.png,"['num_7', 'num_4', 'num_1', 'num_0']",['num_0'],num_0,[4],'num_0',images/min4.png,"[(0.45, 0.79)]",,,,,0,1,1,1,4,3,19,3,,,,,"(0.75, -0.04)",images/min4.png,2,0.0590231552778,2.84402098705,[-0.2234375   0.05833333],,,,2018_Jun_25_1202,59.7114986563,sequenceLearningTask,001,116,
min1.png,min2.png,min3.png,min4.png,allBlank.png,"['num_7', 'num_4', 'num_1', 'num_0']",['num_0'],num_0,[4],'num_0',images/min4.png,"[(0.45, 0.79)]",,,,,0,1,1,1,4,3,19,3,,,,,"(0.75, -0.04)",images/min4.png,2,0.059289821831,1.42127654512,[ 0.6703125  -0.09444444],,,,2018_Jun_25_1202,59.7114986563,sequenceLearningTask,001,116,
min1.png,min2.png,min3.png,min4.png,allBlank.png,"['num_7', 'num_4', 'num_1', 'num_0']",['num_0'],num_0,[4],'num_0',images/min4.png,"[(0.45, 0.79)]",,,,,0,1,1,1,4,3,19,3,,,,,"(-0.25, -0.04)",images/min2.png,2,0.0557140284218,2.27969506473,[ 0.7265625  -0.13333333],,,,2018_Jun_25_1202,59.7114986563,sequenceLearningTask,001,116,
min1.png,min2.png,min3.png,min4.png,allBlank.png,"['num_7', 'num_4', 'num_1', 'num_0']",['num_0'],num_0,[4],'num_0',images/min4.png,"[(0.45, 0.79)]",,,,,0,1,1,1,4,3,19,3,,,,,"(0.25, -0.04)",images/min3.png,2,0.0594998730521,0.650230707601,[-0.25625    -0.14722222],,,,2018_Jun_25_1202,59.7114986563,sequenceLearningTask,001,116,
min1.png,min2.png,min3.png,min4.png,allBlank.png,"['num_7', 'num_4', 'num_1', 'num_0']",['num_0'],num_0,[4],'num_0',images/min4.png,"[(0.45, 0.79)]",,,,,0,1,1,1,4,3,19,3,,,,,"(0.75, -0.04)",images/min4.png,2,0.0576397712284,0.500358769088,[ 0.4359375  -0.17777778],,,,2018_Jun_25_1202,59.7114986563,sequenceLearningTask,001,116,
min1.png,min2.png,min3.png,min4.png,allBlank.png,"['num_7', 'num_4', 'num_1', 'num_0']",['num_0'],num_0,[4],'num_0',images/min4.png,"[(0.45, 0.79)]",,,,,0,2,2,2,4,3,19,3,,,,,"(-0.75, -0.04)",images/min1.png,3,0.0544299263856,0.752698357886,[ 0.671875   -0.11388889],,,,2018_Jun_25_1202,59.7114986563,sequenceLearningTask,001,116,
min1.png,min2.png,min3.png,min4.png,allBlank.png,"['num_7', 'num_4', 'num_1', 'num_0']",['num_0'],num_0,[4],'num_0',images/min4.png,"[(0.45, 0.79)]",,,,,0,2,2,2,4,3,19,3,,,,,"(0.25, -0.04)",images/min3.png,3,0.0628135126899,0.695973868336,[-0.6515625  -0.06111111],,,,2018_Jun_25_1202,59.7114986563,sequenceLearningTask,001,116,
min1.png,min2.png,min3.png,min4.png,allBlank.png,"['num_7', 'num_4', 'num_1', 'num_0']",['num_0'],num_0,[4],'num_0',images/min4.png,"[(0.45, 0.79)]",,,,,0,2,2,2,4,3,19,3,,,,,"(-0.25, -0.04)",images/min2.png,3,0.0496303386171,0.594660268864,[ 0.2890625   0.04722222],,,,2018_Jun_25_1202,59.7114986563,sequenceLearningTask,001,116,
min1.png,min2.png,min3.png,min4.png,allBlank.png,"['num_7', 'num_4', 'num_1', 'num_0']",['num_0'],num_0,[4],'num_0',images/min4.png,"[(0.45, 0.79)]",,,,,0,2,2,2,4,3,19,3,,,,,"(0.75, -0.04)",images/min4.png,3,0.0555417207943,0.567768382432,[-0.10625    -0.05277778],,,,2018_Jun_25_1202,59.7114986563,sequenceLearningTask,001,116,
min1.png,min2.png,min3.png,min4.png,allBlank.png,"['num_7', 'num_4', 'num_1', 'num_0']",['num_0'],num_0,[4],'num_0',images/min4.png,"[(0.45, 0.79)]",,,,,0,2,2,2,4,3,19,3,,,,,"(0.75, -0.04)",images/min4.png,3,0.0561866436037,0.483615391335,[ 0.6796875  -0.08611111],,,,2018_Jun_25_1202,59.7114986563,sequenceLearningTask,001,116,
min1.png,min2.png,min3.png,min4.png,allBlank.png,"['num_7', 'num_4', 'num_1', 'num_0']",['num_0'],num_0,[4],'num_0',images/min4.png,"[(0.45, 0.79)]",,,,,0,2,2,2,4,3,19,3,,,,,"(-0.25, -0.04)",images/min2.png,3,0.0530887987406,0.573871354311,[ 0.7140625  -0.00833333],,,,2018_Jun_25_1202,59.7114986563,sequenceLearningTask,001,116,
min1.png,min2.png,min3.png,min4.png,allBlank.png,"['num_7', 'num_4', 'num_1', 'num_0']",['num_0'],num_0,[4],'num_0',images/min4.png,"[(0.45, 0.79)]",,,,,0,2,2,2,4,3,19,3,,,,,"(0.25, -0.04)",images/min3.png,3,0.0534682857688,0.467751602962,[-0.215625   -0.06111111],,,,2018_Jun_25_1202,59.7114986563,sequenceLearningTask,001,116,
min1.png,min2.png,min3.png,min4.png,allBlank.png,"['num_7', 'num_4', 'num_1', 'num_0']",['num_0'],num_0,[4],'num_0',images/min4.png,"[(0.45, 0.79)]",,,,,0,2,2,2,4,3,19,3,,,,,"(0.75, -0.04)",images/min4.png,3,0.0556516694778,0.685624744365,[ 0.309375   -0.13055556],,,,2018_Jun_25_1202,59.7114986563,sequenceLearningTask,001,116,
min1.png,min2.png,min3.png,min4.png,allBlank.png,"['num_7', 'num_4', 'num_1', 'num_0']",['num_0'],num_0,[4],'num_0',images/min4.png,"[(0.45, 0.79)]",,,,,0,3,3,3,4,3,19,3,,,,,"(-0.75, -0.04)",images/min1.png,4,0.0545127981459,1.12306825721,[ 0.76875    -0.18055556],0.283093627455,1,,2018_Jun_25_1202,59.7114986563,sequenceLearningTask,001,116,
min1.png,min2.png,min3.png,min4.png,allBlank.png,"['num_7', 'num_4', 'num_1', 'num_0']",['num_0'],num_0,[4],'num_0',images/min4.png,"[(0.45, 0.79)]",,,,,0,3,3,3,4,3,19,3,,,,,"(0.25, -0.04)",images/min3.png,4,0.056505822984,0.653654706199,[-0.7203125  -0.14722222],,,,2018_Jun_25_1202,59.7114986563,sequenceLearningTask,001,116,
min1.png,min2.png,min3.png,min4.png,allBlank.png,"['num_7', 'num_4', 'num_1', 'num_0']",['num_0'],num_0,[4],'num_0',images/min4.png,"[(0.45, 0.79)]",,,,,0,3,3,3,4,3,19,3,,,,,"(-0.25, -0.04)",images/min2.png,4,0.0560713616142,1.07061740692,[ 0.2609375   0.08055556],0.183108027442,1,,2018_Jun_25_1202,59.7114986563,sequenceLearningTask,001,116,
min1.png,min2.png,min3.png,min4.png,allBlank.png,"['num_7', 'num_4', 'num_1', 'num_0']",['num_0'],num_0,[4],'num_0',images/min4.png,"[(0.45, 0.79)]",,,,,0,3,3,3,4,3,19,3,,,,,"(0.75, -0.04)",images/min4.png,4,0.0640955634299,1.14677778594,[-0.1046875  -0.03611111],,,,2018_Jun_25_1202,59.7114986563,sequenceLearningTask,001,116,
min1.png,min2.png,min3.png,min4.png,allBlank.png,"['num_7', 'num_4', 'num_1', 'num_0']",['num_0'],num_0,[4],'num_0',images/min4.png,"[(0.45, 0.79)]",,,,,0,3,3,3,4,3,19,3,,,,,"(0.75, -0.04)",images/min4.png,4,0.0545546443027,0.708572837524,[ 0.6953125   0.06944444],,,,2018_Jun_25_1202,59.7114986563,sequenceLearningTask,001,116,
min1.png,min2.png,min3.png,min4.png,allBlank.png,"['num_7', 'num_4', 'num_1', 'num_0']",['num_0'],num_0,[4],'num_0',images/min4.png,"[(0.45, 0.79)]",,,,,0,3,3,3,4,3,19,3,,,,,"(-0.25, -0.04)",images/min2.png,4,0.0609780262748,0.779518449417,[ 0.7375     -0.06111111],,,,2018_Jun_25_1202,59.7114986563,sequenceLearningTask,001,116,
min1.png,min2.png,min3.png,min4.png,allBlank.png,"['num_7', 'num_4', 'num_1', 'num_0']",['num_0'],num_0,[4],'num_0',images/min4.png,"[(0.45, 0.79)]",,,,,0,3,3,3,4,3,19,3,,,,,"(0.25, -0.04)",images/min3.png,4,0.0548947467178,0.531842653581,[-0.2171875  -0.04722222],,,,2018_Jun_25_1202,59.7114986563,sequenceLearningTask,001,116,
min1.png,min2.png,min3.png,min4.png,allBlank.png,"['num_7', 'num_4', 'num_1', 'num_0']",['num_0'],num_0,[4],'num_0',images/min4.png,"[(0.45, 0.79)]",,,,,0,3,3,3,4,3,19,3,,,,,"(0.75, -0.04)",images/min4.png,4,0.052223158069,0.802695465565,[ 0.1921875  -0.07222222],,,,2018_Jun_25_1202,59.7114986563,sequenceLearningTask,001,116,
min1.png,min2.png,min3.png,min4.png,allBlank.png,"['num_7', 'num_4', 'num_1', 'num_0']",['num_0'],num_0,[4],'num_0',images/min4.png,"[(0.45, 0.79)]",,,,,0,4,4,4,4,3,19,3,,,,,"(-0.75, -0.04)",images/min1.png,5,0.0653566911351,0.810185103503,[ 0.74375    -0.10277778],,,,2018_Jun_25_1202,59.7114986563,sequenceLearningTask,001,116,
min1.png,min2.png,min3.png,min4.png,allBlank.png,"['num_7', 'num_4', 'num_1', 'num_0']",['num_0'],num_0,[4],'num_0',images/min4.png,"[(0.45, 0.79)]",,,,,0,4,4,4,4,3,19,3,,,,,"(0.25, -0.04)",images/min3.png,5,0.0609776159981,0.743270669424,[-0.74375    -0.00277778],,,,2018_Jun_25_1202,59.7114986563,sequenceLearningTask,001,116,
min1.png,min2.png,min3.png,min4.png,allBlank.png,"['num_7', 'num_4', 'num_1', 'num_0']",['num_0'],num_0,[4],'num_0',images/min4.png,"[(0.45, 0.79)]",,,,,0,4,4,4,4,3,19,3,,,,,"(-0.25, -0.04)",images/min2.png,5,0.0554432593053,0.855286623497,[ 0.1640625  -0.18055556],,,,2018_Jun_25_1202,59.7114986563,sequenceLearningTask,001,116,
min1.png,min2.png,min3.png,min4.png,allBlank.png,"['num_7', 'num_4', 'num_1', 'num_0']",['num_0'],num_0,[4],'num_0',images/min4.png,"[(0.45, 0.79)]",,,,,0,4,4,4,4,3,19,3,,,,,"(0.75, -0.04)",images/min4.png,5,0.0588528989465,0.996624001389,[-0.2609375  -0.01111111],0.568010433635,1,,2018_Jun_25_1202,59.7114986563,sequenceLearningTask,001,116,
min1.png,min2.png,min3.png,min4.png,allBlank.png,"['num_7', 'num_4', 'num_1', 'num_0']",['num_0'],num_0,[4],'num_0',images/min4.png,"[(0.45, 0.79)]",,,,,0,4,4,4,4,3,19,3,,,,,"(0.75, -0.04)",images/min4.png,5,0.0578970018832,1.37301933416,[ 0.83125    -0.04444444],0.753810152295,1,,2018_Jun_25_1202,59.7114986563,sequenceLearningTask,001,116,
min1.png,min2.png,min3.png,min4.png,allBlank.png,"['num_7', 'num_4', 'num_1', 'num_0']",['num_0'],num_0,[4],'num_0',images/min4.png,"[(0.45, 0.79)]",,,,,0,4,4,4,4,3,19,3,,,,,"(-0.25, -0.04)",images/min2.png,5,0.0561899256718,0.75201774275,[ 0.7390625  -0.15277778],,,,2018_Jun_25_1202,59.7114986563,sequenceLearningTask,001,116,
min1.png,min2.png,min3.png,min4.png,allBlank.png,"['num_7', 'num_4', 'num_1', 'num_0']",['num_0'],num_0,[4],'num_0',images/min4.png,"[(0.45, 0.79)]",,,,,0,4,4,4,4,3,19,3,,,,,"(0.25, -0.04)",images/min3.png,5,0.0597406934248,0.698572021094,[-0.109375   -0.12222222],,,,2018_Jun_25_1202,59.7114986563,sequenceLearningTask,001,116,
min1.png,min2.png,min3.png,min4.png,allBlank.png,"['num_7', 'num_4', 'num_1', 'num_0']",['num_0'],num_0,[4],'num_0',images/min4.png,"[(0.45, 0.79)]",,,,,0,4,4,4,4,3,19,3,,,,,"(0.75, -0.04)",images/min4.png,5,0.0633755637391,0.708095299226,[ 0.2984375  -0.18611111],,,,2018_Jun_25_1202,59.7114986563,sequenceLearningTask,001,116,
min1.png,min2.png,min3.png,min4.png,allBlank.png,"['num_7', 'num_4', 'num_1', 'num_0']",['num_0'],num_0,[4],'num_0',images/min4.png,"[(0.45, 0.79)]",,,,,0,5,5,5,4,3,19,3,,,,,"(-0.75, -0.04)",images/min1.png,6,0.0592906423262,0.970216627611,[ 0.6984375  -0.25833333],,,,2018_Jun_25_1202,59.7114986563,sequenceLearningTask,001,116,
min1.png,min2.png,min3.png,min4.png,allBlank.png,"['num_7', 'num_4', 'num_1', 'num_0']",['num_0'],num_0,[4],'num_0',images/min4.png,"[(0.45, 0.79)]",,,,,0,5,5,5,4,3,19,3,,,,,"(0.25, -0.04)",images/min3.png,6,0.0543991571758,0.539770034957,[-0.734375   -0.00833333],,,,2018_Jun_25_1202,59.7114986563,sequenceLearningTask,001,116,
min1.png,min2.png,min3.png,min4.png,allBlank.png,"['num_7', 'num_4', 'num_1', 'num_0']",['num_0'],num_0,[4],'num_0',images/min4.png,"[(0.45, 0.79)]",,,,,0,5,5,5,4,3,19,3,,,,,"(-0.25, -0.04)",images/min2.png,6,0.0531585422868,0.856159648742,[ 0.2578125  -0.21944444],,,,2018_Jun_25_1202,59.7114986563,sequenceLearningTask,001,116,
min1.png,min2.png,min3.png,min4.png,allBlank.png,"['num_7', 'num_4', 'num_1', 'num_0']",['num_0'],num_0,[4],'num_0',images/min4.png,"[(0.45, 0.79)]",,,,,0,5,5,5,4,3,19,3,,,,,"(0.75, -0.04)",images/min4.png,6,0.0537398753804,0.833436376008,[-0.178125   -0.18333333],,,,2018_Jun_25_1202,59.7114986563,sequenceLearningTask,001,116,
min1.png,min2.png,min3.png,min4.png,allBlank.png,"['num_7', 'num_4', 'num_1', 'num_0']",['num_0'],num_0,[4],'num_0',images/min4.png,"[(0.45, 0.79)]",,,,,0,5,5,5,4,3,19,3,,,,,"(0.75, -0.04)",images/min4.png,6,0.0614420260827,0.897562298429,[ 0.7328125  -0.11666667],,,,2018_Jun_25_1202,59.7114986563,sequenceLearningTask,001,116,
min1.png,min2.png,min3.png,min4.png,allBlank.png,"['num_7', 'num_4', 'num_1', 'num_0']",['num_0'],num_0,[4],'num_0',images/min4.png,"[(0.45, 0.79)]",,,,,0,5,5,5,4,3,19,3,,,,,"(-0.25, -0.04)",images/min2.png,6,0.0556611053762,0.865577080782,[ 0.8046875  0.05     ],,,,2018_Jun_25_1202,59.7114986563,sequenceLearningTask,001,116,
min1.png,min2.png,min3.png,min4.png,allBlank.png,"['num_7', 'num_4', 'num_1', 'num_0']",['num_0'],num_0,[4],'num_0',images/min4.png,"[(0.45, 0.79)]",,,,,0,5,5,5,4,3,19,3,,,,,"(0.25, -0.04)",images/min3.png,6,0.0606851033226,0.98758400511,[-0.30625    -0.00833333],,,,2018_Jun_25_1202,59.7114986563,sequenceLearningTask,001,116,
min1.png,min2.png,min3.png,min4.png,allBlank.png,"['num_7', 'num_4', 'num_1', 'num_0']",['num_0'],num_0,[4],'num_0',images/min4.png,"[(0.45, 0.79)]",,,,,0,5,5,5,4,3,19,3,,,,,"(0.75, -0.04)",images/min4.png,6,0.0624660256726,0.580156069685,[ 0.2578125  -0.13611111],,,,2018_Jun_25_1202,59.7114986563,sequenceLearningTask,001,116,
min1.png,min2.png,min3.png,min4.png,allBlank.png,"['num_7', 'num_4', 'num_1', 'num_0']",['num_0'],num_0,[4],'num_0',images/min4.png,"[(0.45, 0.79)]",,,,,0,6,6,6,4,3,19,3,,,,,"(-0.75, -0.04)",images/min1.png,7,0.0501222358434,0.65029839988,[ 0.7390625  -0.05833333],,,,2018_Jun_25_1202,59.7114986563,sequenceLearningTask,001,116,
min1.png,min2.png,min3.png,min4.png,allBlank.png,"['num_7', 'num_4', 'num_1', 'num_0']",['num_0'],num_0,[4],'num_0',images/min4.png,"[(0.45, 0.79)]",,,,,0,6,6,6,4,3,19,3,,,,,"(0.25, -0.04)",images/min3.png,7,0.0602498214284,0.932930078794,[-0.6984375  -0.06388889],,,,2018_Jun_25_1202,59.7114986563,sequenceLearningTask,001,116,
min1.png,min2.png,min3.png,min4.png,allBlank.png,"['num_7', 'num_4', 'num_1', 'num_0']",['num_0'],num_0,[4],'num_0',images/min4.png,"[(0.45, 0.79)]",,,,,0,6,6,6,4,3,19,3,,,,,"(-0.25, -0.04)",images/min2.png,7,0.0531306448684,0.76814450539,[ 0.2171875  -0.11388889],,,,2018_Jun_25_1202,59.7114986563,sequenceLearningTask,001,116,
min1.png,min2.png,min3.png,min4.png,allBlank.png,"['num_7', 'num_4', 'num_1', 'num_0']",['num_0'],num_0,[4],'num_0',images/min4.png,"[(0.45, 0.79)]",,,,,0,6,6,6,4,3,19,3,,,,,"(0.75, -0.04)",images/min4.png,7,0.0568114638736,0.71735683392,[-0.2515625  -0.08055556],,,,2018_Jun_25_1202,59.7114986563,sequenceLearningTask,001,116,
min1.png,min2.png,min3.png,min4.png,allBlank.png,"['num_7', 'num_4', 'num_1', 'num_0']",['num_0'],num_0,[4],'num_0',images/min4.png,"[(0.45, 0.79)]",,,,,0,6,6,6,4,3,19,3,,,,,"(0.75, -0.04)",images/min4.png,7,0.0559991565242,0.586348477402,[ 0.7140625  -0.00555556],,,,2018_Jun_25_1202,59.7114986563,sequenceLearningTask,001,116,
min1.png,min2.png,min3.png,min4.png,allBlank.png,"['num_7', 'num_4', 'num_1', 'num_0']",['num_0'],num_0,[4],'num_0',images/min4.png,"[(0.45, 0.79)]",,,,,0,6,6,6,4,3,19,3,,,,,"(-0.25, -0.04)",images/min2.png,7,0.0581714633154,0.602165906806,[ 0.7421875  -0.03611111],,,,2018_Jun_25_1202,59.7114986563,sequenceLearningTask,001,116,
min1.png,min2.png,min3.png,min4.png,allBlank.png,"['num_7', 'num_4', 'num_1', 'num_0']",['num_0'],num_0,[4],'num_0',images/min4.png,"[(0.45, 0.79)]",,,,,0,6,6,6,4,3,19,3,,,,,"(0.25, -0.04)",images/min3.png,7,0.0525878758635,0.45055653312,[-0.1328125  -0.11944444],,,,2018_Jun_25_1202,59.7114986563,sequenceLearningTask,001,116,
min1.png,min2.png,min3.png,min4.png,allBlank.png,"['num_7', 'num_4', 'num_1', 'num_0']",['num_0'],num_0,[4],'num_0',images/min4.png,"[(0.45, 0.79)]",,,,,0,6,6,6,4,3,19,3,,,,,"(0.75, -0.04)",images/min4.png,7,0.059962642059,0.465442270593,[ 0.2453125  -0.15277778],,,,2018_Jun_25_1202,59.7114986563,sequenceLearningTask,001,116,
min1.png,min2.png,min3.png,min4.png,allBlank.png,"['num_7', 'num_4', 'num_1', 'num_0']",['num_0'],num_0,[4],'num_0',images/min4.png,"[(0.45, 0.79)]",,,,,0,7,7,7,4,3,19,3,,,,,"(-0.75, -0.04)",images/min1.png,8,0.0544898237858,0.731760520284,[ 0.6875     -0.01111111],0.731760520284,1,,2018_Jun_25_1202,59.7114986563,sequenceLearningTask,001,116,
min1.png,min2.png,min3.png,min4.png,allBlank.png,"['num_7', 'num_4', 'num_1', 'num_0']",['num_0'],num_0,[4],'num_0',images/min4.png,"[(0.45, 0.79)]",,,,,0,7,7,7,4,3,19,3,,,,,"(0.25, -0.04)",images/min3.png,8,0.0571175150108,1.02404963115,[-0.8484375  -0.19166667],,,,2018_Jun_25_1202,59.7114986563,sequenceLearningTask,001,116,
min1.png,min2.png,min3.png,min4.png,allBlank.png,"['num_7', 'num_4', 'num_1', 'num_0']",['num_0'],num_0,[4],'num_0',images/min4.png,"[(0.45, 0.79)]",,,,,0,7,7,7,4,3,19,3,,,,,"(-0.25, -0.04)",images/min2.png,8,0.0555392592796,0.971489242482,[ 0.2890625  -0.16388889],0.307342643151,1,,2018_Jun_25_1202,59.7114986563,sequenceLearningTask,001,116,
min1.png,min2.png,min3.png,min4.png,allBlank.png,"['num_7', 'num_4', 'num_1', 'num_0']",['num_0'],num_0,[4],'num_0',images/min4.png,"[(0.45, 0.79)]",,,,,0,7,7,7,4,3,19,3,,,,,"(0.75, -0.04)",images/min4.png,8,0.0606719751086,0.647328554944,[-0.2171875  -0.12777778],,,,2018_Jun_25_1202,59.7114986563,sequenceLearningTask,001,116,
min1.png,min2.png,min3.png,min4.png,allBlank.png,"['num_7', 'num_4', 'num_1', 'num_0']",['num_0'],num_0,[4],'num_0',images/min4.png,"[(0.45, 0.79)]",,,,,0,7,7,7,4,3,19,3,,,,,"(0.75, -0.04)",images/min4.png,8,0.0538350548595,0.503310562723,[ 0.7046875  -0.08888889],,,,2018_Jun_25_1202,59.7114986563,sequenceLearningTask,001,116,
min1.png,min2.png,min3.png,min4.png,allBlank.png,"['num_7', 'num_4', 'num_1', 'num_0']",['num_0'],num_0,[4],'num_0',images/min4.png,"[(0.45, 0.79)]",,,,,0,7,7,7,4,3,19,3,,,,,"(-0.25, -0.04)",images/min2.png,8,0.0537242856517,0.822689303517,[ 0.8015625  -0.10833333],,,,2018_Jun_25_1202,59.7114986563,sequenceLearningTask,001,116,
min1.png,min2.png,min3.png,min4.png,allBlank.png,"['num_7', 'num_4', 'num_1', 'num_0']",['num_0'],num_0,[4],'num_0',images/min4.png,"[(0.45, 0.79)]",,,,,0,7,7,7,4,3,19,3,,,,,"(0.25, -0.04)",images/min3.png,8,0.0540492085856,0.515857839666,[-0.196875   -0.16388889],,,,2018_Jun_25_1202,59.7114986563,sequenceLearningTask,001,116,
min1.png,min2.png,min3.png,min4.png,allBlank.png,"['num_7', 'num_4', 'num_1', 'num_0']",['num_0'],num_0,[4],'num_0',images/min4.png,"[(0.45, 0.79)]",,,,,0,7,7,7,4,3,19,3,,,,,"(0.75, -0.04)",images/min4.png,8,0.0624270513072,0.543944802484,[ 0.25625    -0.19722222],,,,2018_Jun_25_1202,59.7114986563,sequenceLearningTask,001,116,
min1.png,min2.png,min3.png,min4.png,allBlank.png,"['num_7', 'num_4', 'num_1', 'num_0']",['num_0'],num_0,[4],'num_0',images/min4.png,"[(0.45, 0.79)]",,,,,0,8,8,8,4,3,19,3,,,,,"(-0.75, -0.04)",images/min1.png,9,0.0612635645957,0.648119939229,[ 0.771875   -0.11944444],,,,2018_Jun_25_1202,59.7114986563,sequenceLearningTask,001,116,
min1.png,min2.png,min3.png,min4.png,allBlank.png,"['num_7', 'num_4', 'num_1', 'num_0']",['num_0'],num_0,[4],'num_0',images/min4.png,"[(0.45, 0.79)]",,,,,0,8,8,8,4,3,19,3,,,,,"(0.25, -0.04)",images/min3.png,9,0.0580775146373,1.67537367163,[-0.7234375  -0.12777778],,,,2018_Jun_25_1202,59.7114986563,sequenceLearningTask,001,116,
min1.png,min2.png,min3.png,min4.png,allBlank.png,"['num_7', 'num_4', 'num_1', 'num_0']",['num_0'],num_0,[4],'num_0',images/min4.png,"[(0.45, 0.79)]",,,,,0,8,8,8,4,3,19,3,,,,,"(-0.25, -0.04)",images/min2.png,9,0.0526260296756,2.4646106812,[ 0.334375   -0.05277778],1.22072237098,1,,2018_Jun_25_1202,59.7114986563,sequenceLearningTask,001,116,
min1.png,min2.png,min3.png,min4.png,allBlank.png,"['num_7', 'num_4', 'num_1', 'num_0']",['num_0'],num_0,[4],'num_0',images/min4.png,"[(0.45, 0.79)]",,,,,0,8,8,8,4,3,19,3,,,,,"(0.75, -0.04)",images/min4.png,9,0.0536020292784,1.59509596101,[-0.146875   -0.22222222],,,,2018_Jun_25_1202,59.7114986563,sequenceLearningTask,001,116,
min1.png,min2.png,min3.png,min4.png,allBlank.png,"['num_7', 'num_4', 'num_1', 'num_0']",['num_0'],num_0,[4],'num_0',images/min4.png,"[(0.45, 0.79)]",,,,,0,8,8,8,4,3,19,3,,,,,"(0.75, -0.04)",images/min4.png,9,0.0544020289672,0.552361209266,[ 0.83125     0.05833333],,,,2018_Jun_25_1202,59.7114986563,sequenceLearningTask,001,116,
min1.png,min2.png,min3.png,min4.png,allBlank.png,"['num_7', 'num_4', 'num_1', 'num_0']",['num_0'],num_0,[4],'num_0',images/min4.png,"[(0.45, 0.79)]",,,,,0,8,8,8,4,3,19,3,,,,,"(-0.25, -0.04)",images/min2.png,9,0.0564262332628,0.739186568564,[ 0.7453125  -0.06944444],,,,2018_Jun_25_1202,59.7114986563,sequenceLearningTask,001,116,
min1.png,min2.png,min3.png,min4.png,allBlank.png,"['num_7', 'num_4', 'num_1', 'num_0']",['num_0'],num_0,[4],'num_0',images/min4.png,"[(0.45, 0.79)]",,,,,0,8,8,8,4,3,19,3,,,,,"(0.25, -0.04)",images/min3.png,9,0.0641160762461,1.24806759052,[-0.1109375  -0.05277778],,,,2018_Jun_25_1202,59.7114986563,sequenceLearningTask,001,116,
min1.png,min2.png,min3.png,min4.png,allBlank.png,"['num_7', 'num_4', 'num_1', 'num_0']",['num_0'],num_0,[4],'num_0',images/min4.png,"[(0.45, 0.79)]",,,,,0,8,8,8,4,3,19,3,,,,,"(0.75, -0.04)",images/min4.png,9,0.0560713615851,0.597829498322,[ 0.2484375  -0.06111111],,,,2018_Jun_25_1202,59.7114986563,sequenceLearningTask,001,116,
min1.png,min2.png,min3.png,min4.png,allBlank.png,"['num_7', 'num_4', 'num_1', 'num_0']",['num_0'],num_0,[4],'num_0',images/min4.png,"[(0.45, 0.79)]",,,,,0,9,9,9,4,3,19,3,,,,,"(-0.75, -0.04)",images/min1.png,10,0.0585977195296,0.849350215663,[ 0.6671875 -0.025    ],,,,2018_Jun_25_1202,59.7114986563,sequenceLearningTask,001,116,
min1.png,min2.png,min3.png,min4.png,allBlank.png,"['num_7', 'num_4', 'num_1', 'num_0']",['num_0'],num_0,[4],'num_0',images/min4.png,"[(0.45, 0.79)]",,,,,0,9,9,9,4,3,19,3,,,,,"(0.25, -0.04)",images/min3.png,10,0.0530157731264,0.472650472773,[-0.696875   -0.29444444],,,,2018_Jun_25_1202,59.7114986563,sequenceLearningTask,001,116,
min1.png,min2.png,min3.png,min4.png,allBlank.png,"['num_7', 'num_4', 'num_1', 'num_0']",['num_0'],num_0,[4],'num_0',images/min4.png,"[(0.45, 0.79)]",,,,,0,9,9,9,4,3,19,3,,,,,"(-0.25, -0.04)",images/min2.png,10,0.0523782349192,0.705767505307,[ 0.1453125  -0.19722222],,,,2018_Jun_25_1202,59.7114986563,sequenceLearningTask,001,116,
min1.png,min2.png,min3.png,min4.png,allBlank.png,"['num_7', 'num_4', 'num_1', 'num_0']",['num_0'],num_0,[4],'num_0',images/min4.png,"[(0.45, 0.79)]",,,,,0,9,9,9,4,3,19,3,,,,,"(0.75, -0.04)",images/min4.png,10,0.0533329011814,1.00742850977,[-0.0765625  -0.26388889],,,,2018_Jun_25_1202,59.7114986563,sequenceLearningTask,001,116,
min1.png,min2.png,min3.png,min4.png,allBlank.png,"['num_7', 'num_4', 'num_1', 'num_0']",['num_0'],num_0,[4],'num_0',images/min4.png,"[(0.45, 0.79)]",,,,,0,9,9,9,4,3,19,3,,,,,"(0.75, -0.04)",images/min4.png,10,0.0540163880796,0.957295197004,[ 0.6703125  -0.03055556],,,,2018_Jun_25_1202,59.7114986563,sequenceLearningTask,001,116,
min1.png,min2.png,min3.png,min4.png,allBlank.png,"['num_7', 'num_4', 'num_1', 'num_0']",['num_0'],num_0,[4],'num_0',images/min4.png,"[(0.45, 0.79)]",,,,,0,9,9,9,4,3,19,3,,,,,"(-0.25, -0.04)",images/min2.png,10,0.0564327973407,0.872051334532,[ 0.659375    0.00277778],,,,2018_Jun_25_1202,59.7114986563,sequenceLearningTask,001,116,
min1.png,min2.png,min3.png,min4.png,allBlank.png,"['num_7', 'num_4', 'num_1', 'num_0']",['num_0'],num_0,[4],'num_0',images/min4.png,"[(0.45, 0.79)]",,,,,0,9,9,9,4,3,19,3,,,,,"(0.25, -0.04)",images/min3.png,10,0.0613731030026,0.597437703604,[-0.296875   -0.19166667],,,,2018_Jun_25_1202,59.7114986563,sequenceLearningTask,001,116,
min1.png,min2.png,min3.png,min4.png,allBlank.png,"['num_7', 'num_4', 'num_1', 'num_0']",['num_0'],num_0,[4],'num_0',images/min4.png,"[(0.45, 0.79)]",,,,,0,9,9,9,4,3,19,3,,,,,"(0.75, -0.04)",images/min4.png,10,0.0570383355662,0.688423102169,[ 0.2015625  -0.11388889],,,,2018_Jun_25_1202,59.7114986563,sequenceLearningTask,001,116,
min1.png,min2.png,min3.png,min4.png,allBlank.png,"['num_7', 'num_4', 'num_1', 'num_0']",['num_0'],num_0,[4],'num_0',images/min4.png,"[(0.45, 0.79)]",,,,,0,9,9,9,4,3,19,3,0,-1,-1,0,,,,,,,,,,2018_Jun_25_1202,59.7114986563,sequenceLearningTask,001,116,
