pawPatrol1,pawPatrol2,pawPatrol3,pawPatrol4,blank,allowableKey,correctKey,correctKeyPressNum,posLoc,correctKeyPress,randomPaw,im_size,trials.thisRepN,trials.thisTrialN,trials.thisN,trials.thisIndex,trials_3.thisRepN,trials_3.thisTrialN,trials_3.thisN,trials_3.thisIndex,trials_2.thisRepN,trials_2.thisTrialN,trials_2.thisN,trials_2.thisIndex,trials_questions.thisRepN,trials_questions.thisTrialN,trials_questions.thisN,trials_questions.thisIndex,correctLocation,correctImage,repetitionNumber,stimulusPresent.t,responseTimeCorrect,pressLoc,responseTimeIncorrect,trialIncorrect,date,frameRate,expName,session,participant,
min1.png,min2.png,min3.png,min4.png,allBlank.png,,,,,,,,,,,,0,0,0,0,,,,,,,,,"(-0.75, -0.04)",images/min1.png,1,0.0256471689645,0.858453391404,[ 0.27232796 -0.23177083],,,2018_Jul_01_1647,60.0878823445,sequenceLearningTask,001,124,
min1.png,min2.png,min3.png,min4.png,allBlank.png,,,,,,,,,,,,0,0,0,0,,,,,,,,,"(0.25, -0.04)",images/min3.png,1,0.0999326769524,0.637234200109,[-0.73792094 -0.03645833],,,2018_Jul_01_1647,60.0878823445,sequenceLearningTask,001,124,
min1.png,min2.png,min3.png,min4.png,allBlank.png,,,,,,,,,,,,0,0,0,0,,,,,,,,,"(-0.25, -0.04)",images/min2.png,1,0.0305078849196,0.747327283148,[ 0.17569546 -0.0703125 ],,,2018_Jul_01_1647,60.0878823445,sequenceLearningTask,001,124,
min1.png,min2.png,min3.png,min4.png,allBlank.png,,,,,,,,,,,,0,0,0,0,,,,,,,,,"(0.75, -0.04)",images/min4.png,1,0.0611733082369,0.63096917704,[-0.25329429 -0.14322917],,,2018_Jul_01_1647,60.0878823445,sequenceLearningTask,001,124,
min1.png,min2.png,min3.png,min4.png,allBlank.png,,,,,,,,,,,,0,0,0,0,,,,,,,,,"(0.75, -0.04)",images/min4.png,1,0.0755326869621,0.882999432615,[ 0.7057101 -0.09375  ],,,2018_Jul_01_1647,60.0878823445,sequenceLearningTask,001,124,
min1.png,min2.png,min3.png,min4.png,allBlank.png,,,,,,,,,,,,0,0,0,0,,,,,,,,,"(-0.25, -0.04)",images/min2.png,1,0.0544738238059,0.837287041111,[ 0.71156662 -0.36458333],,,2018_Jul_01_1647,60.0878823445,sequenceLearningTask,001,124,
min1.png,min2.png,min3.png,min4.png,allBlank.png,,,,,,,,,,,,0,0,0,0,,,,,,,,,"(0.25, -0.04)",images/min3.png,1,0.0523827477409,0.726535496804,[-0.19326501 -0.13020833],,,2018_Jul_01_1647,60.0878823445,sequenceLearningTask,001,124,
min1.png,min2.png,min3.png,min4.png,allBlank.png,,,,,,,,,,,,0,0,0,0,,,,,,,,,"(0.75, -0.04)",images/min4.png,1,0.0622325898512,0.628985177849,[ 0.18887262 -0.08854167],,,2018_Jul_01_1647,60.0878823445,sequenceLearningTask,001,124,
min1.png,min2.png,min3.png,min4.png,allBlank.png,,,,,,,,,,,,0,1,1,1,,,,,,,,,"(-0.75, -0.04)",images/min1.png,2,0.0252902460343,0.64892896454,[ 0.761347   -0.08072917],,,2018_Jul_01_1647,60.0878823445,sequenceLearningTask,001,124,
min1.png,min2.png,min3.png,min4.png,allBlank.png,,,,,,,,,,,,0,1,1,1,,,,,,,,,"(0.25, -0.04)",images/min3.png,2,0.0517698249168,0.605709700223,[-0.80527086 -0.17447917],,,2018_Jul_01_1647,60.0878823445,sequenceLearningTask,001,124,
min1.png,min2.png,min3.png,min4.png,allBlank.png,,,,,,,,,,,,0,1,1,1,,,,,,,,,"(-0.25, -0.04)",images/min2.png,2,0.0594383345888,0.630870305282,[ 0.26647145 -0.1640625 ],,,2018_Jul_01_1647,60.0878823445,sequenceLearningTask,001,124,
min1.png,min2.png,min3.png,min4.png,allBlank.png,,,,,,,,,,,,0,1,1,1,,,,,,,,,"(0.75, -0.04)",images/min4.png,2,0.0522198760118,0.606060879563,[-0.25768668 -0.1328125 ],,,2018_Jul_01_1647,60.0878823445,sequenceLearningTask,001,124,
min1.png,min2.png,min3.png,min4.png,allBlank.png,,,,,,,,,,,,0,1,1,1,,,,,,,,,"(0.75, -0.04)",images/min4.png,2,0.046828698738,0.62829881916,[ 0.76427526 -0.24739583],,,2018_Jul_01_1647,60.0878823445,sequenceLearningTask,001,124,
min1.png,min2.png,min3.png,min4.png,allBlank.png,,,,,,,,,,,,0,1,1,1,,,,,,,,,"(-0.25, -0.04)",images/min2.png,2,0.0511523892674,0.623623128769,[ 0.73206442 -0.31510417],,,2018_Jul_01_1647,60.0878823445,sequenceLearningTask,001,124,
min1.png,min2.png,min3.png,min4.png,allBlank.png,,,,,,,,,,,,0,1,1,1,,,,,,,,,"(0.25, -0.04)",images/min3.png,2,0.0510686969974,0.569863971337,[-0.22986823 -0.25260417],,,2018_Jul_01_1647,60.0878823445,sequenceLearningTask,001,124,
min1.png,min2.png,min3.png,min4.png,allBlank.png,,,,,,,,,,,,0,1,1,1,,,,,,,,,"(0.75, -0.04)",images/min4.png,2,0.0424426492536,0.612108466827,[ 0.30161054 -0.140625  ],,,2018_Jul_01_1647,60.0878823445,sequenceLearningTask,001,124,
min1.png,min2.png,min3.png,min4.png,allBlank.png,,,,,,,,,,,,0,2,2,2,,,,,,,,,"(-0.75, -0.04)",images/min1.png,3,0.0615872567869,0.606526110143,[ 0.77452416 -0.05208333],,,2018_Jul_01_1647,60.0878823445,sequenceLearningTask,001,124,
min1.png,min2.png,min3.png,min4.png,allBlank.png,,,,,,,,,,,,0,2,2,2,,,,,,,,,"(0.25, -0.04)",images/min3.png,3,0.0552922850111,0.618062515667,[-0.72327965 -0.22135417],,,2018_Jul_01_1647,60.0878823445,sequenceLearningTask,001,124,
min1.png,min2.png,min3.png,min4.png,allBlank.png,,,,,,,,,,,,0,2,2,2,,,,,,,,,"(-0.25, -0.04)",images/min2.png,3,0.0508204919679,0.702808737307,[ 0.25768668 -0.1171875 ],,,2018_Jul_01_1647,60.0878823445,sequenceLearningTask,001,124,
min1.png,min2.png,min3.png,min4.png,allBlank.png,,,,,,,,,,,,0,2,2,2,,,,,,,,,"(0.75, -0.04)",images/min4.png,3,0.05812797615,0.616725080316,[-0.25329429 -0.203125  ],,,2018_Jul_01_1647,60.0878823445,sequenceLearningTask,001,124,
min1.png,min2.png,min3.png,min4.png,allBlank.png,,,,,,,,,,,,0,2,2,2,,,,,,,,,"(0.75, -0.04)",images/min4.png,3,0.0608184365847,0.710992528824,[ 0.71449488 -0.09114583],,,2018_Jul_01_1647,60.0878823445,sequenceLearningTask,001,124,
min1.png,min2.png,min3.png,min4.png,allBlank.png,,,,,,,,,,,,0,2,2,2,,,,,,,,,"(-0.25, -0.04)",images/min2.png,3,0.0577115660672,0.695583714634,[ 0.71742313 -0.15885417],,,2018_Jul_01_1647,60.0878823445,sequenceLearningTask,001,124,
min1.png,min2.png,min3.png,min4.png,allBlank.png,,,,,,,,,,,,0,2,2,2,,,,,,,,,"(0.25, -0.04)",images/min3.png,3,0.057017412506,0.521357734826,[-0.3250366  -0.24739583],,,2018_Jul_01_1647,60.0878823445,sequenceLearningTask,001,124,
min1.png,min2.png,min3.png,min4.png,allBlank.png,,,,,,,,,,,,0,2,2,2,,,,,,,,,"(0.75, -0.04)",images/min4.png,3,0.0513743378979,0.70659909473,[ 0.18740849  0.12760417],,,2018_Jul_01_1647,60.0878823445,sequenceLearningTask,001,124,
min1.png,min2.png,min3.png,min4.png,allBlank.png,,,,,,,,,,,,0,3,3,3,,,,,,,,,"(-0.75, -0.04)",images/min1.png,4,0.0582055145824,0.526252502052,[ 0.7510981   0.00260417],,,2018_Jul_01_1647,60.0878823445,sequenceLearningTask,001,124,
min1.png,min2.png,min3.png,min4.png,allBlank.png,,,,,,,,,,,,0,3,3,3,,,,,,,,,"(0.25, -0.04)",images/min3.png,4,0.0611626415739,0.496651283425,[-0.81844802 -0.0703125 ],,,2018_Jul_01_1647,60.0878823445,sequenceLearningTask,001,124,
min1.png,min2.png,min3.png,min4.png,allBlank.png,,,,,,,,,,,,0,3,3,3,,,,,,,,,"(-0.25, -0.04)",images/min2.png,4,0.0567047972509,0.586506015792,[ 0.21669107 -0.04166667],,,2018_Jul_01_1647,60.0878823445,sequenceLearningTask,001,124,
min1.png,min2.png,min3.png,min4.png,allBlank.png,,,,,,,,,,,,0,3,3,3,,,,,,,,,"(0.75, -0.04)",images/min4.png,4,0.0572996687988,0.652751732207,[-0.31918009 -0.04166667],,,2018_Jul_01_1647,60.0878823445,sequenceLearningTask,001,124,
min1.png,min2.png,min3.png,min4.png,allBlank.png,,,,,,,,,,,,0,3,3,3,,,,,,,,,"(0.75, -0.04)",images/min4.png,4,0.0587909502392,0.681651412655,[ 0.70278184 -0.00520833],,,2018_Jul_01_1647,60.0878823445,sequenceLearningTask,001,124,
min1.png,min2.png,min3.png,min4.png,allBlank.png,,,,,,,,,,,,0,3,3,3,,,,,,,,,"(-0.25, -0.04)",images/min2.png,4,0.0562674640933,0.685947616024,[ 0.71742313 -0.046875  ],,,2018_Jul_01_1647,60.0878823445,sequenceLearningTask,001,124,
min1.png,min2.png,min3.png,min4.png,allBlank.png,,,,,,,,,,,,0,3,3,3,,,,,,,,,"(0.25, -0.04)",images/min3.png,4,0.0567626433804,0.769168915213,[-0.29575403 -0.2578125 ],,,2018_Jul_01_1647,60.0878823445,sequenceLearningTask,001,124,
min1.png,min2.png,min3.png,min4.png,allBlank.png,,,,,,,,,,,,0,3,3,3,,,,,,,,,"(0.75, -0.04)",images/min4.png,4,0.0523638759551,0.506728817752,[ 0.11713031 -0.2890625 ],,,2018_Jul_01_1647,60.0878823445,sequenceLearningTask,001,124,
min1.png,min2.png,min3.png,min4.png,allBlank.png,,,,,,,,,,,,0,4,4,4,,,,,,,,,"(-0.75, -0.04)",images/min1.png,5,0.0632988458274,0.662091625811,[ 0.68228404  0.00260417],,,2018_Jul_01_1647,60.0878823445,sequenceLearningTask,001,124,
min1.png,min2.png,min3.png,min4.png,allBlank.png,,,,,,,,,,,,0,4,4,4,,,,,,,,,"(0.25, -0.04)",images/min3.png,5,0.0540315675789,0.503629331844,[-0.64128843  0.02864583],,,2018_Jul_01_1647,60.0878823445,sequenceLearningTask,001,124,
min1.png,min2.png,min3.png,min4.png,allBlank.png,,,,,,,,,,,,0,4,4,4,,,,,,,,,"(-0.25, -0.04)",images/min2.png,5,0.0516418249681,0.574885917995,[ 0.15373353 -0.0546875 ],,,2018_Jul_01_1647,60.0878823445,sequenceLearningTask,001,124,
min1.png,min2.png,min3.png,min4.png,allBlank.png,,,,,,,,,,,,0,4,4,4,,,,,,,,,"(0.75, -0.04)",images/min4.png,5,0.0587614117903,0.548650031324,[-0.20204978 -0.20052083],,,2018_Jul_01_1647,60.0878823445,sequenceLearningTask,001,124,
min1.png,min2.png,min3.png,min4.png,allBlank.png,,,,,,,,,,,,0,4,4,4,,,,,,,,,"(0.75, -0.04)",images/min4.png,5,0.061970846371,0.480076520995,[ 0.58711567 -0.07552083],,,2018_Jul_01_1647,60.0878823445,sequenceLearningTask,001,124,
min1.png,min2.png,min3.png,min4.png,allBlank.png,,,,,,,,,,,,0,4,4,4,,,,,,,,,"(-0.25, -0.04)",images/min2.png,5,0.0564044896819,0.521343375858,[ 0.66764275 -0.07552083],,,2018_Jul_01_1647,60.0878823445,sequenceLearningTask,001,124,
min1.png,min2.png,min3.png,min4.png,allBlank.png,,,,,,,,,,,,0,4,4,4,,,,,,,,,"(0.25, -0.04)",images/min3.png,5,0.0593661294915,0.60065329204,[-0.30307467 -0.06510417],,,2018_Jul_01_1647,60.0878823445,sequenceLearningTask,001,124,
min1.png,min2.png,min3.png,min4.png,allBlank.png,,,,,,,,,,,,0,4,4,4,,,,,,,,,"(0.75, -0.04)",images/min4.png,5,0.0517283890367,0.521686760334,[ 0.27525622 -0.09635417],,,2018_Jul_01_1647,60.0878823445,sequenceLearningTask,001,124,
min1.png,min2.png,min3.png,min4.png,allBlank.png,,,,,,,,,,,,0,5,5,5,,,,,,,,,"(-0.75, -0.04)",images/min1.png,6,0.0535556703362,0.632085074016,[ 0.72620791 -0.12239583],,,2018_Jul_01_1647,60.0878823445,sequenceLearningTask,001,124,
min1.png,min2.png,min3.png,min4.png,allBlank.png,,,,,,,,,,,,0,5,5,5,,,,,,,,,"(0.25, -0.04)",images/min3.png,6,0.060101308678,0.514329635149,[-0.74816984 -0.3125    ],,,2018_Jul_01_1647,60.0878823445,sequenceLearningTask,001,124,
min1.png,min2.png,min3.png,min4.png,allBlank.png,,,,,,,,,,,,0,5,5,5,,,,,,,,,"(-0.25, -0.04)",images/min2.png,6,0.0628951536855,0.699694892432,[ 0.21083455 -0.1484375 ],,,2018_Jul_01_1647,60.0878823445,sequenceLearningTask,001,124,
min1.png,min2.png,min3.png,min4.png,allBlank.png,,,,,,,,,,,,0,5,5,5,,,,,,,,,"(0.75, -0.04)",images/min4.png,6,0.050799568904,0.772943272637,[-0.26061493 -0.19270833],,,2018_Jul_01_1647,60.0878823445,sequenceLearningTask,001,124,
min1.png,min2.png,min3.png,min4.png,allBlank.png,,,,,,,,,,,,0,5,5,5,,,,,,,,,"(0.75, -0.04)",images/min4.png,6,0.0519187479294,0.924833261604,[ 0.71449488 -0.0546875 ],,,2018_Jul_01_1647,60.0878823445,sequenceLearningTask,001,124,
min1.png,min2.png,min3.png,min4.png,allBlank.png,,,,,,,,,,,,0,5,5,5,,,,,,,,,"(-0.25, -0.04)",images/min2.png,6,0.07176981671,0.567148075017,[ 0.761347   -0.15885417],,,2018_Jul_01_1647,60.0878823445,sequenceLearningTask,001,124,
min1.png,min2.png,min3.png,min4.png,allBlank.png,,,,,,,,,,,,0,5,5,5,,,,,,,,,"(0.25, -0.04)",images/min3.png,6,0.0512750558846,0.876571537818,[-0.22986823 -0.23177083],,,2018_Jul_01_1647,60.0878823445,sequenceLearningTask,001,124,
min1.png,min2.png,min3.png,min4.png,allBlank.png,,,,,,,,,,,,0,5,5,5,,,,,,,,,"(0.75, -0.04)",images/min4.png,6,0.061654128549,0.561674436234,[ 0.28696925 -0.109375  ],,,2018_Jul_01_1647,60.0878823445,sequenceLearningTask,001,124,
min1.png,min2.png,min3.png,min4.png,allBlank.png,,,,,,,,,,,,0,6,6,6,,,,,,,,,"(-0.75, -0.04)",images/min1.png,7,0.0539847983637,0.735206672736,[ 0.68228404  0.0703125 ],,,2018_Jul_01_1647,60.0878823445,sequenceLearningTask,001,124,
min1.png,min2.png,min3.png,min4.png,allBlank.png,,,,,,,,,,,,0,6,6,6,,,,,,,,,"(0.25, -0.04)",images/min3.png,7,0.0578793608729,0.685879103228,[-0.72181552 -0.32552083],,,2018_Jul_01_1647,60.0878823445,sequenceLearningTask,001,124,
min1.png,min2.png,min3.png,min4.png,allBlank.png,,,,,,,,,,,,0,6,6,6,,,,,,,,,"(-0.25, -0.04)",images/min2.png,7,0.0523683887732,0.722948626481,[ 0.23572474 -0.18229167],,,2018_Jul_01_1647,60.0878823445,sequenceLearningTask,001,124,
min1.png,min2.png,min3.png,min4.png,allBlank.png,,,,,,,,,,,,0,6,6,6,,,,,,,,,"(0.75, -0.04)",images/min4.png,7,0.0589074630152,0.483788519472,[-0.30161054 -0.27864583],,,2018_Jul_01_1647,60.0878823445,sequenceLearningTask,001,124,
min1.png,min2.png,min3.png,min4.png,allBlank.png,,,,,,,,,,,,0,6,6,6,,,,,,,,,"(0.75, -0.04)",images/min4.png,7,0.0522535170239,0.426127825176,[ 0.69985359 -0.02083333],,,2018_Jul_01_1647,60.0878823445,sequenceLearningTask,001,124,
min1.png,min2.png,min3.png,min4.png,allBlank.png,,,,,,,,,,,,0,6,6,6,,,,,,,,,"(-0.25, -0.04)",images/min2.png,7,0.053517516506,0.60024180503,[ 0.72913616 -0.06510417],,,2018_Jul_01_1647,60.0878823445,sequenceLearningTask,001,124,
min1.png,min2.png,min3.png,min4.png,allBlank.png,,,,,,,,,,,,0,6,6,6,,,,,,,,,"(0.25, -0.04)",images/min3.png,7,0.0580865402735,0.720187601975,[-0.19912152 -0.1484375 ],,,2018_Jul_01_1647,60.0878823445,sequenceLearningTask,001,124,
min1.png,min2.png,min3.png,min4.png,allBlank.png,,,,,,,,,,,,0,6,6,6,,,,,,,,,"(0.75, -0.04)",images/min4.png,7,0.0663462291923,0.743484412931,[ 0.23426061  0.109375  ],,,2018_Jul_01_1647,60.0878823445,sequenceLearningTask,001,124,
min1.png,min2.png,min3.png,min4.png,allBlank.png,,,,,,,,,,,,0,7,7,7,,,,,,,,,"(-0.75, -0.04)",images/min1.png,8,0.0502133127338,0.920087417398,[ 0.63836018  0.15104167],,,2018_Jul_01_1647,60.0878823445,sequenceLearningTask,001,124,
min1.png,min2.png,min3.png,min4.png,allBlank.png,,,,,,,,,,,,0,7,7,7,,,,,,,,,"(0.25, -0.04)",images/min3.png,8,0.0580204890175,0.533908293783,[-0.62225476 -0.01302083],,,2018_Jul_01_1647,60.0878823445,sequenceLearningTask,001,124,
min1.png,min2.png,min3.png,min4.png,allBlank.png,,,,,,,,,,,,0,7,7,7,,,,,,,,,"(-0.25, -0.04)",images/min2.png,8,0.0543302341212,0.617064772487,[ 0.20058565 -0.06510417],,,2018_Jul_01_1647,60.0878823445,sequenceLearningTask,001,124,
min1.png,min2.png,min3.png,min4.png,allBlank.png,,,,,,,,,,,,0,7,7,7,,,,,,,,,"(0.75, -0.04)",images/min4.png,8,0.052458234888,0.619228463907,[-0.19619327 -0.18489583],,,2018_Jul_01_1647,60.0878823445,sequenceLearningTask,001,124,
min1.png,min2.png,min3.png,min4.png,allBlank.png,,,,,,,,,,,,0,7,7,7,,,,,,,,,"(0.75, -0.04)",images/min4.png,8,0.0550096184561,0.664722599089,[ 0.73792094  0.05208333],,,2018_Jul_01_1647,60.0878823445,sequenceLearningTask,001,124,
min1.png,min2.png,min3.png,min4.png,allBlank.png,,,,,,,,,,,,0,7,7,7,,,,,,,,,"(-0.25, -0.04)",images/min2.png,8,0.0582666427654,0.578750121538,[ 0.72620791 -0.11458333],,,2018_Jul_01_1647,60.0878823445,sequenceLearningTask,001,124,
min1.png,min2.png,min3.png,min4.png,allBlank.png,,,,,,,,,,,,0,7,7,7,,,,,,,,,"(0.25, -0.04)",images/min3.png,8,0.0565899255016,0.536181933876,[-0.12884334 -0.17708333],,,2018_Jul_01_1647,60.0878823445,sequenceLearningTask,001,124,
min1.png,min2.png,min3.png,min4.png,allBlank.png,,,,,,,,,,,,0,7,7,7,,,,,,,,,"(0.75, -0.04)",images/min4.png,8,0.0546449006579,0.599943138484,[ 0.32942899 -0.1875    ],,,2018_Jul_01_1647,60.0878823445,sequenceLearningTask,001,124,
min1.png,min2.png,min3.png,min4.png,allBlank.png,,,,,,,,,,,,0,8,8,8,,,,,,,,,"(-0.75, -0.04)",images/min1.png,9,0.0624779230857,0.727403188757,[ 0.71156662 -0.01822917],,,2018_Jul_01_1647,60.0878823445,sequenceLearningTask,001,124,
min1.png,min2.png,min3.png,min4.png,allBlank.png,,,,,,,,,,,,0,8,8,8,,,,,,,,,"(0.25, -0.04)",images/min3.png,9,0.0542502341523,0.55329002942,[-0.68228404 -0.20052083],,,2018_Jul_01_1647,60.0878823445,sequenceLearningTask,001,124,
min1.png,min2.png,min3.png,min4.png,allBlank.png,,,,,,,,,,,,0,8,8,8,,,,,,,,,"(-0.25, -0.04)",images/min2.png,9,0.0546797724382,0.586127349281,[ 0.24011713 -0.09635417],,,2018_Jul_01_1647,60.0878823445,sequenceLearningTask,001,124,
min1.png,min2.png,min3.png,min4.png,allBlank.png,,,,,,,,,,,,0,8,8,8,,,,,,,,,"(0.75, -0.04)",images/min4.png,9,0.0532816191662,0.539702342689,[-0.29282577 -0.18229167],,,2018_Jul_01_1647,60.0878823445,sequenceLearningTask,001,124,
min1.png,min2.png,min3.png,min4.png,allBlank.png,,,,,,,,,,,,0,8,8,8,,,,,,,,,"(0.75, -0.04)",images/min4.png,9,0.0671326904085,0.387909994704,[ 0.72913616 -0.00520833],,,2018_Jul_01_1647,60.0878823445,sequenceLearningTask,001,124,
min1.png,min2.png,min3.png,min4.png,allBlank.png,,,,,,,,,,,,0,8,8,8,,,,,,,,,"(-0.25, -0.04)",images/min2.png,9,0.0598416164758,0.5644621274,[ 0.74084919  0.01041667],,,2018_Jul_01_1647,60.0878823445,sequenceLearningTask,001,124,
min1.png,min2.png,min3.png,min4.png,allBlank.png,,,,,,,,,,,,0,8,8,8,,,,,,,,,"(0.25, -0.04)",images/min3.png,9,0.0641804864899,0.474563907872,[-0.19472914 -0.23958333],,,2018_Jul_01_1647,60.0878823445,sequenceLearningTask,001,124,
min1.png,min2.png,min3.png,min4.png,allBlank.png,,,,,,,,,,,,0,8,8,8,,,,,,,,,"(0.75, -0.04)",images/min4.png,9,0.0543331059162,0.686028436503,[ 0.2079063   0.12760417],,,2018_Jul_01_1647,60.0878823445,sequenceLearningTask,001,124,
min1.png,min2.png,min3.png,min4.png,allBlank.png,,,,,,,,,,,,0,9,9,9,,,,,,,,,"(-0.75, -0.04)",images/min1.png,10,0.0510227482991,0.935958590377,[ 0.61200586  0.13802083],,,2018_Jul_01_1647,60.0878823445,sequenceLearningTask,001,124,
min1.png,min2.png,min3.png,min4.png,allBlank.png,,,,,,,,,,,,0,9,9,9,,,,,,,,,"(0.25, -0.04)",images/min3.png,10,0.0520615171044,0.654381269997,[-0.61054173 -0.1953125 ],,,2018_Jul_01_1647,60.0878823445,sequenceLearningTask,001,124,
min1.png,min2.png,min3.png,min4.png,allBlank.png,,,,,,,,,,,,0,9,9,9,,,,,,,,,"(-0.25, -0.04)",images/min2.png,10,0.0574227456709,0.767772813222,[ 0.35431918  0.02083333],,,2018_Jul_01_1647,60.0878823445,sequenceLearningTask,001,124,
min1.png,min2.png,min3.png,min4.png,allBlank.png,,,,,,,,,,,,0,9,9,9,,,,,,,,,"(0.75, -0.04)",images/min4.png,10,0.0548976185019,0.857465904632,[-0.05124451 -0.078125  ],,,2018_Jul_01_1647,60.0878823445,sequenceLearningTask,001,124,
min1.png,min2.png,min3.png,min4.png,allBlank.png,,,,,,,,,,,,0,9,9,9,,,,,,,,,"(0.75, -0.04)",images/min4.png,10,0.056598540883,1.00682297156,[ 0.64714495  0.09375   ],,,2018_Jul_01_1647,60.0878823445,sequenceLearningTask,001,124,
min1.png,min2.png,min3.png,min4.png,allBlank.png,,,,,,,,,,,,0,9,9,9,,,,,,,,,"(-0.25, -0.04)",images/min2.png,10,0.058644899018,0.50211138375,[ 0.69692533  0.0078125 ],,,2018_Jul_01_1647,60.0878823445,sequenceLearningTask,001,124,
min1.png,min2.png,min3.png,min4.png,allBlank.png,,,,,,,,,,,,0,9,9,9,,,,,,,,,"(0.25, -0.04)",images/min3.png,10,0.0571560791141,0.702392737479,[-0.19619327  0.0234375 ],,,2018_Jul_01_1647,60.0878823445,sequenceLearningTask,001,124,
min1.png,min2.png,min3.png,min4.png,allBlank.png,,,,,,,,,,,,0,9,9,9,,,,,,,,,"(0.75, -0.04)",images/min4.png,10,0.0605091033831,1.26803640286,[ 0.20058565 -0.00520833],,,2018_Jul_01_1647,60.0878823445,sequenceLearningTask,001,124,
min1.png,min2.png,min3.png,min4.png,allBlank.png,,,,,,,,,,,,0,0,0,0,,,,,,,,,"(-0.75, -0.04)",images/min1.png,1,0.0391007019061,0.649176349056,[ 0.71742313  0.00520833],,,2018_Jul_01_1647,60.0878823445,sequenceLearningTask,001,124,
min1.png,min2.png,min3.png,min4.png,allBlank.png,,,,,,,,,,,,0,0,0,0,,,,,,,,,"(0.25, -0.04)",images/min3.png,1,0.0580824377066,0.430372746512,[-0.69985359 -0.2890625 ],,,2018_Jul_01_1647,60.0878823445,sequenceLearningTask,001,124,
min1.png,min2.png,min3.png,min4.png,allBlank.png,,,,,,,,,,,,0,0,0,0,,,,,,,,,"(-0.25, -0.04)",images/min2.png,1,0.0423396749356,0.527566552792,[ 0.25622255 -0.08072917],,,2018_Jul_01_1647,60.0878823445,sequenceLearningTask,001,124,
min1.png,min2.png,min3.png,min4.png,allBlank.png,,,,,,,,,,,,0,0,0,0,,,,,,,,,"(0.75, -0.04)",images/min4.png,1,0.0555043874847,0.464209860835,[-0.2181552 -0.2578125],,,2018_Jul_01_1647,60.0878823445,sequenceLearningTask,001,124,
min1.png,min2.png,min3.png,min4.png,allBlank.png,,,,,,,,,,,,0,0,0,0,,,,,,,,,"(0.75, -0.04)",images/min4.png,1,0.0542818238828,0.398809682541,[ 0.73206442 -0.21354167],,,2018_Jul_01_1647,60.0878823445,sequenceLearningTask,001,124,
min1.png,min2.png,min3.png,min4.png,allBlank.png,,,,,,,,,,,,0,0,0,0,,,,,,,,,"(-0.25, -0.04)",images/min2.png,1,0.0581193607723,0.531218653858,[ 0.70424597 -0.3046875 ],,,2018_Jul_01_1647,60.0878823445,sequenceLearningTask,001,124,
min1.png,min2.png,min3.png,min4.png,allBlank.png,,,,,,,,,,,,0,0,0,0,,,,,,,,,"(0.25, -0.04)",images/min3.png,1,0.0526637732655,0.567755254255,[-0.24304539 -0.12239583],,,2018_Jul_01_1647,60.0878823445,sequenceLearningTask,001,124,
min1.png,min2.png,min3.png,min4.png,allBlank.png,,,,,,,,,,,,0,0,0,0,,,,,,,,,"(0.75, -0.04)",images/min4.png,1,0.0607934109539,0.475855804776,[ 0.30161054 -0.24479167],,,2018_Jul_01_1647,60.0878823445,sequenceLearningTask,001,124,
min1.png,min2.png,min3.png,min4.png,allBlank.png,,,,,,,,,,,,0,1,1,1,,,,,,,,,"(-0.75, -0.04)",images/min1.png,2,0.0533809011758,0.502082255556,[ 0.74670571 -0.07552083],,,2018_Jul_01_1647,60.0878823445,sequenceLearningTask,001,124,
min1.png,min2.png,min3.png,min4.png,allBlank.png,,,,,,,,,,,,0,1,1,1,,,,,,,,,"(0.25, -0.04)",images/min3.png,2,0.0529874654385,0.633656355421,[-0.6193265  -0.37760417],,,2018_Jul_01_1647,60.0878823445,sequenceLearningTask,001,124,
min1.png,min2.png,min3.png,min4.png,allBlank.png,,,,,,,,,,,,0,1,1,1,,,,,,,,,"(-0.25, -0.04)",images/min2.png,2,0.0573985405535,0.713479912418,[ 0.34407028 -0.37239583],,,2018_Jul_01_1647,60.0878823445,sequenceLearningTask,001,124,
min1.png,min2.png,min3.png,min4.png,allBlank.png,,,,,,,,,,,,0,1,1,1,,,,,,,,,"(0.75, -0.04)",images/min4.png,2,0.0572717713767,0.45093027654,[-0.21376281 -0.3125    ],,,2018_Jul_01_1647,60.0878823445,sequenceLearningTask,001,124,
min1.png,min2.png,min3.png,min4.png,allBlank.png,,,,,,,,,,,,0,1,1,1,,,,,,,,,"(0.75, -0.04)",images/min4.png,2,0.0541690034188,0.398461374989,[ 0.73352855 -0.16927083],,,2018_Jul_01_1647,60.0878823445,sequenceLearningTask,001,124,
min1.png,min2.png,min3.png,min4.png,allBlank.png,,,,,,,,,,,,0,1,1,1,,,,,,,,,"(-0.25, -0.04)",images/min2.png,2,0.0533583370852,0.41557439361,[ 0.67642753 -0.1796875 ],,,2018_Jul_01_1647,60.0878823445,sequenceLearningTask,001,124,
min1.png,min2.png,min3.png,min4.png,allBlank.png,,,,,,,,,,,,0,1,1,1,,,,,,,,,"(0.25, -0.04)",images/min3.png,2,0.0686662282424,0.368428566799,[-0.2489019 -0.2734375],,,2018_Jul_01_1647,60.0878823445,sequenceLearningTask,001,124,
min1.png,min2.png,min3.png,min4.png,allBlank.png,,,,,,,,,,,,0,1,1,1,,,,,,,,,"(0.75, -0.04)",images/min4.png,2,0.0529095167549,0.651397476351,[ 0.28111274 -0.23697917],,,2018_Jul_01_1647,60.0878823445,sequenceLearningTask,001,124,
min1.png,min2.png,min3.png,min4.png,allBlank.png,,,,,,,,,,,,0,2,2,2,,,,,,,,,"(-0.75, -0.04)",images/min1.png,3,0.0550522851081,0.902251527285,[ 0.715959  -0.0703125],,,2018_Jul_01_1647,60.0878823445,sequenceLearningTask,001,124,
min1.png,min2.png,min3.png,min4.png,allBlank.png,,,,,,,,,,,,0,2,2,2,,,,,,,,,"(0.25, -0.04)",images/min3.png,3,0.0483806980992,0.520974555497,[-0.77598829 -0.1796875 ],,,2018_Jul_01_1647,60.0878823445,sequenceLearningTask,001,124,
min1.png,min2.png,min3.png,min4.png,allBlank.png,,,,,,,,,,,,0,2,2,2,,,,,,,,,"(-0.25, -0.04)",images/min2.png,3,0.0529173116265,0.669880750818,[ 0.4114202  -0.17708333],,,2018_Jul_01_1647,60.0878823445,sequenceLearningTask,001,124,
min1.png,min2.png,min3.png,min4.png,allBlank.png,,,,,,,,,,,,0,2,2,2,,,,,,,,,"(0.75, -0.04)",images/min4.png,3,0.0539031573753,0.454889659533,[-0.33674963 -0.1171875 ],,,2018_Jul_01_1647,60.0878823445,sequenceLearningTask,001,124,
min1.png,min2.png,min3.png,min4.png,allBlank.png,,,,,,,,,,,,0,2,2,2,,,,,,,,,"(0.75, -0.04)",images/min4.png,3,0.0614584363248,0.427741362975,[ 0.74084919 -0.09375   ],,,2018_Jul_01_1647,60.0878823445,sequenceLearningTask,001,124,
min1.png,min2.png,min3.png,min4.png,allBlank.png,,,,,,,,,,,,0,2,2,2,,,,,,,,,"(-0.25, -0.04)",images/min2.png,3,0.0495889027297,0.57207443197,[ 0.78916545 -0.25520833],,,2018_Jul_01_1647,60.0878823445,sequenceLearningTask,001,124,
min1.png,min2.png,min3.png,min4.png,allBlank.png,,,,,,,,,,,,0,2,2,2,,,,,,,,,"(0.25, -0.04)",images/min3.png,3,0.0512344405215,0.434267719276,[-0.26647145 -0.19010417],,,2018_Jul_01_1647,60.0878823445,sequenceLearningTask,001,124,
min1.png,min2.png,min3.png,min4.png,allBlank.png,,,,,,,,,,,,0,2,2,2,,,,,,,,,"(0.75, -0.04)",images/min4.png,3,0.0522682862502,0.654378398202,[ 0.35871157 -0.24739583],,,2018_Jul_01_1647,60.0878823445,sequenceLearningTask,001,124,
min1.png,min2.png,min3.png,min4.png,allBlank.png,,,,,,,,,,,,0,3,3,3,,,,,,,,,"(-0.75, -0.04)",images/min1.png,4,0.0606252058969,1.08068345408,[ 0.73499268 -0.2421875 ],,,2018_Jul_01_1647,60.0878823445,sequenceLearningTask,001,124,
min1.png,min2.png,min3.png,min4.png,allBlank.png,,,,,,,,,,,,0,3,3,3,,,,,,,,,"(0.25, -0.04)",images/min3.png,4,0.0511281841536,0.552313619562,[-0.7057101 -0.1171875],,,2018_Jul_01_1647,60.0878823445,sequenceLearningTask,001,124,
min1.png,min2.png,min3.png,min4.png,allBlank.png,,,,,,,,,,,,0,3,3,3,,,,,,,,,"(-0.25, -0.04)",images/min2.png,4,0.0523655169782,0.641644044455,[ 0.24450952 -0.25260417],,,2018_Jul_01_1647,60.0878823445,sequenceLearningTask,001,124,
min1.png,min2.png,min3.png,min4.png,allBlank.png,,,,,,,,,,,,0,3,3,3,,,,,,,,,"(0.75, -0.04)",images/min4.png,4,0.05318315767,0.587514425635,[-0.26354319 -0.23958333],,,2018_Jul_01_1647,60.0878823445,sequenceLearningTask,001,124,
min1.png,min2.png,min3.png,min4.png,allBlank.png,,,,,,,,,,,,0,3,3,3,,,,,,,,,"(0.75, -0.04)",images/min4.png,4,0.0598691036466,0.783061012076,[ 0.69985359 -0.0078125 ],,,2018_Jul_01_1647,60.0878823445,sequenceLearningTask,001,124,
min1.png,min2.png,min3.png,min4.png,allBlank.png,,,,,,,,,,,,0,3,3,3,,,,,,,,,"(-0.25, -0.04)",images/min2.png,4,0.0636861277198,1.38271245837,[ 0.69838946  0.06510417],,,2018_Jul_01_1647,60.0878823445,sequenceLearningTask,001,124,
min1.png,min2.png,min3.png,min4.png,allBlank.png,,,,,,,,,,,,0,3,3,3,,,,,,,,,"(0.25, -0.04)",images/min3.png,4,0.052990747492,0.622327539557,[-0.16105417 -0.22916667],,,2018_Jul_01_1647,60.0878823445,sequenceLearningTask,001,124,
min1.png,min2.png,min3.png,min4.png,allBlank.png,,,,,,,,,,,,0,3,3,3,,,,,,,,,"(0.75, -0.04)",images/min4.png,4,0.0559560796064,0.61737451595,[ 0.20497804 -0.25      ],,,2018_Jul_01_1647,60.0878823445,sequenceLearningTask,001,124,
min1.png,min2.png,min3.png,min4.png,allBlank.png,,,,,,,,,,,,0,4,4,4,,,,,,,,,"(-0.75, -0.04)",images/min1.png,5,0.051239773853,0.757545945624,[ 0.69253294 -0.29947917],,,2018_Jul_01_1647,60.0878823445,sequenceLearningTask,001,124,
min1.png,min2.png,min3.png,min4.png,allBlank.png,,,,,,,,,,,,0,4,4,4,,,,,,,,,"(0.25, -0.04)",images/min3.png,5,0.0595765909457,0.631893484351,[-0.66471449 -0.15885417],,,2018_Jul_01_1647,60.0878823445,sequenceLearningTask,001,124,
min1.png,min2.png,min3.png,min4.png,allBlank.png,,,,,,,,,,,,0,4,4,4,,,,,,,,,"(-0.25, -0.04)",images/min2.png,5,0.0529300295675,0.450455610069,[ 0.1727672   0.07291667],,,2018_Jul_01_1647,60.0878823445,sequenceLearningTask,001,124,
min1.png,min2.png,min3.png,min4.png,allBlank.png,,,,,,,,,,,,0,4,4,4,,,,,,,,,"(0.75, -0.04)",images/min4.png,5,0.0550522851081,0.719859396981,[-0.18008785 -0.08854167],,,2018_Jul_01_1647,60.0878823445,sequenceLearningTask,001,124,
min1.png,min2.png,min3.png,min4.png,allBlank.png,,,,,,,,,,,,0,4,4,4,,,,,,,,,"(0.75, -0.04)",images/min4.png,5,0.0520455171099,0.875288256295,[ 0.64568082 -0.03645833],,,2018_Jul_01_1647,60.0878823445,sequenceLearningTask,001,124,
min1.png,min2.png,min3.png,min4.png,allBlank.png,,,,,,,,,,,,0,4,4,4,,,,,,,,,"(-0.25, -0.04)",images/min2.png,5,0.0572771047046,0.550968799602,[ 0.58272328  0.21354167],,,2018_Jul_01_1647,60.0878823445,sequenceLearningTask,001,124,
min1.png,min2.png,min3.png,min4.png,allBlank.png,,,,,,,,,,,,0,4,4,4,,,,,,,,,"(0.25, -0.04)",images/min3.png,5,0.0614395645389,0.613509081639,[-0.14934114 -0.0546875 ],,,2018_Jul_01_1647,60.0878823445,sequenceLearningTask,001,124,
min1.png,min2.png,min3.png,min4.png,allBlank.png,,,,,,,,,,,,0,4,4,4,,,,,,,,,"(0.75, -0.04)",images/min4.png,5,0.0590859244767,0.699693661663,[ 0.25475842  0.0546875 ],,,2018_Jul_01_1647,60.0878823445,sequenceLearningTask,001,124,
min1.png,min2.png,min3.png,min4.png,allBlank.png,,,,,,,,,,,,0,5,5,5,,,,,,,,,"(-0.75, -0.04)",images/min1.png,6,0.0538272599661,0.701662071111,[ 0.67203514  0.21614583],,,2018_Jul_01_1647,60.0878823445,sequenceLearningTask,001,124,
min1.png,min2.png,min3.png,min4.png,allBlank.png,,,,,,,,,,,,0,5,5,5,,,,,,,,,"(0.25, -0.04)",images/min3.png,6,0.0586223349237,0.500435487003,[-0.61786237 -0.1484375 ],,,2018_Jul_01_1647,60.0878823445,sequenceLearningTask,001,124,
min1.png,min2.png,min3.png,min4.png,allBlank.png,,,,,,,,,,,,0,5,5,5,,,,,,,,,"(-0.25, -0.04)",images/min2.png,6,0.0511745431068,0.523160400753,[ 0.15080527 -0.08333333],,,2018_Jul_01_1647,60.0878823445,sequenceLearningTask,001,124,
min1.png,min2.png,min3.png,min4.png,allBlank.png,,,,,,,,,,,,0,5,5,5,,,,,,,,,"(0.75, -0.04)",images/min4.png,6,0.0495515694165,0.69247930565,[-0.10248902 -0.02864583],,,2018_Jul_01_1647,60.0878823445,sequenceLearningTask,001,124,
min1.png,min2.png,min3.png,min4.png,allBlank.png,,,,,,,,,,,,0,5,5,5,,,,,,,,,"(0.75, -0.04)",images/min4.png,6,0.0966592423974,0.978951393248,[ 0.6295754  0.25     ],,,2018_Jul_01_1647,60.0878823445,sequenceLearningTask,001,124,
min1.png,min2.png,min3.png,min4.png,allBlank.png,,,,,,,,,,,,0,5,5,5,,,,,,,,,"(-0.25, -0.04)",images/min2.png,6,0.0537755676814,0.583268273531,[ 0.6295754  0.1640625],,,2018_Jul_01_1647,60.0878823445,sequenceLearningTask,001,124,
min1.png,min2.png,min3.png,min4.png,allBlank.png,,,,,,,,,,,,0,5,5,5,,,,,,,,,"(0.25, -0.04)",images/min3.png,6,0.0554773105723,0.502771896299,[-0.1522694 -0.1171875],,,2018_Jul_01_1647,60.0878823445,sequenceLearningTask,001,124,
min1.png,min2.png,min3.png,min4.png,allBlank.png,,,,,,,,,,,,0,5,5,5,,,,,,,,,"(0.75, -0.04)",images/min4.png,6,0.0534658242213,0.705931607823,[ 0.24597365 -0.01041667],,,2018_Jul_01_1647,60.0878823445,sequenceLearningTask,001,124,
min1.png,min2.png,min3.png,min4.png,allBlank.png,,,,,,,,,,,,0,6,6,6,,,,,,,,,"(-0.75, -0.04)",images/min1.png,7,0.0533759781028,0.954155505988,[ 0.65592972  0.30989583],,,2018_Jul_01_1647,60.0878823445,sequenceLearningTask,001,124,
min1.png,min2.png,min3.png,min4.png,allBlank.png,,,,,,,,,,,,0,6,6,6,,,,,,,,,"(0.25, -0.04)",images/min3.png,7,0.0557566950738,0.604766931378,[-0.58272328 -0.1328125 ],,,2018_Jul_01_1647,60.0878823445,sequenceLearningTask,001,124,
min1.png,min2.png,min3.png,min4.png,allBlank.png,,,,,,,,,,,,0,6,6,6,,,,,,,,,"(-0.25, -0.04)",images/min2.png,7,0.0587860271662,0.63413225266,[ 0.25036603 -0.05989583],,,2018_Jul_01_1647,60.0878823445,sequenceLearningTask,001,124,
min1.png,min2.png,min3.png,min4.png,allBlank.png,,,,,,,,,,,,0,6,6,6,,,,,,,,,"(0.75, -0.04)",images/min4.png,7,0.0510986457011,0.740541234649,[-0.15812592 -0.1328125 ],,,2018_Jul_01_1647,60.0878823445,sequenceLearningTask,001,124,
min1.png,min2.png,min3.png,min4.png,allBlank.png,,,,,,,,,,,,0,6,6,6,,,,,,,,,"(0.75, -0.04)",images/min4.png,7,0.0520085940479,0.572128996049,[ 0.67349927  0.1484375 ],,,2018_Jul_01_1647,60.0878823445,sequenceLearningTask,001,124,
min1.png,min2.png,min3.png,min4.png,allBlank.png,,,,,,,,,,,,0,6,6,6,,,,,,,,,"(-0.25, -0.04)",images/min2.png,7,0.0511343379985,0.656576140893,[ 0.59150805  0.06510417],,,2018_Jul_01_1647,60.0878823445,sequenceLearningTask,001,124,
min1.png,min2.png,min3.png,min4.png,allBlank.png,,,,,,,,,,,,0,6,6,6,,,,,,,,,"(0.25, -0.04)",images/min3.png,7,0.0625575127997,0.513367994517,[-0.14494876 -0.14322917],,,2018_Jul_01_1647,60.0878823445,sequenceLearningTask,001,124,
min1.png,min2.png,min3.png,min4.png,allBlank.png,,,,,,,,,,,,0,6,6,6,,,,,,,,,"(0.75, -0.04)",images/min4.png,7,0.0606243853872,0.830408274705,[ 0.24158126 -0.0625    ],,,2018_Jul_01_1647,60.0878823445,sequenceLearningTask,001,124,
min1.png,min2.png,min3.png,min4.png,allBlank.png,,,,,,,,,,,,0,7,7,7,,,,,,,,,"(-0.75, -0.04)",images/min1.png,8,0.054799977519,1.03883403535,[ 0.59297218  0.18229167],,,2018_Jul_01_1647,60.0878823445,sequenceLearningTask,001,124,
min1.png,min2.png,min3.png,min4.png,allBlank.png,,,,,,,,,,,,0,7,7,7,,,,,,,,,"(0.25, -0.04)",images/min3.png,8,0.055924079621,0.734318878225,[-0.61493411 -0.07552083],,,2018_Jul_01_1647,60.0878823445,sequenceLearningTask,001,124,
min1.png,min2.png,min3.png,min4.png,allBlank.png,,,,,,,,,,,,0,7,7,7,,,,,,,,,"(-0.25, -0.04)",images/min2.png,8,0.0538157727933,0.838915348137,[ 0.32064422 -0.23177083],,,2018_Jul_01_1647,60.0878823445,sequenceLearningTask,001,124,
min1.png,min2.png,min3.png,min4.png,allBlank.png,,,,,,,,,,,,0,7,7,7,,,,,,,,,"(0.75, -0.04)",images/min4.png,8,0.0527052091456,0.587965707502,[-0.1727672  -0.31510417],,,2018_Jul_01_1647,60.0878823445,sequenceLearningTask,001,124,
min1.png,min2.png,min3.png,min4.png,allBlank.png,,,,,,,,,,,,0,7,7,7,,,,,,,,,"(0.75, -0.04)",images/min4.png,8,0.0529854141605,0.587232169342,[ 0.79062958 -0.06770833],,,2018_Jul_01_1647,60.0878823445,sequenceLearningTask,001,124,
min1.png,min2.png,min3.png,min4.png,allBlank.png,,,,,,,,,,,,0,7,7,7,,,,,,,,,"(-0.25, -0.04)",images/min2.png,8,0.0546867467929,0.63156938192,[ 0.62079063 -0.1328125 ],,,2018_Jul_01_1647,60.0878823445,sequenceLearningTask,001,124,
min1.png,min2.png,min3.png,min4.png,allBlank.png,,,,,,,,,,,,0,7,7,7,,,,,,,,,"(0.25, -0.04)",images/min3.png,8,0.0453004942356,0.458545863163,[-0.26207906 -0.2734375 ],,,2018_Jul_01_1647,60.0878823445,sequenceLearningTask,001,124,
min1.png,min2.png,min3.png,min4.png,allBlank.png,,,,,,,,,,,,0,7,7,7,,,,,,,,,"(0.75, -0.04)",images/min4.png,8,0.053080183352,0.825833507348,[ 0.25622255 -0.4375    ],,,2018_Jul_01_1647,60.0878823445,sequenceLearningTask,001,124,
min1.png,min2.png,min3.png,min4.png,allBlank.png,,,,,,,,,,,,0,8,8,8,,,,,,,,,"(-0.75, -0.04)",images/min1.png,9,0.0516676711122,0.824372584873,[ 0.75695461 -0.15364583],,,2018_Jul_01_1647,60.0878823445,sequenceLearningTask,001,124,
min1.png,min2.png,min3.png,min4.png,allBlank.png,,,,,,,,,,,,0,8,8,8,,,,,,,,,"(0.25, -0.04)",images/min3.png,9,0.0575749507407,0.956715504937,[-0.72620791 -0.1484375 ],,,2018_Jul_01_1647,60.0878823445,sequenceLearningTask,001,124,
min1.png,min2.png,min3.png,min4.png,allBlank.png,,,,,,,,,,,,0,8,8,8,,,,,,,,,"(-0.25, -0.04)",images/min2.png,9,0.0585472580315,0.820462022373,[ 0.27086384  0.01822917],,,2018_Jul_01_1647,60.0878823445,sequenceLearningTask,001,124,
min1.png,min2.png,min3.png,min4.png,allBlank.png,,,,,,,,,,,,0,8,8,8,,,,,,,,,"(0.75, -0.04)",images/min4.png,9,0.0646974093543,1.02803321927,[-0.33235725 -0.06510417],,,2018_Jul_01_1647,60.0878823445,sequenceLearningTask,001,124,
min1.png,min2.png,min3.png,min4.png,allBlank.png,,,,,,,,,,,,0,8,8,8,,,,,,,,,"(0.75, -0.04)",images/min4.png,9,0.0588270527915,1.15616034619,[ 0.7057101 -0.0703125],,,2018_Jul_01_1647,60.0878823445,sequenceLearningTask,001,124,
min1.png,min2.png,min3.png,min4.png,allBlank.png,,,,,,,,,,,,0,8,8,8,,,,,,,,,"(-0.25, -0.04)",images/min2.png,9,0.0616537182941,0.897609477906,[ 0.65885798 -0.03385417],,,2018_Jul_01_1647,60.0878823445,sequenceLearningTask,001,124,
min1.png,min2.png,min3.png,min4.png,allBlank.png,,,,,,,,,,,,0,8,8,8,,,,,,,,,"(0.25, -0.04)",images/min3.png,9,0.061730846468,0.563825819969,[-0.18008785 -0.29947917],,,2018_Jul_01_1647,60.0878823445,sequenceLearningTask,001,124,
min1.png,min2.png,min3.png,min4.png,allBlank.png,,,,,,,,,,,,0,8,8,8,,,,,,,,,"(0.75, -0.04)",images/min4.png,9,0.0544746443193,0.633282611987,[ 0.17423133 -0.18229167],,,2018_Jul_01_1647,60.0878823445,sequenceLearningTask,001,124,
min1.png,min2.png,min3.png,min4.png,allBlank.png,,,,,,,,,,,,0,9,9,9,,,,,,,,,"(-0.75, -0.04)",images/min1.png,10,0.0595363858301,0.96609478314,[ 0.66325037 -0.17708333],,,2018_Jul_01_1647,60.0878823445,sequenceLearningTask,001,124,
min1.png,min2.png,min3.png,min4.png,allBlank.png,,,,,,,,,,,,0,9,9,9,,,,,,,,,"(0.25, -0.04)",images/min3.png,10,0.0557952591626,0.720776729941,[-0.67349927 -0.24739583],,,2018_Jul_01_1647,60.0878823445,sequenceLearningTask,001,124,
min1.png,min2.png,min3.png,min4.png,allBlank.png,,,,,,,,,,,,0,9,9,9,,,,,,,,,"(-0.25, -0.04)",images/min2.png,10,0.0562625410203,1.45937950385,[ 0.25183016 -0.2734375 ],,,2018_Jul_01_1647,60.0878823445,sequenceLearningTask,001,124,
min1.png,min2.png,min3.png,min4.png,allBlank.png,,,,,,,,,,,,0,9,9,9,,,,,,,,,"(0.75, -0.04)",images/min4.png,10,0.0572332072916,0.534816190844,[-0.13469985 -0.29947917],,,2018_Jul_01_1647,60.0878823445,sequenceLearningTask,001,124,
min1.png,min2.png,min3.png,min4.png,allBlank.png,,,,,,,,,,,,0,9,9,9,,,,,,,,,"(0.75, -0.04)",images/min4.png,10,0.0546555673209,0.439972742573,[ 0.69106881 -0.15364583],,,2018_Jul_01_1647,60.0878823445,sequenceLearningTask,001,124,
min1.png,min2.png,min3.png,min4.png,allBlank.png,,,,,,,,,,,,0,9,9,9,,,,,,,,,"(-0.25, -0.04)",images/min2.png,10,0.0596323857935,0.734096109089,[ 0.715959  -0.0390625],,,2018_Jul_01_1647,60.0878823445,sequenceLearningTask,001,124,
min1.png,min2.png,min3.png,min4.png,allBlank.png,,,,,,,,,,,,0,9,9,9,,,,,,,,,"(0.25, -0.04)",images/min3.png,10,0.0601845906931,0.91737275185,[-0.12591508 -0.31510417],,,2018_Jul_01_1647,60.0878823445,sequenceLearningTask,001,124,
min1.png,min2.png,min3.png,min4.png,allBlank.png,,,,,,,,,,,,0,9,9,9,,,,,,,,,"(0.75, -0.04)",images/min4.png,10,0.0604364880273,0.54679772439,[ 0.28696925 -0.29947917],,,2018_Jul_01_1647,60.0878823445,sequenceLearningTask,001,124,
min1.png,min2.png,min3.png,min4.png,images/allBlank.png,"['num_7', 'num_4', 'num_1', 'num_0']",['num_0'],num_0,[4],'num_0',images/min4.png,"[(0.45, 0.79)]",,,,,0,-1,-1,0,0,0,0,3,,,,,"(0.75, 0.04)",images/min4.png,1,0.0247700411201,0.698517046763,[ 0.68814056 -0.18489583],,,2018_Jul_01_1647,60.0878823445,sequenceLearningTask,001,124,
min1.png,min2.png,min3.png,min4.png,images/allBlank.png,"['num_7', 'num_4', 'num_1', 'num_0']",['num_0'],num_0,[4],'num_0',images/min4.png,"[(0.45, 0.79)]",,,,,0,-1,-1,0,0,0,0,3,,,,,"(0.25, 0.04)",images/min3.png,1,0.0633497176023,0.537623984565,[ 0.71742313 -0.01041667],,,2018_Jul_01_1647,60.0878823445,sequenceLearningTask,001,124,
min1.png,min2.png,min3.png,min4.png,images/allBlank.png,"['num_7', 'num_4', 'num_1', 'num_0']",['num_0'],num_0,[4],'num_0',images/min4.png,"[(0.45, 0.79)]",,,,,0,-1,-1,0,0,0,0,3,,,,,"(0.75, 0.04)",images/min4.png,1,0.0621714616755,0.508917534804,[ 0.30161054 -0.36197917],,,2018_Jul_01_1647,60.0878823445,sequenceLearningTask,001,124,
min1.png,min2.png,min3.png,min4.png,images/allBlank.png,"['num_7', 'num_4', 'num_1', 'num_0']",['num_0'],num_0,[4],'num_0',images/min4.png,"[(0.45, 0.79)]",,,,,0,-1,-1,0,0,0,0,3,,,,,"(0.25, 0.04)",images/min3.png,1,0.0547367980544,0.431313874335,[ 0.75988287 -0.3125    ],,,2018_Jul_01_1647,60.0878823445,sequenceLearningTask,001,124,
min1.png,min2.png,min3.png,min4.png,images/allBlank.png,"['num_7', 'num_4', 'num_1', 'num_0']",['num_7'],num_7,[1],'num_7',images/min1.png,"[(0.45, 0.79)]",,,,,0,-1,-1,0,0,1,1,0,,,,,"(-0.25, 0.04)",images/min2.png,2,0.0606465392229,0.505404510604,[ 0.28257687 -0.26822917],,,2018_Jul_01_1647,60.0878823445,sequenceLearningTask,001,124,
min1.png,min2.png,min3.png,min4.png,images/allBlank.png,"['num_7', 'num_4', 'num_1', 'num_0']",['num_7'],num_7,[1],'num_7',images/min1.png,"[(0.45, 0.79)]",,,,,0,-1,-1,0,0,1,1,0,,,,,"(0.75, 0.04)",images/min4.png,2,0.0606617187004,0.390950403715,[-0.16105417 -0.19010417],,,2018_Jul_01_1647,60.0878823445,sequenceLearningTask,001,124,
min1.png,min2.png,min3.png,min4.png,images/allBlank.png,"['num_7', 'num_4', 'num_1', 'num_0']",['num_7'],num_7,[1],'num_7',images/min1.png,"[(0.45, 0.79)]",,,,,0,-1,-1,0,0,1,1,0,,,,,"(0.25, 0.04)",images/min3.png,2,0.0631306407668,0.458820324588,[ 0.73060029 -0.13802083],,,2018_Jul_01_1647,60.0878823445,sequenceLearningTask,001,124,
min1.png,min2.png,min3.png,min4.png,images/allBlank.png,"['num_7', 'num_4', 'num_1', 'num_0']",['num_7'],num_7,[1],'num_7',images/min1.png,"[(0.45, 0.79)]",,,,,0,-1,-1,0,0,1,1,0,,,,,"(0.25, 0.04)",images/min3.png,2,0.0607367955963,0.442141767326,[ 0.21083455 -0.29947917],,,2018_Jul_01_1647,60.0878823445,sequenceLearningTask,001,124,
min1.png,min2.png,min3.png,min4.png,images/allBlank.png,"['num_7', 'num_4', 'num_1', 'num_0']",['num_1'],num_1,[3],'num_1',images/min3.png,"[(0.45, 0.79)]",,,,,0,-1,-1,0,0,2,2,2,,,,,"(0.25, 0.04)",images/min3.png,3,0.0597706421468,0.42278464706,[ 0.29136164 -0.26041667],,,2018_Jul_01_1647,60.0878823445,sequenceLearningTask,001,124,
min1.png,min2.png,min3.png,min4.png,images/allBlank.png,"['num_7', 'num_4', 'num_1', 'num_0']",['num_1'],num_1,[3],'num_1',images/min3.png,"[(0.45, 0.79)]",,,,,0,-1,-1,0,0,2,2,2,,,,,"(-0.75, 0.04)",images/min1.png,3,0.0610678723824,0.624896153888,[ 0.24450952 -0.28385417],,,2018_Jul_01_1647,60.0878823445,sequenceLearningTask,001,124,
min1.png,min2.png,min3.png,min4.png,images/allBlank.png,"['num_7', 'num_4', 'num_1', 'num_0']",['num_1'],num_1,[3],'num_1',images/min3.png,"[(0.45, 0.79)]",,,,,0,-1,-1,0,0,2,2,2,,,,,"(0.25, 0.04)",images/min3.png,3,0.0574580277098,0.510759175075,[-0.67057101 -0.17447917],,,2018_Jul_01_1647,60.0878823445,sequenceLearningTask,001,124,
min1.png,min2.png,min3.png,min4.png,images/allBlank.png,"['num_7', 'num_4', 'num_1', 'num_0']",['num_1'],num_1,[3],'num_1',images/min3.png,"[(0.45, 0.79)]",,,,,0,-1,-1,0,0,2,2,2,,,,,"(0.75, 0.04)",images/min4.png,3,0.0862543235889,0.683022899273,[ 0.31039531 -0.18489583],,,2018_Jul_01_1647,60.0878823445,sequenceLearningTask,001,124,
min1.png,min2.png,min3.png,min4.png,images/allBlank.png,"['num_7', 'num_4', 'num_1', 'num_0']",['num_4'],num_4,[2],'num_4',images/min2.png,"[(0.45, 0.79)]",,,,,0,-1,-1,0,0,3,3,1,,,,,"(0.75, 0.04)",images/min4.png,4,0.061241000516,0.604606931443,[ 0.67642753 -0.23697917],,,2018_Jul_01_1647,60.0878823445,sequenceLearningTask,001,124,
min1.png,min2.png,min3.png,min4.png,images/allBlank.png,"['num_7', 'num_4', 'num_1', 'num_0']",['num_4'],num_4,[2],'num_4',images/min2.png,"[(0.45, 0.79)]",,,,,0,-1,-1,0,0,3,3,1,,,,,"(-0.25, 0.04)",images/min2.png,4,0.0652771014247,1.12235892416,[ 0.71742313 -0.05989583],0.637440148741,1,2018_Jul_01_1647,60.0878823445,sequenceLearningTask,001,124,
min1.png,min2.png,min3.png,min4.png,images/allBlank.png,"['num_7', 'num_4', 'num_1', 'num_0']",['num_4'],num_4,[2],'num_4',images/min2.png,"[(0.45, 0.79)]",,,,,0,-1,-1,0,0,3,3,1,,,,,"(-0.75, 0.04)",images/min1.png,4,0.0530375167036,0.993120002822,[-0.19912152 -0.26302083],,,2018_Jul_01_1647,60.0878823445,sequenceLearningTask,001,124,
min1.png,min2.png,min3.png,min4.png,images/allBlank.png,"['num_7', 'num_4', 'num_1', 'num_0']",['num_4'],num_4,[2],'num_4',images/min2.png,"[(0.45, 0.79)]",,,,,0,-1,-1,0,0,3,3,1,,,,,"(0.25, 0.04)",images/min3.png,4,0.0391819326433,2.94619612464,[-0.78770132 -0.16666667],2.66393900967,1,2018_Jul_01_1647,60.0878823445,sequenceLearningTask,001,124,
min1.png,min2.png,min3.png,min4.png,images/allBlank.png,"['num_7', 'num_4', 'num_1', 'num_0']",['num_7'],num_7,[1],'num_7',images/min1.png,"[(0.45, 0.79)]",,,,,0,-1,-1,0,1,0,4,0,,,,,"(0.75, 0.04)",images/min4.png,5,0.05854766829,0.248869231233,[ 0.31918009 -0.3125    ],,,2018_Jul_01_1647,60.0878823445,sequenceLearningTask,001,124,
min1.png,min2.png,min3.png,min4.png,images/allBlank.png,"['num_7', 'num_4', 'num_1', 'num_0']",['num_7'],num_7,[1],'num_7',images/min1.png,"[(0.45, 0.79)]",,,,,0,-1,-1,0,1,0,4,0,,,,,"(0.75, 0.04)",images/min4.png,5,0.0615942311379,0.630535125933,[ 0.66032211 -0.23697917],,,2018_Jul_01_1647,60.0878823445,sequenceLearningTask,001,124,
min1.png,min2.png,min3.png,min4.png,images/allBlank.png,"['num_7', 'num_4', 'num_1', 'num_0']",['num_7'],num_7,[1],'num_7',images/min1.png,"[(0.45, 0.79)]",,,,,0,-1,-1,0,1,0,4,0,,,,,"(0.25, 0.04)",images/min3.png,5,0.0554822336489,1.14022312196,[ 0.69106881 -0.25260417],,,2018_Jul_01_1647,60.0878823445,sequenceLearningTask,001,124,
min1.png,min2.png,min3.png,min4.png,images/allBlank.png,"['num_7', 'num_4', 'num_1', 'num_0']",['num_7'],num_7,[1],'num_7',images/min1.png,"[(0.45, 0.79)]",,,,,0,-1,-1,0,1,0,4,0,,,,,"(0.75, 0.04)",images/min4.png,5,0.0629882818503,1.80082387658,[ 0.19619327 -0.13020833],,,2018_Jul_01_1647,60.0878823445,sequenceLearningTask,001,124,
min1.png,min2.png,min3.png,min4.png,images/allBlank.png,"['num_7', 'num_4', 'num_1', 'num_0']",['num_4'],num_4,[2],'num_4',images/min2.png,"[(0.45, 0.79)]",,,,,0,-1,-1,0,1,1,5,1,,,,,"(0.75, 0.04)",images/min4.png,6,0.0475925958599,0.947442483099,[ 0.74816984  0.11458333],,,2018_Jul_01_1647,60.0878823445,sequenceLearningTask,001,124,
min1.png,min2.png,min3.png,min4.png,images/allBlank.png,"['num_7', 'num_4', 'num_1', 'num_0']",['num_4'],num_4,[2],'num_4',images/min2.png,"[(0.45, 0.79)]",,,,,0,-1,-1,0,1,1,5,1,,,,,"(0.75, 0.04)",images/min4.png,6,0.0575507456233,0.600654933067,[ 0.71742313 -0.26822917],,,2018_Jul_01_1647,60.0878823445,sequenceLearningTask,001,124,
min1.png,min2.png,min3.png,min4.png,images/allBlank.png,"['num_7', 'num_4', 'num_1', 'num_0']",['num_4'],num_4,[2],'num_4',images/min2.png,"[(0.45, 0.79)]",,,,,0,-1,-1,0,1,1,5,1,,,,,"(-0.25, 0.04)",images/min2.png,6,0.0660426395698,1.06369023028,[ 0.71449488 -0.20572917],,,2018_Jul_01_1647,60.0878823445,sequenceLearningTask,001,124,
min1.png,min2.png,min3.png,min4.png,images/allBlank.png,"['num_7', 'num_4', 'num_1', 'num_0']",['num_4'],num_4,[2],'num_4',images/min2.png,"[(0.45, 0.79)]",,,,,0,-1,-1,0,1,1,5,1,,,,,"(0.25, 0.04)",images/min3.png,6,0.0575618225412,0.854694623718,[-0.13762811 -0.33333333],,,2018_Jul_01_1647,60.0878823445,sequenceLearningTask,001,124,
min1.png,min2.png,min3.png,min4.png,images/allBlank.png,"['num_7', 'num_4', 'num_1', 'num_0']",['num_0'],num_0,[4],'num_0',images/min4.png,"[(0.45, 0.79)]",,,,,0,-1,-1,0,1,2,6,3,,,,,"(0.25, 0.04)",images/min3.png,7,0.0560332077803,1.26712604425,[ 0.37481698 -0.26302083],,,2018_Jul_01_1647,60.0878823445,sequenceLearningTask,001,124,
min1.png,min2.png,min3.png,min4.png,images/allBlank.png,"['num_7', 'num_4', 'num_1', 'num_0']",['num_0'],num_0,[4],'num_0',images/min4.png,"[(0.45, 0.79)]",,,,,0,-1,-1,0,1,2,6,3,,,,,"(0.75, 0.04)",images/min4.png,7,0.0574924892353,0.634378406408,[ 0.35724744 -0.26302083],,,2018_Jul_01_1647,60.0878823445,sequenceLearningTask,001,124,
min1.png,min2.png,min3.png,min4.png,images/allBlank.png,"['num_7', 'num_4', 'num_1', 'num_0']",['num_0'],num_0,[4],'num_0',images/min4.png,"[(0.45, 0.79)]",,,,,0,-1,-1,0,1,2,6,3,,,,,"(-0.25, 0.04)",images/min2.png,7,0.0644578197098,0.490260721945,[ 0.72035139 -0.06770833],,,2018_Jul_01_1647,60.0878823445,sequenceLearningTask,001,124,
min1.png,min2.png,min3.png,min4.png,images/allBlank.png,"['num_7', 'num_4', 'num_1', 'num_0']",['num_0'],num_0,[4],'num_0',images/min4.png,"[(0.45, 0.79)]",,,,,0,-1,-1,0,1,2,6,3,,,,,"(0.25, 0.04)",images/min3.png,7,0.0649271528491,0.477431188749,[-0.2489019  -0.13802083],,,2018_Jul_01_1647,60.0878823445,sequenceLearningTask,001,124,
min1.png,min2.png,min3.png,min4.png,images/allBlank.png,"['num_7', 'num_4', 'num_1', 'num_0']",['num_1'],num_1,[3],'num_1',images/min3.png,"[(0.45, 0.79)]",,,,,0,-1,-1,0,1,3,7,2,,,,,"(-0.75, 0.04)",images/min1.png,8,0.057838335244,0.764392712044,[ 0.2489019 -0.2265625],,,2018_Jul_01_1647,60.0878823445,sequenceLearningTask,001,124,
min1.png,min2.png,min3.png,min4.png,images/allBlank.png,"['num_7', 'num_4', 'num_1', 'num_0']",['num_1'],num_1,[3],'num_1',images/min3.png,"[(0.45, 0.79)]",,,,,0,-1,-1,0,1,3,7,2,,,,,"(0.25, 0.04)",images/min3.png,8,0.052706029659,0.555174746594,[-0.75549048 -0.2734375 ],,,2018_Jul_01_1647,60.0878823445,sequenceLearningTask,001,124,
min1.png,min2.png,min3.png,min4.png,images/allBlank.png,"['num_7', 'num_4', 'num_1', 'num_0']",['num_1'],num_1,[3],'num_1',images/min3.png,"[(0.45, 0.79)]",,,,,0,-1,-1,0,1,3,7,2,,,,,"(-0.75, 0.04)",images/min1.png,8,0.0537415164144,0.540549932084,[ 0.19619327  0.        ],,,2018_Jul_01_1647,60.0878823445,sequenceLearningTask,001,124,
min1.png,min2.png,min3.png,min4.png,images/allBlank.png,"['num_7', 'num_4', 'num_1', 'num_0']",['num_1'],num_1,[3],'num_1',images/min3.png,"[(0.45, 0.79)]",,,,,0,-1,-1,0,1,3,7,2,,,,,"(-0.75, 0.04)",images/min1.png,8,0.0675769979207,0.621481591188,[-0.72035139  0.05208333],,,2018_Jul_01_1647,60.0878823445,sequenceLearningTask,001,124,
min1.png,min2.png,min3.png,min4.png,images/allBlank.png,"['num_7', 'num_4', 'num_1', 'num_0']",['num_0'],num_0,[4],'num_0',images/min4.png,"[(0.45, 0.79)]",,,,,0,-1,-1,0,2,0,8,3,,,,,"(0.25, 0.04)",images/min3.png,9,0.0529066449635,0.634799739571,[-0.75402635 -0.09635417],,,2018_Jul_01_1647,60.0878823445,sequenceLearningTask,001,124,
min1.png,min2.png,min3.png,min4.png,images/allBlank.png,"['num_7', 'num_4', 'num_1', 'num_0']",['num_0'],num_0,[4],'num_0',images/min4.png,"[(0.45, 0.79)]",,,,,0,-1,-1,0,2,0,8,3,,,,,"(-0.25, 0.04)",images/min2.png,9,0.0588053092106,0.931920438186,[ 0.2284041 -0.0703125],,,2018_Jul_01_1647,60.0878823445,sequenceLearningTask,001,124,
min1.png,min2.png,min3.png,min4.png,images/allBlank.png,"['num_7', 'num_4', 'num_1', 'num_0']",['num_0'],num_0,[4],'num_0',images/min4.png,"[(0.45, 0.79)]",,,,,0,-1,-1,0,2,0,8,3,,,,,"(0.25, 0.04)",images/min3.png,9,0.061325513303,0.54797351878,[-0.19326501 -0.22135417],,,2018_Jul_01_1647,60.0878823445,sequenceLearningTask,001,124,
min1.png,min2.png,min3.png,min4.png,images/allBlank.png,"['num_7', 'num_4', 'num_1', 'num_0']",['num_0'],num_0,[4],'num_0',images/min4.png,"[(0.45, 0.79)]",,,,,0,-1,-1,0,2,0,8,3,,,,,"(-0.75, 0.04)",images/min1.png,9,0.0556807976718,0.823169303312,[ 0.32210835 -0.3359375 ],,,2018_Jul_01_1647,60.0878823445,sequenceLearningTask,001,124,
min1.png,min2.png,min3.png,min4.png,images/allBlank.png,"['num_7', 'num_4', 'num_1', 'num_0']",['num_1'],num_1,[3],'num_1',images/min3.png,"[(0.45, 0.79)]",,,,,0,-1,-1,0,2,1,9,2,,,,,"(-0.25, 0.04)",images/min2.png,10,0.0619954617468,0.486499082461,[-0.65446559 -0.2265625 ],,,2018_Jul_01_1647,60.0878823445,sequenceLearningTask,001,124,
min1.png,min2.png,min3.png,min4.png,images/allBlank.png,"['num_7', 'num_4', 'num_1', 'num_0']",['num_1'],num_1,[3],'num_1',images/min3.png,"[(0.45, 0.79)]",,,,,0,-1,-1,0,2,1,9,2,,,,,"(-0.25, 0.04)",images/min2.png,10,0.068311766845,0.992453336428,[-0.19912152 -0.09114583],,,2018_Jul_01_1647,60.0878823445,sequenceLearningTask,001,124,
min1.png,min2.png,min3.png,min4.png,images/allBlank.png,"['num_7', 'num_4', 'num_1', 'num_0']",['num_1'],num_1,[3],'num_1',images/min3.png,"[(0.45, 0.79)]",,,,,0,-1,-1,0,2,1,9,2,,,,,"(0.75, 0.04)",images/min4.png,10,0.0604163854696,4.66685593154,[-0.16398243 -0.32291667],,,2018_Jul_01_1647,60.0878823445,sequenceLearningTask,001,124,
min1.png,min2.png,min3.png,min4.png,images/allBlank.png,"['num_7', 'num_4', 'num_1', 'num_0']",['num_1'],num_1,[3],'num_1',images/min3.png,"[(0.45, 0.79)]",,,,,0,-1,-1,0,2,1,9,2,,,,,"(-0.75, 0.04)",images/min1.png,10,0.0599130010633,1.07060509924,[ 0.64714495 -0.1484375 ],,,2018_Jul_01_1647,60.0878823445,sequenceLearningTask,001,124,
min1.png,min2.png,min3.png,min4.png,images/allBlank.png,"['num_7', 'num_4', 'num_1', 'num_0']",['num_7'],num_7,[1],'num_7',images/min1.png,"[(0.45, 0.79)]",,,,,0,-1,-1,0,2,2,10,0,,,,,"(-0.75, 0.04)",images/min1.png,11,0.062908281885,0.754680716029,[-0.65007321 -0.20052083],,,2018_Jul_01_1647,60.0878823445,sequenceLearningTask,001,124,
min1.png,min2.png,min3.png,min4.png,images/allBlank.png,"['num_7', 'num_4', 'num_1', 'num_0']",['num_7'],num_7,[1],'num_7',images/min1.png,"[(0.45, 0.79)]",,,,,0,-1,-1,0,2,2,10,0,,,,,"(0.75, 0.04)",images/min4.png,11,0.0628155639715,1.80362018313,[-0.72035139 -0.3046875 ],,,2018_Jul_01_1647,60.0878823445,sequenceLearningTask,001,124,
min1.png,min2.png,min3.png,min4.png,images/allBlank.png,"['num_7', 'num_4', 'num_1', 'num_0']",['num_7'],num_7,[1],'num_7',images/min1.png,"[(0.45, 0.79)]",,,,,0,-1,-1,0,2,2,10,0,,,,,"(-0.75, 0.04)",images/min1.png,11,0.0599117702914,1.06942027921,[ 0.75402635 -0.2109375 ],,,2018_Jul_01_1647,60.0878823445,sequenceLearningTask,001,124,
min1.png,min2.png,min3.png,min4.png,images/allBlank.png,"['num_7', 'num_4', 'num_1', 'num_0']",['num_7'],num_7,[1],'num_7',images/min1.png,"[(0.45, 0.79)]",,,,,0,-1,-1,0,2,2,10,0,,,,,"(-0.75, 0.04)",images/min1.png,11,0.044761007277,0.743575489814,[-0.64568082 -0.34375   ],0.743575489814,1,2018_Jul_01_1647,60.0878823445,sequenceLearningTask,001,124,
min1.png,min2.png,min3.png,min4.png,images/allBlank.png,"['num_7', 'num_4', 'num_1', 'num_0']",['num_4'],num_4,[2],'num_4',images/min2.png,"[(0.45, 0.79)]",,,,,0,-1,-1,0,2,3,11,1,,,,,"(0.75, 0.04)",images/min4.png,12,0.0521763888501,1.54273085426,[-0.65007321 -0.32291667],,,2018_Jul_01_1647,60.0878823445,sequenceLearningTask,001,124,
min1.png,min2.png,min3.png,min4.png,images/allBlank.png,"['num_7', 'num_4', 'num_1', 'num_0']",['num_4'],num_4,[2],'num_4',images/min2.png,"[(0.45, 0.79)]",,,,,0,-1,-1,0,2,3,11,1,,,,,"(-0.25, 0.04)",images/min2.png,12,0.0579503351983,0.518852299956,[ 0.75988287 -0.04166667],,,2018_Jul_01_1647,60.0878823445,sequenceLearningTask,001,124,
min1.png,min2.png,min3.png,min4.png,images/allBlank.png,"['num_7', 'num_4', 'num_1', 'num_0']",['num_4'],num_4,[2],'num_4',images/min2.png,"[(0.45, 0.79)]",,,,,0,-1,-1,0,2,3,11,1,,,,,"(0.25, 0.04)",images/min3.png,12,0.0558223360749,0.789193522382,[-0.21376281 -0.2109375 ],,,2018_Jul_01_1647,60.0878823445,sequenceLearningTask,001,124,
min1.png,min2.png,min3.png,min4.png,images/allBlank.png,"['num_7', 'num_4', 'num_1', 'num_0']",['num_4'],num_4,[2],'num_4',images/min2.png,"[(0.45, 0.79)]",,,,,0,-1,-1,0,2,3,11,1,,,,,"(0.25, 0.04)",images/min3.png,12,0.0614543337615,0.517674864543,[ 0.25768668 -0.2890625 ],,,2018_Jul_01_1647,60.0878823445,sequenceLearningTask,001,124,
min1.png,min2.png,min3.png,min4.png,images/allBlank.png,"['num_7', 'num_4', 'num_1', 'num_0']",['num_4'],num_4,[2],'num_4',images/min2.png,"[(0.45, 0.79)]",,,,,0,-1,-1,0,3,0,12,1,,,,,"(0.25, 0.04)",images/min3.png,13,0.0547757724016,0.63133676663,[ 0.25768668 -0.30729167],,,2018_Jul_01_1647,60.0878823445,sequenceLearningTask,001,124,
min1.png,min2.png,min3.png,min4.png,images/allBlank.png,"['num_7', 'num_4', 'num_1', 'num_0']",['num_4'],num_4,[2],'num_4',images/min2.png,"[(0.45, 0.79)]",,,,,0,-1,-1,0,3,0,12,1,,,,,"(-0.25, 0.04)",images/min2.png,13,0.0601546419894,0.800519056196,[ 0.29868228 -0.27864583],,,2018_Jul_01_1647,60.0878823445,sequenceLearningTask,001,124,
min1.png,min2.png,min3.png,min4.png,images/allBlank.png,"['num_7', 'num_4', 'num_1', 'num_0']",['num_4'],num_4,[2],'num_4',images/min2.png,"[(0.45, 0.79)]",,,,,0,-1,-1,0,3,0,12,1,,,,,"(-0.25, 0.04)",images/min2.png,13,0.0584303350042,0.716669244444,[-0.13469985 -0.265625  ],,,2018_Jul_01_1647,60.0878823445,sequenceLearningTask,001,124,
min1.png,min2.png,min3.png,min4.png,images/allBlank.png,"['num_7', 'num_4', 'num_1', 'num_0']",['num_4'],num_4,[2],'num_4',images/min2.png,"[(0.45, 0.79)]",,,,,0,-1,-1,0,3,0,12,1,,,,,"(-0.75, 0.04)",images/min1.png,13,0.0561107462127,1.1890694609,[-0.06149341 -0.30729167],,,2018_Jul_01_1647,60.0878823445,sequenceLearningTask,001,124,
min1.png,min2.png,min3.png,min4.png,images/allBlank.png,"['num_7', 'num_4', 'num_1', 'num_0']",['num_0'],num_0,[4],'num_0',images/min4.png,"[(0.45, 0.79)]",,,,,0,-1,-1,0,3,1,13,3,,,,,"(0.25, 0.04)",images/min3.png,14,0.0454046993218,0.458989350158,[-0.64128843 -0.1328125 ],,,2018_Jul_01_1647,60.0878823445,sequenceLearningTask,001,124,
min1.png,min2.png,min3.png,min4.png,images/allBlank.png,"['num_7', 'num_4', 'num_1', 'num_0']",['num_0'],num_0,[4],'num_0',images/min4.png,"[(0.45, 0.79)]",,,,,0,-1,-1,0,3,1,13,3,,,,,"(-0.75, 0.04)",images/min1.png,14,0.0533353627325,1.62401492348,[ 0.29868228 -0.20833333],,,2018_Jul_01_1647,60.0878823445,sequenceLearningTask,001,124,
min1.png,min2.png,min3.png,min4.png,images/allBlank.png,"['num_7', 'num_4', 'num_1', 'num_0']",['num_0'],num_0,[4],'num_0',images/min4.png,"[(0.45, 0.79)]",,,,,0,-1,-1,0,3,1,13,3,,,,,"(0.25, 0.04)",images/min3.png,14,0.0655244859372,2.30087454323,[-0.80966325  0.1171875 ],,,2018_Jul_01_1647,60.0878823445,sequenceLearningTask,001,124,
min1.png,min2.png,min3.png,min4.png,images/allBlank.png,"['num_7', 'num_4', 'num_1', 'num_0']",['num_0'],num_0,[4],'num_0',images/min4.png,"[(0.45, 0.79)]",,,,,0,-1,-1,0,3,1,13,3,,,,,"(0.75, 0.04)",images/min4.png,14,0.0593837705092,1.38766302045,[ 0.23426061 -0.16666667],,,2018_Jul_01_1647,60.0878823445,sequenceLearningTask,001,124,
min1.png,min2.png,min3.png,min4.png,images/allBlank.png,"['num_7', 'num_4', 'num_1', 'num_0']",['num_1'],num_1,[3],'num_1',images/min3.png,"[(0.45, 0.79)]",,,,,0,-1,-1,0,3,2,14,2,,,,,"(-0.75, 0.04)",images/min1.png,15,0.054422952031,0.629119741901,[ 0.66471449  0.14583333],,,2018_Jul_01_1647,60.0878823445,sequenceLearningTask,001,124,
min1.png,min2.png,min3.png,min4.png,images/allBlank.png,"['num_7', 'num_4', 'num_1', 'num_0']",['num_1'],num_1,[3],'num_1',images/min3.png,"[(0.45, 0.79)]",,,,,0,-1,-1,0,3,2,14,2,,,,,"(-0.25, 0.04)",images/min2.png,15,0.0578686942063,0.990795901213,[-0.65007321 -0.0078125 ],,,2018_Jul_01_1647,60.0878823445,sequenceLearningTask,001,124,
min1.png,min2.png,min3.png,min4.png,images/allBlank.png,"['num_7', 'num_4', 'num_1', 'num_0']",['num_1'],num_1,[3],'num_1',images/min3.png,"[(0.45, 0.79)]",,,,,0,-1,-1,0,3,2,14,2,,,,,"(-0.75, 0.04)",images/min1.png,15,0.0611454108148,1.33419719623,[-0.16105417 -0.12239583],,,2018_Jul_01_1647,60.0878823445,sequenceLearningTask,001,124,
min1.png,min2.png,min3.png,min4.png,images/allBlank.png,"['num_7', 'num_4', 'num_1', 'num_0']",['num_1'],num_1,[3],'num_1',images/min3.png,"[(0.45, 0.79)]",,,,,0,-1,-1,0,3,2,14,2,,,,,"(-0.25, 0.04)",images/min2.png,15,0.0692270485233,0.465589552576,[-0.58272328 -0.18489583],,,2018_Jul_01_1647,60.0878823445,sequenceLearningTask,001,124,
min1.png,min2.png,min3.png,min4.png,images/allBlank.png,"['num_7', 'num_4', 'num_1', 'num_0']",['num_7'],num_7,[1],'num_7',images/min1.png,"[(0.45, 0.79)]",,,,,0,-1,-1,0,3,3,15,0,,,,,"(-0.75, 0.04)",images/min1.png,16,0.0614814106739,0.925678799718,[-0.23133236  0.04947917],,,2018_Jul_01_1647,60.0878823445,sequenceLearningTask,001,124,
min1.png,min2.png,min3.png,min4.png,images/allBlank.png,"['num_7', 'num_4', 'num_1', 'num_0']",['num_7'],num_7,[1],'num_7',images/min1.png,"[(0.45, 0.79)]",,,,,0,-1,-1,0,3,3,15,0,,,,,"(0.25, 0.04)",images/min3.png,16,0.0568258228413,0.772695067611,[ 0.86676428 -0.86458333],,,2018_Jul_01_1647,60.0878823445,sequenceLearningTask,001,124,
min1.png,min2.png,min3.png,min4.png,images/allBlank.png,"['num_7', 'num_4', 'num_1', 'num_0']",['num_7'],num_7,[1],'num_7',images/min1.png,"[(0.45, 0.79)]",,,,,0,-1,-1,0,3,3,15,0,,,,,"(0.25, 0.04)",images/min3.png,16,0.0623384359642,0.798366441693,[ 0.10395315  0.078125  ],0.0,1,2018_Jul_01_1647,60.0878823445,sequenceLearningTask,001,124,
min1.png,min2.png,min3.png,min4.png,images/allBlank.png,"['num_7', 'num_4', 'num_1', 'num_0']",['num_7'],num_7,[1],'num_7',images/min1.png,"[(0.45, 0.79)]",,,,,0,-1,-1,0,3,3,15,0,,,,,"(-0.75, 0.04)",images/min1.png,16,0.0637718712751,0.680078490226,[ 0.08052709 -0.09114583],,,2018_Jul_01_1647,60.0878823445,sequenceLearningTask,001,124,
min1.png,min2.png,min3.png,min4.png,images/allBlank.png,"['num_7', 'num_4', 'num_1', 'num_0']",['num_4'],num_4,[2],'num_4',images/min2.png,"[(0.45, 0.79)]",,,,,0,-1,-1,0,4,0,16,1,,,,,"(0.25, 0.04)",images/min3.png,17,0.0590924885764,0.589398732554,[-0.60322108 -0.16927083],,,2018_Jul_01_1647,60.0878823445,sequenceLearningTask,001,124,
min1.png,min2.png,min3.png,min4.png,images/allBlank.png,"['num_7', 'num_4', 'num_1', 'num_0']",['num_4'],num_4,[2],'num_4',images/min2.png,"[(0.45, 0.79)]",,,,,0,-1,-1,0,4,0,16,1,,,,,"(-0.75, 0.04)",images/min1.png,17,0.0640590506446,2.11620549079,[ 0.12005857 -0.109375  ],1.079429711,1,2018_Jul_01_1647,60.0878823445,sequenceLearningTask,001,124,
min1.png,min2.png,min3.png,min4.png,images/allBlank.png,"['num_7', 'num_4', 'num_1', 'num_0']",['num_4'],num_4,[2],'num_4',images/min2.png,"[(0.45, 0.79)]",,,,,0,-1,-1,0,4,0,16,1,,,,,"(0.75, 0.04)",images/min4.png,17,0.05686766898,1.09879052357,[-0.64860908 -0.19010417],,,2018_Jul_01_1647,60.0878823445,sequenceLearningTask,001,124,
min1.png,min2.png,min3.png,min4.png,images/allBlank.png,"['num_7', 'num_4', 'num_1', 'num_0']",['num_4'],num_4,[2],'num_4',images/min2.png,"[(0.45, 0.79)]",,,,,0,-1,-1,0,4,0,16,1,,,,,"(0.25, 0.04)",images/min3.png,17,0.0623564872367,1.01605824982,[ 0.6852123  -0.38020833],,,2018_Jul_01_1647,60.0878823445,sequenceLearningTask,001,124,
min1.png,min2.png,min3.png,min4.png,images/allBlank.png,"['num_7', 'num_4', 'num_1', 'num_0']",['num_0'],num_0,[4],'num_0',images/min4.png,"[(0.45, 0.79)]",,,,,0,-1,-1,0,4,1,17,3,,,,,"(-0.25, 0.04)",images/min2.png,18,0.0718485859106,0.921442083509,[ 0.27379209 -0.24739583],,,2018_Jul_01_1647,60.0878823445,sequenceLearningTask,001,124,
min1.png,min2.png,min3.png,min4.png,images/allBlank.png,"['num_7', 'num_4', 'num_1', 'num_0']",['num_0'],num_0,[4],'num_0',images/min4.png,"[(0.45, 0.79)]",,,,,0,-1,-1,0,4,1,17,3,,,,,"(0.75, 0.04)",images/min4.png,18,0.0598046934138,0.715444629561,[-0.12591508 -0.2578125 ],,,2018_Jul_01_1647,60.0878823445,sequenceLearningTask,001,124,
min1.png,min2.png,min3.png,min4.png,images/allBlank.png,"['num_7', 'num_4', 'num_1', 'num_0']",['num_0'],num_0,[4],'num_0',images/min4.png,"[(0.45, 0.79)]",,,,,0,-1,-1,0,4,1,17,3,,,,,"(0.75, 0.04)",images/min4.png,18,0.0578957711186,0.616554413722,[ 0.60175695  0.00260417],,,2018_Jul_01_1647,60.0878823445,sequenceLearningTask,001,124,
min1.png,min2.png,min3.png,min4.png,images/allBlank.png,"['num_7', 'num_4', 'num_1', 'num_0']",['num_0'],num_0,[4],'num_0',images/min4.png,"[(0.45, 0.79)]",,,,,0,-1,-1,0,4,1,17,3,,,,,"(-0.25, 0.04)",images/min2.png,18,0.0571532073227,1.20521632606,[ 0.65885798  0.1171875 ],,,2018_Jul_01_1647,60.0878823445,sequenceLearningTask,001,124,
min1.png,min2.png,min3.png,min4.png,images/allBlank.png,"['num_7', 'num_4', 'num_1', 'num_0']",['num_1'],num_1,[3],'num_1',images/min3.png,"[(0.45, 0.79)]",,,,,0,-1,-1,0,4,2,18,2,,,,,"(0.75, 0.04)",images/min4.png,19,0.0613583338018,0.810587975146,[-0.05710102 -0.29947917],,,2018_Jul_01_1647,60.0878823445,sequenceLearningTask,001,124,
min1.png,min2.png,min3.png,min4.png,images/allBlank.png,"['num_7', 'num_4', 'num_1', 'num_0']",['num_1'],num_1,[3],'num_1',images/min3.png,"[(0.45, 0.79)]",,,,,0,-1,-1,0,4,2,18,2,,,,,"(-0.25, 0.04)",images/min2.png,19,0.0633907432239,1.04581536582,[ 0.72035139 -0.23958333],,,2018_Jul_01_1647,60.0878823445,sequenceLearningTask,001,124,
min1.png,min2.png,min3.png,min4.png,images/allBlank.png,"['num_7', 'num_4', 'num_1', 'num_0']",['num_1'],num_1,[3],'num_1',images/min3.png,"[(0.45, 0.79)]",,,,,0,-1,-1,0,4,2,18,2,,,,,"(0.75, 0.04)",images/min4.png,19,0.0579843864653,0.933544232394,[-0.25183016 -0.32552083],,,2018_Jul_01_1647,60.0878823445,sequenceLearningTask,001,124,
min1.png,min2.png,min3.png,min4.png,images/allBlank.png,"['num_7', 'num_4', 'num_1', 'num_0']",['num_1'],num_1,[3],'num_1',images/min3.png,"[(0.45, 0.79)]",,,,,0,-1,-1,0,4,2,18,2,,,,,"(0.75, 0.04)",images/min4.png,19,0.0639347430006,1.0818251972,[ 0.66617862 -0.30208333],,,2018_Jul_01_1647,60.0878823445,sequenceLearningTask,001,124,
min1.png,min2.png,min3.png,min4.png,images/allBlank.png,"['num_7', 'num_4', 'num_1', 'num_0']",['num_7'],num_7,[1],'num_7',images/min1.png,"[(0.45, 0.79)]",,,,,0,-1,-1,0,4,3,19,0,,,,,"(0.25, 0.04)",images/min3.png,20,0.0640684865357,0.961012118558,[ 0.65007321 -0.28645833],,,2018_Jul_01_1647,60.0878823445,sequenceLearningTask,001,124,
min1.png,min2.png,min3.png,min4.png,images/allBlank.png,"['num_7', 'num_4', 'num_1', 'num_0']",['num_7'],num_7,[1],'num_7',images/min1.png,"[(0.45, 0.79)]",,,,,0,-1,-1,0,4,3,19,0,,,,,"(0.25, 0.04)",images/min3.png,20,0.0621932052527,0.681012643687,[ 0.4011713  -0.32552083],,,2018_Jul_01_1647,60.0878823445,sequenceLearningTask,001,124,
min1.png,min2.png,min3.png,min4.png,images/allBlank.png,"['num_7', 'num_4', 'num_1', 'num_0']",['num_7'],num_7,[1],'num_7',images/min1.png,"[(0.45, 0.79)]",,,,,0,-1,-1,0,4,3,19,0,,,,,"(0.25, 0.04)",images/min3.png,20,0.0531564910125,1.4072133714,[ 0.33089312 -0.34895833],0.659308037208,1,2018_Jul_01_1647,60.0878823445,sequenceLearningTask,001,124,
min1.png,min2.png,min3.png,min4.png,images/allBlank.png,"['num_7', 'num_4', 'num_1', 'num_0']",['num_7'],num_7,[1],'num_7',images/min1.png,"[(0.45, 0.79)]",,,,,0,-1,-1,0,4,3,19,0,,,,,"(0.25, 0.04)",images/min3.png,20,0.0581452069127,0.599771651378,[ 0.36749634 -0.29947917],,,2018_Jul_01_1647,60.0878823445,sequenceLearningTask,001,124,
min1.png,min2.png,min3.png,min4.png,allBlank.png,"['num_7', 'num_4', 'num_1', 'num_0']",['num_7'],num_7,[1],'num_7',images/min1.png,"[(0.45, 0.79)]",,,,,0,0,0,0,4,3,19,0,,,,,"(-0.75, -0.04)",images/min1.png,1,0.0468323910427,0.697031098654,[ 0.3601757  -0.26822917],,,2018_Jul_01_1647,60.0878823445,sequenceLearningTask,001,124,
min1.png,min2.png,min3.png,min4.png,allBlank.png,"['num_7', 'num_4', 'num_1', 'num_0']",['num_7'],num_7,[1],'num_7',images/min1.png,"[(0.45, 0.79)]",,,,,0,0,0,0,4,3,19,0,,,,,"(0.25, -0.04)",images/min3.png,1,0.0630338202936,0.38829235352,[-0.72474378 -0.08854167],,,2018_Jul_01_1647,60.0878823445,sequenceLearningTask,001,124,
min1.png,min2.png,min3.png,min4.png,allBlank.png,"['num_7', 'num_4', 'num_1', 'num_0']",['num_7'],num_7,[1],'num_7',images/min1.png,"[(0.45, 0.79)]",,,,,0,0,0,0,4,3,19,0,,,,,"(-0.25, -0.04)",images/min2.png,1,0.0583794632294,0.4606549905,[ 0.18448023 -0.2421875 ],,,2018_Jul_01_1647,60.0878823445,sequenceLearningTask,001,124,
min1.png,min2.png,min3.png,min4.png,allBlank.png,"['num_7', 'num_4', 'num_1', 'num_0']",['num_7'],num_7,[1],'num_7',images/min1.png,"[(0.45, 0.79)]",,,,,0,0,0,0,4,3,19,0,,,,,"(0.75, -0.04)",images/min4.png,1,0.0590026424616,0.42626526102,[-0.19033675 -0.1953125 ],,,2018_Jul_01_1647,60.0878823445,sequenceLearningTask,001,124,
min1.png,min2.png,min3.png,min4.png,allBlank.png,"['num_7', 'num_4', 'num_1', 'num_0']",['num_7'],num_7,[1],'num_7',images/min1.png,"[(0.45, 0.79)]",,,,,0,0,0,0,4,3,19,0,,,,,"(0.75, -0.04)",images/min4.png,1,0.0472291088299,0.590414937265,[ 0.66032211 -0.29947917],,,2018_Jul_01_1647,60.0878823445,sequenceLearningTask,001,124,
min1.png,min2.png,min3.png,min4.png,allBlank.png,"['num_7', 'num_4', 'num_1', 'num_0']",['num_7'],num_7,[1],'num_7',images/min1.png,"[(0.45, 0.79)]",,,,,0,0,0,0,4,3,19,0,,,,,"(-0.25, -0.04)",images/min2.png,1,0.0612959748505,0.479005341946,[ 0.71303075 -0.16927083],,,2018_Jul_01_1647,60.0878823445,sequenceLearningTask,001,124,
min1.png,min2.png,min3.png,min4.png,allBlank.png,"['num_7', 'num_4', 'num_1', 'num_0']",['num_7'],num_7,[1],'num_7',images/min1.png,"[(0.45, 0.79)]",,,,,0,0,0,0,4,3,19,0,,,,,"(0.25, -0.04)",images/min3.png,1,0.0567195664735,0.412624240973,[-0.16983895 -0.0703125 ],,,2018_Jul_01_1647,60.0878823445,sequenceLearningTask,001,124,
min1.png,min2.png,min3.png,min4.png,allBlank.png,"['num_7', 'num_4', 'num_1', 'num_0']",['num_7'],num_7,[1],'num_7',images/min1.png,"[(0.45, 0.79)]",,,,,0,0,0,0,4,3,19,0,,,,,"(0.75, -0.04)",images/min4.png,1,0.0633324868395,0.355182213258,[ 0.27964861 -0.18489583],,,2018_Jul_01_1647,60.0878823445,sequenceLearningTask,001,124,
min1.png,min2.png,min3.png,min4.png,allBlank.png,"['num_7', 'num_4', 'num_1', 'num_0']",['num_7'],num_7,[1],'num_7',images/min1.png,"[(0.45, 0.79)]",,,,,0,1,1,1,4,3,19,0,,,,,"(-0.75, -0.04)",images/min1.png,2,0.0512286969315,0.502919178289,[ 0.72181552 -0.13802083],,,2018_Jul_01_1647,60.0878823445,sequenceLearningTask,001,124,
min1.png,min2.png,min3.png,min4.png,allBlank.png,"['num_7', 'num_4', 'num_1', 'num_0']",['num_7'],num_7,[1],'num_7',images/min1.png,"[(0.45, 0.79)]",,,,,0,1,1,1,4,3,19,0,,,,,"(0.25, -0.04)",images/min3.png,2,0.059289821831,0.36451677353,[-0.68667643 -0.32291667],,,2018_Jul_01_1647,60.0878823445,sequenceLearningTask,001,124,
min1.png,min2.png,min3.png,min4.png,allBlank.png,"['num_7', 'num_4', 'num_1', 'num_0']",['num_7'],num_7,[1],'num_7',images/min1.png,"[(0.45, 0.79)]",,,,,0,1,1,1,4,3,19,0,,,,,"(-0.25, -0.04)",images/min2.png,2,0.0553927977853,0.419855417498,[ 0.23572474 -0.15364583],,,2018_Jul_01_1647,60.0878823445,sequenceLearningTask,001,124,
min1.png,min2.png,min3.png,min4.png,allBlank.png,"['num_7', 'num_4', 'num_1', 'num_0']",['num_7'],num_7,[1],'num_7',images/min1.png,"[(0.45, 0.79)]",,,,,0,1,1,1,4,3,19,0,,,,,"(0.75, -0.04)",images/min4.png,2,0.0614264363358,0.463314681718,[-0.26354319 -0.17447917],,,2018_Jul_01_1647,60.0878823445,sequenceLearningTask,001,124,
min1.png,min2.png,min3.png,min4.png,allBlank.png,"['num_7', 'num_4', 'num_1', 'num_0']",['num_7'],num_7,[1],'num_7',images/min1.png,"[(0.45, 0.79)]",,,,,0,1,1,1,4,3,19,0,,,,,"(0.75, -0.04)",images/min4.png,2,0.0606740263902,0.931752643384,[ 0.70863836  0.04427083],,,2018_Jul_01_1647,60.0878823445,sequenceLearningTask,001,124,
min1.png,min2.png,min3.png,min4.png,allBlank.png,"['num_7', 'num_4', 'num_1', 'num_0']",['num_7'],num_7,[1],'num_7',images/min1.png,"[(0.45, 0.79)]",,,,,0,1,1,1,4,3,19,0,,,,,"(-0.25, -0.04)",images/min2.png,2,0.0530289013223,0.956727402368,[ 0.6090776 -0.0703125],,,2018_Jul_01_1647,60.0878823445,sequenceLearningTask,001,124,
min1.png,min2.png,min3.png,min4.png,allBlank.png,"['num_7', 'num_4', 'num_1', 'num_0']",['num_7'],num_7,[1],'num_7',images/min1.png,"[(0.45, 0.79)]",,,,,0,1,1,1,4,3,19,0,,,,,"(0.25, -0.04)",images/min3.png,2,0.0518990556302,0.719422474082,[-0.1727672  -0.30989583],,,2018_Jul_01_1647,60.0878823445,sequenceLearningTask,001,124,
min1.png,min2.png,min3.png,min4.png,allBlank.png,"['num_7', 'num_4', 'num_1', 'num_0']",['num_7'],num_7,[1],'num_7',images/min1.png,"[(0.45, 0.79)]",,,,,0,1,1,1,4,3,19,0,,,,,"(0.75, -0.04)",images/min4.png,2,0.0578933095821,1.08429124747,[ 0.1522694 -0.203125 ],,,2018_Jul_01_1647,60.0878823445,sequenceLearningTask,001,124,
min1.png,min2.png,min3.png,min4.png,allBlank.png,"['num_7', 'num_4', 'num_1', 'num_0']",['num_7'],num_7,[1],'num_7',images/min1.png,"[(0.45, 0.79)]",,,,,0,2,2,2,4,3,19,0,,,,,"(-0.75, -0.04)",images/min1.png,3,0.0533981319386,0.615189491204,[ 0.66032211 -0.04947917],,,2018_Jul_01_1647,60.0878823445,sequenceLearningTask,001,124,
min1.png,min2.png,min3.png,min4.png,allBlank.png,"['num_7', 'num_4', 'num_1', 'num_0']",['num_7'],num_7,[1],'num_7',images/min1.png,"[(0.45, 0.79)]",,,,,0,2,2,2,4,3,19,0,,,,,"(0.25, -0.04)",images/min3.png,3,0.0539495163284,0.740256106561,[-0.68814056 -0.28385417],,,2018_Jul_01_1647,60.0878823445,sequenceLearningTask,001,124,
min1.png,min2.png,min3.png,min4.png,allBlank.png,"['num_7', 'num_4', 'num_1', 'num_0']",['num_7'],num_7,[1],'num_7',images/min1.png,"[(0.45, 0.79)]",,,,,0,2,2,2,4,3,19,0,,,,,"(-0.25, -0.04)",images/min2.png,3,0.0516627480356,0.472891293175,[ 0.2284041  -0.07552083],,,2018_Jul_01_1647,60.0878823445,sequenceLearningTask,001,124,
min1.png,min2.png,min3.png,min4.png,allBlank.png,"['num_7', 'num_4', 'num_1', 'num_0']",['num_7'],num_7,[1],'num_7',images/min1.png,"[(0.45, 0.79)]",,,,,0,2,2,2,4,3,19,0,,,,,"(0.75, -0.04)",images/min4.png,3,0.0527966962909,0.54156654705,[-0.2181552 -0.1640625],,,2018_Jul_01_1647,60.0878823445,sequenceLearningTask,001,124,
min1.png,min2.png,min3.png,min4.png,allBlank.png,"['num_7', 'num_4', 'num_1', 'num_0']",['num_7'],num_7,[1],'num_7',images/min1.png,"[(0.45, 0.79)]",,,,,0,2,2,2,4,3,19,0,,,,,"(0.75, -0.04)",images/min4.png,3,0.0512779276796,0.607443032844,[ 0.73792094  0.046875  ],,,2018_Jul_01_1647,60.0878823445,sequenceLearningTask,001,124,
min1.png,min2.png,min3.png,min4.png,allBlank.png,"['num_7', 'num_4', 'num_1', 'num_0']",['num_7'],num_7,[1],'num_7',images/min1.png,"[(0.45, 0.79)]",,,,,0,2,2,2,4,3,19,0,,,,,"(-0.25, -0.04)",images/min2.png,3,0.0569488997098,0.532870345487,[ 0.6954612  -0.01041667],,,2018_Jul_01_1647,60.0878823445,sequenceLearningTask,001,124,
min1.png,min2.png,min3.png,min4.png,allBlank.png,"['num_7', 'num_4', 'num_1', 'num_0']",['num_7'],num_7,[1],'num_7',images/min1.png,"[(0.45, 0.79)]",,,,,0,2,2,2,4,3,19,0,,,,,"(0.25, -0.04)",images/min3.png,3,0.0440479819299,0.514637327327,[-0.2284041 -0.1328125],,,2018_Jul_01_1647,60.0878823445,sequenceLearningTask,001,124,
min1.png,min2.png,min3.png,min4.png,allBlank.png,"['num_7', 'num_4', 'num_1', 'num_0']",['num_7'],num_7,[1],'num_7',images/min1.png,"[(0.45, 0.79)]",,,,,0,2,2,2,4,3,19,0,,,,,"(0.75, -0.04)",images/min4.png,3,0.0555417208052,0.433595309296,[ 0.28550512 -0.13020833],,,2018_Jul_01_1647,60.0878823445,sequenceLearningTask,001,124,
min1.png,min2.png,min3.png,min4.png,allBlank.png,"['num_7', 'num_4', 'num_1', 'num_0']",['num_7'],num_7,[1],'num_7',images/min1.png,"[(0.45, 0.79)]",,,,,0,3,3,3,4,3,19,0,,,,,"(-0.75, -0.04)",images/min1.png,4,0.0553587465183,0.612943338278,[ 0.62664714 -0.13802083],,,2018_Jul_01_1647,60.0878823445,sequenceLearningTask,001,124,
min1.png,min2.png,min3.png,min4.png,allBlank.png,"['num_7', 'num_4', 'num_1', 'num_0']",['num_7'],num_7,[1],'num_7',images/min1.png,"[(0.45, 0.79)]",,,,,0,3,3,3,4,3,19,0,,,,,"(0.25, -0.04)",images/min3.png,4,0.0645632555643,0.470856832468,[-0.81112738 -0.26822917],,,2018_Jul_01_1647,60.0878823445,sequenceLearningTask,001,124,
min1.png,min2.png,min3.png,min4.png,allBlank.png,"['num_7', 'num_4', 'num_1', 'num_0']",['num_7'],num_7,[1],'num_7',images/min1.png,"[(0.45, 0.79)]",,,,,0,3,3,3,4,3,19,0,,,,,"(-0.25, -0.04)",images/min2.png,4,0.0646957683275,0.420995519591,[ 0.24304539 -0.1640625 ],,,2018_Jul_01_1647,60.0878823445,sequenceLearningTask,001,124,
min1.png,min2.png,min3.png,min4.png,allBlank.png,"['num_7', 'num_4', 'num_1', 'num_0']",['num_7'],num_7,[1],'num_7',images/min1.png,"[(0.45, 0.79)]",,,,,0,3,3,3,4,3,19,0,,,,,"(0.75, -0.04)",images/min4.png,4,0.0536307472285,0.553473003703,[-0.2942899  -0.15885417],,,2018_Jul_01_1647,60.0878823445,sequenceLearningTask,001,124,
min1.png,min2.png,min3.png,min4.png,allBlank.png,"['num_7', 'num_4', 'num_1', 'num_0']",['num_7'],num_7,[1],'num_7',images/min1.png,"[(0.45, 0.79)]",,,,,0,3,3,3,4,3,19,0,,,,,"(0.75, -0.04)",images/min4.png,4,0.0569554638132,0.65316157819,[ 0.77745242 -0.07552083],,,2018_Jul_01_1647,60.0878823445,sequenceLearningTask,001,124,
min1.png,min2.png,min3.png,min4.png,allBlank.png,"['num_7', 'num_4', 'num_1', 'num_0']",['num_7'],num_7,[1],'num_7',images/min1.png,"[(0.45, 0.79)]",,,,,0,3,3,3,4,3,19,0,,,,,"(-0.25, -0.04)",images/min2.png,4,0.0552697209132,0.552801003978,[ 0.56808199 -0.2578125 ],,,2018_Jul_01_1647,60.0878823445,sequenceLearningTask,001,124,
min1.png,min2.png,min3.png,min4.png,allBlank.png,"['num_7', 'num_4', 'num_1', 'num_0']",['num_7'],num_7,[1],'num_7',images/min1.png,"[(0.45, 0.79)]",,,,,0,3,3,3,4,3,19,0,,,,,"(0.25, -0.04)",images/min3.png,4,0.0545566955661,0.434586488376,[-0.20351391 -0.43489583],,,2018_Jul_01_1647,60.0878823445,sequenceLearningTask,001,124,
min1.png,min2.png,min3.png,min4.png,allBlank.png,"['num_7', 'num_4', 'num_1', 'num_0']",['num_7'],num_7,[1],'num_7',images/min1.png,"[(0.45, 0.79)]",,,,,0,3,3,3,4,3,19,0,,,,,"(0.75, -0.04)",images/min4.png,4,0.0584935144652,0.665798701208,[ 0.20351391 -0.2109375 ],,,2018_Jul_01_1647,60.0878823445,sequenceLearningTask,001,124,
min1.png,min2.png,min3.png,min4.png,allBlank.png,"['num_7', 'num_4', 'num_1', 'num_0']",['num_7'],num_7,[1],'num_7',images/min1.png,"[(0.45, 0.79)]",,,,,0,4,4,4,4,3,19,0,,,,,"(-0.75, -0.04)",images/min1.png,5,0.0505591587425,2.43183243822,[ 0.65007321 -0.13541667],,,2018_Jul_01_1647,60.0878823445,sequenceLearningTask,001,124,
min1.png,min2.png,min3.png,min4.png,allBlank.png,"['num_7', 'num_4', 'num_1', 'num_0']",['num_7'],num_7,[1],'num_7',images/min1.png,"[(0.45, 0.79)]",,,,,0,4,4,4,4,3,19,0,,,,,"(0.25, -0.04)",images/min3.png,5,0.0562342333433,0.483820929716,[-0.87847731 -0.07291667],,,2018_Jul_01_1647,60.0878823445,sequenceLearningTask,001,124,
min1.png,min2.png,min3.png,min4.png,allBlank.png,"['num_7', 'num_4', 'num_1', 'num_0']",['num_7'],num_7,[1],'num_7',images/min1.png,"[(0.45, 0.79)]",,,,,0,4,4,4,4,3,19,0,,,,,"(-0.25, -0.04)",images/min2.png,5,0.0611634620873,0.574486738671,[ 0.29136164 -0.21614583],,,2018_Jul_01_1647,60.0878823445,sequenceLearningTask,001,124,
min1.png,min2.png,min3.png,min4.png,allBlank.png,"['num_7', 'num_4', 'num_1', 'num_0']",['num_7'],num_7,[1],'num_7',images/min1.png,"[(0.45, 0.79)]",,,,,0,4,4,4,4,3,19,0,,,,,"(0.75, -0.04)",images/min4.png,5,0.0615605901294,1.01430276336,[-0.2079063  -0.08854167],,,2018_Jul_01_1647,60.0878823445,sequenceLearningTask,001,124,
min1.png,min2.png,min3.png,min4.png,allBlank.png,"['num_7', 'num_4', 'num_1', 'num_0']",['num_7'],num_7,[1],'num_7',images/min1.png,"[(0.45, 0.79)]",,,,,0,4,4,4,4,3,19,0,,,,,"(0.75, -0.04)",images/min4.png,5,0.0588344374009,0.577227250371,[ 0.69985359 -0.12239583],,,2018_Jul_01_1647,60.0878823445,sequenceLearningTask,001,124,
min1.png,min2.png,min3.png,min4.png,allBlank.png,"['num_7', 'num_4', 'num_1', 'num_0']",['num_7'],num_7,[1],'num_7',images/min1.png,"[(0.45, 0.79)]",,,,,0,4,4,4,4,3,19,0,,,,,"(-0.25, -0.04)",images/min2.png,5,0.0571802842314,0.546243468209,[ 0.58125915 -0.18489583],,,2018_Jul_01_1647,60.0878823445,sequenceLearningTask,001,124,
min1.png,min2.png,min3.png,min4.png,allBlank.png,"['num_7', 'num_4', 'num_1', 'num_0']",['num_7'],num_7,[1],'num_7',images/min1.png,"[(0.45, 0.79)]",,,,,0,4,4,4,4,3,19,0,,,,,"(0.25, -0.04)",images/min3.png,5,0.0511659277254,0.455560838745,[-0.27379209 -0.23958333],,,2018_Jul_01_1647,60.0878823445,sequenceLearningTask,001,124,
min1.png,min2.png,min3.png,min4.png,allBlank.png,"['num_7', 'num_4', 'num_1', 'num_0']",['num_7'],num_7,[1],'num_7',images/min1.png,"[(0.45, 0.79)]",,,,,0,4,4,4,4,3,19,0,,,,,"(0.75, -0.04)",images/min4.png,5,0.0538900291722,0.841302629207,[ 0.25915081 -0.20052083],,,2018_Jul_01_1647,60.0878823445,sequenceLearningTask,001,124,
min1.png,min2.png,min3.png,min4.png,allBlank.png,"['num_7', 'num_4', 'num_1', 'num_0']",['num_7'],num_7,[1],'num_7',images/min1.png,"[(0.45, 0.79)]",,,,,0,5,5,5,4,3,19,0,,,,,"(-0.75, -0.04)",images/min1.png,6,0.0262522969206,1.25134923021,[ 0.65592972 -0.10677083],0.0947285765214,1,2018_Jul_01_1647,60.0878823445,sequenceLearningTask,001,124,
min1.png,min2.png,min3.png,min4.png,allBlank.png,"['num_7', 'num_4', 'num_1', 'num_0']",['num_7'],num_7,[1],'num_7',images/min1.png,"[(0.45, 0.79)]",,,,,0,5,5,5,4,3,19,0,,,,,"(0.25, -0.04)",images/min3.png,6,0.0606202828203,0.897650093273,[-0.6852123  -0.23697917],,,2018_Jul_01_1647,60.0878823445,sequenceLearningTask,001,124,
min1.png,min2.png,min3.png,min4.png,allBlank.png,"['num_7', 'num_4', 'num_1', 'num_0']",['num_7'],num_7,[1],'num_7',images/min1.png,"[(0.45, 0.79)]",,,,,0,5,5,5,4,3,19,0,,,,,"(-0.25, -0.04)",images/min2.png,6,0.0552118747837,0.75274512708,[ 0.17569546  0.12239583],,,2018_Jul_01_1647,60.0878823445,sequenceLearningTask,001,124,
min1.png,min2.png,min3.png,min4.png,allBlank.png,"['num_7', 'num_4', 'num_1', 'num_0']",['num_7'],num_7,[1],'num_7',images/min1.png,"[(0.45, 0.79)]",,,,,0,5,5,5,4,3,19,0,,,,,"(0.75, -0.04)",images/min4.png,6,0.0512869533159,1.09302888491,[-0.30746706 -0.21614583],,,2018_Jul_01_1647,60.0878823445,sequenceLearningTask,001,124,
min1.png,min2.png,min3.png,min4.png,allBlank.png,"['num_7', 'num_4', 'num_1', 'num_0']",['num_7'],num_7,[1],'num_7',images/min1.png,"[(0.45, 0.79)]",,,,,0,5,5,5,4,3,19,0,,,,,"(0.75, -0.04)",images/min4.png,6,0.0560438744433,0.866100978008,[ 0.72181552 -0.01302083],,,2018_Jul_01_1647,60.0878823445,sequenceLearningTask,001,124,
min1.png,min2.png,min3.png,min4.png,allBlank.png,"['num_7', 'num_4', 'num_1', 'num_0']",['num_7'],num_7,[1],'num_7',images/min1.png,"[(0.45, 0.79)]",,,,,0,5,5,5,4,3,19,0,,,,,"(-0.25, -0.04)",images/min2.png,6,0.0608451032422,0.715073347663,[ 0.62371889 -0.0078125 ],,,2018_Jul_01_1647,60.0878823445,sequenceLearningTask,001,124,
min1.png,min2.png,min3.png,min4.png,allBlank.png,"['num_7', 'num_4', 'num_1', 'num_0']",['num_7'],num_7,[1],'num_7',images/min1.png,"[(0.45, 0.79)]",,,,,0,5,5,5,4,3,19,0,,,,,"(0.25, -0.04)",images/min3.png,6,0.0552676696316,0.502371075949,[-0.2284041  -0.19270833],,,2018_Jul_01_1647,60.0878823445,sequenceLearningTask,001,124,
min1.png,min2.png,min3.png,min4.png,allBlank.png,"['num_7', 'num_4', 'num_1', 'num_0']",['num_7'],num_7,[1],'num_7',images/min1.png,"[(0.45, 0.79)]",,,,,0,5,5,5,4,3,19,0,,,,,"(0.75, -0.04)",images/min4.png,6,0.0545021314865,0.498670974906,[ 0.17569546 -0.30208333],,,2018_Jul_01_1647,60.0878823445,sequenceLearningTask,001,124,
min1.png,min2.png,min3.png,min4.png,allBlank.png,"['num_7', 'num_4', 'num_1', 'num_0']",['num_7'],num_7,[1],'num_7',images/min1.png,"[(0.45, 0.79)]",,,,,0,6,6,6,4,3,19,0,,,,,"(-0.75, -0.04)",images/min1.png,7,0.0518896197391,0.585446734174,[ 0.66032211 -0.1328125 ],,,2018_Jul_01_1647,60.0878823445,sequenceLearningTask,001,124,
min1.png,min2.png,min3.png,min4.png,allBlank.png,"['num_7', 'num_4', 'num_1', 'num_0']",['num_7'],num_7,[1],'num_7',images/min1.png,"[(0.45, 0.79)]",,,,,0,6,6,6,4,3,19,0,,,,,"(0.25, -0.04)",images/min3.png,7,0.0534896190838,0.368196772019,[-0.62079063 -0.25260417],,,2018_Jul_01_1647,60.0878823445,sequenceLearningTask,001,124,
min1.png,min2.png,min3.png,min4.png,allBlank.png,"['num_7', 'num_4', 'num_1', 'num_0']",['num_7'],num_7,[1],'num_7',images/min1.png,"[(0.45, 0.79)]",,,,,0,6,6,6,4,3,19,0,,,,,"(-0.25, -0.04)",images/min2.png,7,0.0597648985568,0.43384146304,[ 0.2284041  -0.31510417],,,2018_Jul_01_1647,60.0878823445,sequenceLearningTask,001,124,
min1.png,min2.png,min3.png,min4.png,allBlank.png,"['num_7', 'num_4', 'num_1', 'num_0']",['num_7'],num_7,[1],'num_7',images/min1.png,"[(0.45, 0.79)]",,,,,0,6,6,6,4,3,19,0,,,,,"(0.75, -0.04)",images/min4.png,7,0.0561870538731,0.450225866574,[-0.15959004 -0.25520833],,,2018_Jul_01_1647,60.0878823445,sequenceLearningTask,001,124,
min1.png,min2.png,min3.png,min4.png,allBlank.png,"['num_7', 'num_4', 'num_1', 'num_0']",['num_7'],num_7,[1],'num_7',images/min1.png,"[(0.45, 0.79)]",,,,,0,6,6,6,4,3,19,0,,,,,"(0.75, -0.04)",images/min4.png,7,0.051863773595,0.568306228386,[ 0.65592972 -0.0703125 ],,,2018_Jul_01_1647,60.0878823445,sequenceLearningTask,001,124,
min1.png,min2.png,min3.png,min4.png,allBlank.png,"['num_7', 'num_4', 'num_1', 'num_0']",['num_7'],num_7,[1],'num_7',images/min1.png,"[(0.45, 0.79)]",,,,,0,6,6,6,4,3,19,0,,,,,"(-0.25, -0.04)",images/min2.png,7,0.0601607958306,0.445018073839,[ 0.59443631 -0.16145833],,,2018_Jul_01_1647,60.0878823445,sequenceLearningTask,001,124,
min1.png,min2.png,min3.png,min4.png,allBlank.png,"['num_7', 'num_4', 'num_1', 'num_0']",['num_7'],num_7,[1],'num_7',images/min1.png,"[(0.45, 0.79)]",,,,,0,6,6,6,4,3,19,0,,,,,"(0.25, -0.04)",images/min3.png,7,0.0528803885609,0.537469317962,[-0.19326501 -0.25260417],,,2018_Jul_01_1647,60.0878823445,sequenceLearningTask,001,124,
min1.png,min2.png,min3.png,min4.png,allBlank.png,"['num_7', 'num_4', 'num_1', 'num_0']",['num_7'],num_7,[1],'num_7',images/min1.png,"[(0.45, 0.79)]",,,,,0,6,6,6,4,3,19,0,,,,,"(0.75, -0.04)",images/min4.png,7,0.0508085945403,0.592180269876,[ 0.28696925 -0.20052083],,,2018_Jul_01_1647,60.0878823445,sequenceLearningTask,001,124,
min1.png,min2.png,min3.png,min4.png,allBlank.png,"['num_7', 'num_4', 'num_1', 'num_0']",['num_7'],num_7,[1],'num_7',images/min1.png,"[(0.45, 0.79)]",,,,,0,7,7,7,4,3,19,0,,,,,"(-0.75, -0.04)",images/min1.png,8,0.0537607984552,0.755479484931,[ 0.65446559 -0.125     ],,,2018_Jul_01_1647,60.0878823445,sequenceLearningTask,001,124,
min1.png,min2.png,min3.png,min4.png,allBlank.png,"['num_7', 'num_4', 'num_1', 'num_0']",['num_7'],num_7,[1],'num_7',images/min1.png,"[(0.45, 0.79)]",,,,,0,7,7,7,4,3,19,0,,,,,"(0.25, -0.04)",images/min3.png,8,0.0556762848537,0.934947308742,[-0.75695461 -0.22135417],,,2018_Jul_01_1647,60.0878823445,sequenceLearningTask,001,124,
min1.png,min2.png,min3.png,min4.png,allBlank.png,"['num_7', 'num_4', 'num_1', 'num_0']",['num_7'],num_7,[1],'num_7',images/min1.png,"[(0.45, 0.79)]",,,,,0,7,7,7,4,3,19,0,,,,,"(-0.25, -0.04)",images/min2.png,8,0.0612984363906,1.08039504394,[ 0.28111274 -0.27604167],0.578334942224,1,2018_Jul_01_1647,60.0878823445,sequenceLearningTask,001,124,
min1.png,min2.png,min3.png,min4.png,allBlank.png,"['num_7', 'num_4', 'num_1', 'num_0']",['num_7'],num_7,[1],'num_7',images/min1.png,"[(0.45, 0.79)]",,,,,0,7,7,7,4,3,19,0,,,,,"(0.75, -0.04)",images/min4.png,8,0.0503002870573,0.607215340631,[-0.09956076 -0.3671875 ],,,2018_Jul_01_1647,60.0878823445,sequenceLearningTask,001,124,
min1.png,min2.png,min3.png,min4.png,allBlank.png,"['num_7', 'num_4', 'num_1', 'num_0']",['num_7'],num_7,[1],'num_7',images/min1.png,"[(0.45, 0.79)]",,,,,0,7,7,7,4,3,19,0,,,,,"(0.75, -0.04)",images/min4.png,8,0.0539376188972,0.619757694458,[ 0.79355783 -0.1640625 ],,,2018_Jul_01_1647,60.0878823445,sequenceLearningTask,001,124,
min1.png,min2.png,min3.png,min4.png,allBlank.png,"['num_7', 'num_4', 'num_1', 'num_0']",['num_7'],num_7,[1],'num_7',images/min1.png,"[(0.45, 0.79)]",,,,,0,7,7,7,4,3,19,0,,,,,"(-0.25, -0.04)",images/min2.png,8,0.0552652080987,0.446872021796,[ 0.79941435 -0.15625   ],,,2018_Jul_01_1647,60.0878823445,sequenceLearningTask,001,124,
min1.png,min2.png,min3.png,min4.png,allBlank.png,"['num_7', 'num_4', 'num_1', 'num_0']",['num_7'],num_7,[1],'num_7',images/min1.png,"[(0.45, 0.79)]",,,,,0,7,7,7,4,3,19,0,,,,,"(0.25, -0.04)",images/min3.png,8,0.0514506455584,0.551426645568,[-0.17423133 -0.0859375 ],,,2018_Jul_01_1647,60.0878823445,sequenceLearningTask,001,124,
min1.png,min2.png,min3.png,min4.png,allBlank.png,"['num_7', 'num_4', 'num_1', 'num_0']",['num_7'],num_7,[1],'num_7',images/min1.png,"[(0.45, 0.79)]",,,,,0,7,7,7,4,3,19,0,,,,,"(0.75, -0.04)",images/min4.png,8,0.0444200843376,0.562319359047,[ 0.26647145 -0.2109375 ],,,2018_Jul_01_1647,60.0878823445,sequenceLearningTask,001,124,
min1.png,min2.png,min3.png,min4.png,allBlank.png,"['num_7', 'num_4', 'num_1', 'num_0']",['num_7'],num_7,[1],'num_7',images/min1.png,"[(0.45, 0.79)]",,,,,0,8,8,8,4,3,19,0,,,,,"(-0.75, -0.04)",images/min1.png,9,0.0515884916567,0.44980248213,[ 0.71742313 -0.06510417],,,2018_Jul_01_1647,60.0878823445,sequenceLearningTask,001,124,
min1.png,min2.png,min3.png,min4.png,allBlank.png,"['num_7', 'num_4', 'num_1', 'num_0']",['num_7'],num_7,[1],'num_7',images/min1.png,"[(0.45, 0.79)]",,,,,0,8,8,8,4,3,19,0,,,,,"(0.25, -0.04)",images/min3.png,9,0.0624307436192,0.406468346064,[-0.61786237 -0.1640625 ],,,2018_Jul_01_1647,60.0878823445,sequenceLearningTask,001,124,
min1.png,min2.png,min3.png,min4.png,allBlank.png,"['num_7', 'num_4', 'num_1', 'num_0']",['num_7'],num_7,[1],'num_7',images/min1.png,"[(0.45, 0.79)]",,,,,0,8,8,8,4,3,19,0,,,,,"(-0.25, -0.04)",images/min2.png,9,0.0553226439697,1.35171883006,[ 0.25183016 -0.11197917],,,2018_Jul_01_1647,60.0878823445,sequenceLearningTask,001,124,
min1.png,min2.png,min3.png,min4.png,allBlank.png,"['num_7', 'num_4', 'num_1', 'num_0']",['num_7'],num_7,[1],'num_7',images/min1.png,"[(0.45, 0.79)]",,,,,0,8,8,8,4,3,19,0,,,,,"(0.75, -0.04)",images/min4.png,9,0.0612114620671,0.558741104105,[-0.2181552   0.26302083],,,2018_Jul_01_1647,60.0878823445,sequenceLearningTask,001,124,
min1.png,min2.png,min3.png,min4.png,allBlank.png,"['num_7', 'num_4', 'num_1', 'num_0']",['num_7'],num_7,[1],'num_7',images/min1.png,"[(0.45, 0.79)]",,,,,0,8,8,8,4,3,19,0,,,,,"(0.75, -0.04)",images/min4.png,9,0.0540611060242,1.1382276356,[ 0.66617862 -0.26302083],0.498426051927,1,2018_Jul_01_1647,60.0878823445,sequenceLearningTask,001,124,
min1.png,min2.png,min3.png,min4.png,allBlank.png,"['num_7', 'num_4', 'num_1', 'num_0']",['num_7'],num_7,[1],'num_7',images/min1.png,"[(0.45, 0.79)]",,,,,0,8,8,8,4,3,19,0,,,,,"(-0.25, -0.04)",images/min2.png,9,0.0501357743051,0.468929448645,[ 0.65153734 -0.36197917],,,2018_Jul_01_1647,60.0878823445,sequenceLearningTask,001,124,
min1.png,min2.png,min3.png,min4.png,allBlank.png,"['num_7', 'num_4', 'num_1', 'num_0']",['num_7'],num_7,[1],'num_7',images/min1.png,"[(0.45, 0.79)]",,,,,0,8,8,8,4,3,19,0,,,,,"(0.25, -0.04)",images/min3.png,9,0.0503109537167,0.905072859456,[-0.22986823 -0.3125    ],,,2018_Jul_01_1647,60.0878823445,sequenceLearningTask,001,124,
min1.png,min2.png,min3.png,min4.png,allBlank.png,"['num_7', 'num_4', 'num_1', 'num_0']",['num_7'],num_7,[1],'num_7',images/min1.png,"[(0.45, 0.79)]",,,,,0,8,8,8,4,3,19,0,,,,,"(0.75, -0.04)",images/min4.png,9,0.0539577214549,0.66621059848,[ 0.27525622 -0.296875  ],,,2018_Jul_01_1647,60.0878823445,sequenceLearningTask,001,124,
min1.png,min2.png,min3.png,min4.png,allBlank.png,"['num_7', 'num_4', 'num_1', 'num_0']",['num_7'],num_7,[1],'num_7',images/min1.png,"[(0.45, 0.79)]",,,,,0,9,9,9,4,3,19,0,,,,,"(-0.75, -0.04)",images/min1.png,10,0.0583581299034,0.698177354596,[ 0.6954612  -0.40885417],,,2018_Jul_01_1647,60.0878823445,sequenceLearningTask,001,124,
min1.png,min2.png,min3.png,min4.png,allBlank.png,"['num_7', 'num_4', 'num_1', 'num_0']",['num_7'],num_7,[1],'num_7',images/min1.png,"[(0.45, 0.79)]",,,,,0,9,9,9,4,3,19,0,,,,,"(0.25, -0.04)",images/min3.png,10,0.0582732068615,0.628896972758,[-0.64128843 -0.37760417],,,2018_Jul_01_1647,60.0878823445,sequenceLearningTask,001,124,
min1.png,min2.png,min3.png,min4.png,allBlank.png,"['num_7', 'num_4', 'num_1', 'num_0']",['num_7'],num_7,[1],'num_7',images/min1.png,"[(0.45, 0.79)]",,,,,0,9,9,9,4,3,19,0,,,,,"(-0.25, -0.04)",images/min2.png,10,0.0529899269786,0.587070528381,[ 0.25915081 -0.36979167],,,2018_Jul_01_1647,60.0878823445,sequenceLearningTask,001,124,
min1.png,min2.png,min3.png,min4.png,allBlank.png,"['num_7', 'num_4', 'num_1', 'num_0']",['num_7'],num_7,[1],'num_7',images/min1.png,"[(0.45, 0.79)]",,,,,0,9,9,9,4,3,19,0,,,,,"(0.75, -0.04)",images/min4.png,10,0.054750336516,0.455249044004,[-0.21229868 -0.0546875 ],,,2018_Jul_01_1647,60.0878823445,sequenceLearningTask,001,124,
min1.png,min2.png,min3.png,min4.png,allBlank.png,"['num_7', 'num_4', 'num_1', 'num_0']",['num_7'],num_7,[1],'num_7',images/min1.png,"[(0.45, 0.79)]",,,,,0,9,9,9,4,3,19,0,,,,,"(0.75, -0.04)",images/min4.png,10,0.0576972070994,0.830140787635,[ 0.66910688 -0.22916667],,,2018_Jul_01_1647,60.0878823445,sequenceLearningTask,001,124,
min1.png,min2.png,min3.png,min4.png,allBlank.png,"['num_7', 'num_4', 'num_1', 'num_0']",['num_7'],num_7,[1],'num_7',images/min1.png,"[(0.45, 0.79)]",,,,,0,9,9,9,4,3,19,0,,,,,"(-0.25, -0.04)",images/min2.png,10,0.0588512579052,0.576038738036,[ 0.60175695 -0.171875  ],,,2018_Jul_01_1647,60.0878823445,sequenceLearningTask,001,124,
min1.png,min2.png,min3.png,min4.png,allBlank.png,"['num_7', 'num_4', 'num_1', 'num_0']",['num_7'],num_7,[1],'num_7',images/min1.png,"[(0.45, 0.79)]",,,,,0,9,9,9,4,3,19,0,,,,,"(0.25, -0.04)",images/min3.png,10,0.0557000797126,0.58593329808,[-0.14641288 -0.1640625 ],,,2018_Jul_01_1647,60.0878823445,sequenceLearningTask,001,124,
min1.png,min2.png,min3.png,min4.png,allBlank.png,"['num_7', 'num_4', 'num_1', 'num_0']",['num_7'],num_7,[1],'num_7',images/min1.png,"[(0.45, 0.79)]",,,,,0,9,9,9,4,3,19,0,,,,,"(0.75, -0.04)",images/min4.png,10,0.0543749520511,0.602493291288,[ 0.23718887 -0.171875  ],,,2018_Jul_01_1647,60.0878823445,sequenceLearningTask,001,124,
min1.png,min2.png,min3.png,min4.png,allBlank.png,"['num_7', 'num_4', 'num_1', 'num_0']",['num_7'],num_7,[1],'num_7',images/min1.png,"[(0.45, 0.79)]",,,,,0,9,9,9,4,3,19,0,0,-1,-1,0,,,,,,,,,2018_Jul_01_1647,60.0878823445,sequenceLearningTask,001,124,
