pawPatrol1,pawPatrol2,pawPatrol3,pawPatrol4,blank,allowableKey,correctKey,correctKeyPressNum,posLoc,correctKeyPress,randomPaw,im_size,trials.thisRepN,trials.thisTrialN,trials.thisN,trials.thisIndex,trials_3.thisRepN,trials_3.thisTrialN,trials_3.thisN,trials_3.thisIndex,trials_2.thisRepN,trials_2.thisTrialN,trials_2.thisN,trials_2.thisIndex,trials_questions.thisRepN,trials_questions.thisTrialN,trials_questions.thisN,trials_questions.thisIndex,correctLocation,correctImage,repetitionNumber,stimulusPresent.t,responseTimeCorrect,pressLoc,responseTimeIncorrect,trialIncorrect,anticipatoryResponse,date,frameRate,expName,session,participant,
min1.png,min2.png,min3.png,min4.png,allBlank.png,,,,,,,,,,,,0,0,0,0,,,,,,,,,"(-0.75, -0.04)",images/min1.png,1,0.0428147516213,0.550356287044,[-0.0359375  -0.33888889],,,,2018_Jun_30_1839,59.8616613233,sequenceLearningTask,001,121,
min1.png,min2.png,min3.png,min4.png,allBlank.png,,,,,,,,,,,,0,0,0,0,,,,,,,,,"(0.25, -0.04)",images/min3.png,1,0.0696303303121,0.674327518209,[-0.73125 -0.075  ],0.101821086486,1,,2018_Jun_30_1839,59.8616613233,sequenceLearningTask,001,121,
min1.png,min2.png,min3.png,min4.png,allBlank.png,,,,,,,,,,,,0,0,0,0,,,,,,,,,"(-0.25, -0.04)",images/min2.png,1,0.0528918757336,0.540804290911,[ 0.209375    0.01388889],,,,2018_Jun_30_1839,59.8616613233,sequenceLearningTask,001,121,
min1.png,min2.png,min3.png,min4.png,allBlank.png,,,,,,,,,,,,0,0,0,0,,,,,,,,,"(0.75, -0.04)",images/min4.png,1,0.0509850047529,0.624691436067,[-0.2953125  -0.09722222],,,,2018_Jun_30_1839,59.8616613233,sequenceLearningTask,001,121,
min1.png,min2.png,min3.png,min4.png,allBlank.png,,,,,,,,,,,,0,0,0,0,,,,,,,,,"(0.75, -0.04)",images/min4.png,1,0.0544385417597,0.721320729703,[ 0.7046875  -0.05555556],,,,2018_Jun_30_1839,59.8616613233,sequenceLearningTask,001,121,
min1.png,min2.png,min3.png,min4.png,allBlank.png,,,,,,,,,,,,0,0,0,0,,,,,,,,,"(-0.25, -0.04)",images/min2.png,1,0.0505050049396,0.661556651699,[ 0.746875   -0.03888889],,,,2018_Jun_30_1839,59.8616613233,sequenceLearningTask,001,121,
min1.png,min2.png,min3.png,min4.png,allBlank.png,,,,,,,,,,,,0,0,0,0,,,,,,,,,"(0.25, -0.04)",images/min3.png,1,0.0527285938151,0.520944196614,[-0.284375   -0.13611111],,,,2018_Jun_30_1839,59.8616613233,sequenceLearningTask,001,121,
min1.png,min2.png,min3.png,min4.png,allBlank.png,,,,,,,,,,,,0,0,0,0,,,,,,,,,"(0.75, -0.04)",images/min4.png,1,0.0585665401304,0.497644513845,[ 0.2921875  -0.04722222],,,,2018_Jun_30_1839,59.8616613233,sequenceLearningTask,001,121,
min1.png,min2.png,min3.png,min4.png,allBlank.png,,,,,,,,,,,,0,1,1,1,,,,,,,,,"(-0.75, -0.04)",images/min1.png,2,0.0649152554106,0.539835675969,[ 0.7734375  -0.02777778],,,,2018_Jun_30_1839,59.8616613233,sequenceLearningTask,001,121,
min1.png,min2.png,min3.png,min4.png,allBlank.png,,,,,,,,,,,,0,1,1,1,,,,,,,,,"(0.25, -0.04)",images/min3.png,2,0.0542736187344,0.432682489161,[-0.7203125 -0.075    ],,,,2018_Jun_30_1839,59.8616613233,sequenceLearningTask,001,121,
min1.png,min2.png,min3.png,min4.png,allBlank.png,,,,,,,,,,,,0,1,1,1,,,,,,,,,"(-0.25, -0.04)",images/min2.png,2,0.055745618185,0.484054775792,[ 0.2609375  -0.03333333],,,,2018_Jun_30_1839,59.8616613233,sequenceLearningTask,001,121,
min1.png,min2.png,min3.png,min4.png,allBlank.png,,,,,,,,,,,,0,1,1,1,,,,,,,,,"(0.75, -0.04)",images/min4.png,2,0.0617078720825,0.596209806623,[-0.259375   -0.06111111],,,,2018_Jun_30_1839,59.8616613233,sequenceLearningTask,001,121,
min1.png,min2.png,min3.png,min4.png,allBlank.png,,,,,,,,,,,,0,1,1,1,,,,,,,,,"(0.75, -0.04)",images/min4.png,2,0.0530453115935,0.674045261927,[ 0.6265625  -0.30833333],,,,2018_Jun_30_1839,59.8616613233,sequenceLearningTask,001,121,
min1.png,min2.png,min3.png,min4.png,allBlank.png,,,,,,,,,,,,0,1,1,1,,,,,,,,,"(-0.25, -0.04)",images/min2.png,2,0.0583610017784,0.70123950718,[ 0.7203125  -0.21388889],,,,2018_Jun_30_1839,59.8616613233,sequenceLearningTask,001,121,
min1.png,min2.png,min3.png,min4.png,allBlank.png,,,,,,,,,,,,0,1,1,1,,,,,,,,,"(0.25, -0.04)",images/min3.png,2,0.058706847718,0.515802865382,[-0.2671875   0.10833333],,,,2018_Jun_30_1839,59.8616613233,sequenceLearningTask,001,121,
min1.png,min2.png,min3.png,min4.png,allBlank.png,,,,,,,,,,,,0,1,1,1,,,,,,,,,"(0.75, -0.04)",images/min4.png,2,0.0513932096073,0.607949699392,[ 0.2515625  -0.21388889],,,,2018_Jun_30_1839,59.8616613233,sequenceLearningTask,001,121,
min1.png,min2.png,min3.png,min4.png,allBlank.png,,,,,,,,,,,,0,2,2,2,,,,,,,,,"(-0.75, -0.04)",images/min1.png,3,0.0565189510817,0.633509483654,[ 0.6546875  -0.19444444],,,,2018_Jun_30_1839,59.8616613233,sequenceLearningTask,001,121,
min1.png,min2.png,min3.png,min4.png,allBlank.png,,,,,,,,,,,,0,2,2,2,,,,,,,,,"(0.25, -0.04)",images/min3.png,3,0.0559962848201,0.564297204372,[-0.7171875 -0.125    ],,,,2018_Jun_30_1839,59.8616613233,sequenceLearningTask,001,121,
min1.png,min2.png,min3.png,min4.png,allBlank.png,,,,,,,,,,,,0,2,2,2,,,,,,,,,"(-0.25, -0.04)",images/min2.png,3,0.0551162849879,0.536236908287,[ 0.296875   -0.21388889],,,,2018_Jun_30_1839,59.8616613233,sequenceLearningTask,001,121,
min1.png,min2.png,min3.png,min4.png,allBlank.png,,,,,,,,,,,,0,2,2,2,,,,,,,,,"(0.75, -0.04)",images/min4.png,3,0.0541045932332,0.740138362977,[-0.2484375  -0.11944444],,,,2018_Jun_30_1839,59.8616613233,sequenceLearningTask,001,121,
min1.png,min2.png,min3.png,min4.png,allBlank.png,,,,,,,,,,,,0,2,2,2,,,,,,,,,"(0.75, -0.04)",images/min4.png,3,0.0519413120346,0.843701397418,[ 0.8046875  -0.15277778],,,,2018_Jun_30_1839,59.8616613233,sequenceLearningTask,001,121,
min1.png,min2.png,min3.png,min4.png,allBlank.png,,,,,,,,,,,,0,2,2,2,,,,,,,,,"(-0.25, -0.04)",images/min2.png,3,0.0613095132867,0.663558291853,[ 0.671875   -0.20833333],,,,2018_Jun_30_1839,59.8616613233,sequenceLearningTask,001,121,
min1.png,min2.png,min3.png,min4.png,allBlank.png,,,,,,,,,,,,0,2,2,2,,,,,,,,,"(0.25, -0.04)",images/min3.png,3,0.0512701328844,0.472203703714,[-0.2609375  -0.14166667],,,,2018_Jun_30_1839,59.8616613233,sequenceLearningTask,001,121,
min1.png,min2.png,min3.png,min4.png,allBlank.png,,,,,,,,,,,,0,2,2,2,,,,,,,,,"(0.75, -0.04)",images/min4.png,3,0.0527901321184,0.543122238712,[ 0.23125    -0.11944444],,,,2018_Jun_30_1839,59.8616613233,sequenceLearningTask,001,121,
min1.png,min2.png,min3.png,min4.png,allBlank.png,,,,,,,,,,,,0,3,3,3,,,,,,,,,"(-0.75, -0.04)",images/min1.png,4,0.0523827477591,0.755564818159,[ 0.6546875  -0.14722222],,,,2018_Jun_30_1839,59.8616613233,sequenceLearningTask,001,121,
min1.png,min2.png,min3.png,min4.png,allBlank.png,,,,,,,,,,,,0,3,3,3,,,,,,,,,"(0.25, -0.04)",images/min3.png,4,0.0538235676941,0.503864408704,[-0.8390625  -0.06944444],,,,2018_Jun_30_1839,59.8616613233,sequenceLearningTask,001,121,
min1.png,min2.png,min3.png,min4.png,allBlank.png,,,,,,,,,,,,0,3,3,3,,,,,,,,,"(-0.25, -0.04)",images/min2.png,4,0.0547113622306,0.635284662363,[ 0.309375   -0.06944444],,,,2018_Jun_30_1839,59.8616613233,sequenceLearningTask,001,121,
min1.png,min2.png,min3.png,min4.png,allBlank.png,,,,,,,,,,,,0,3,3,3,,,,,,,,,"(0.75, -0.04)",images/min4.png,4,0.0566022332059,0.987140928395,[-0.35       -0.24166667],,,,2018_Jun_30_1839,59.8616613233,sequenceLearningTask,001,121,
min1.png,min2.png,min3.png,min4.png,allBlank.png,,,,,,,,,,,,0,3,3,3,,,,,,,,,"(0.75, -0.04)",images/min4.png,4,0.0578965916065,0.718471500091,[ 0.6609375  -0.15277778],,,,2018_Jun_30_1839,59.8616613233,sequenceLearningTask,001,121,
min1.png,min2.png,min3.png,min4.png,allBlank.png,,,,,,,,,,,,0,3,3,3,,,,,,,,,"(-0.25, -0.04)",images/min2.png,4,0.0547852083109,0.654699628823,[ 0.7421875  -0.06388889],,,,2018_Jun_30_1839,59.8616613233,sequenceLearningTask,001,121,
min1.png,min2.png,min3.png,min4.png,allBlank.png,,,,,,,,,,,,0,3,3,3,,,,,,,,,"(0.25, -0.04)",images/min3.png,4,0.0572180277668,0.612341082073,[-0.240625   -0.08333333],,,,2018_Jun_30_1839,59.8616613233,sequenceLearningTask,001,121,
min1.png,min2.png,min3.png,min4.png,allBlank.png,,,,,,,,,,,,0,3,3,3,,,,,,,,,"(0.75, -0.04)",images/min4.png,4,0.0582838734845,0.5649269477,[ 0.2984375  -0.13888889],,,,2018_Jun_30_1839,59.8616613233,sequenceLearningTask,001,121,
min1.png,min2.png,min3.png,min4.png,allBlank.png,,,,,,,,,,,,0,4,4,4,,,,,,,,,"(-0.75, -0.04)",images/min1.png,5,0.0593111551134,0.748917436344,[ 0.725      -0.24444444],,,,2018_Jun_30_1839,59.8616613233,sequenceLearningTask,001,121,
min1.png,min2.png,min3.png,min4.png,allBlank.png,,,,,,,,,,,,0,4,4,4,,,,,,,,,"(0.25, -0.04)",images/min3.png,5,0.0433546488639,0.847581190756,[-0.640625   -0.00833333],,,,2018_Jun_30_1839,59.8616613233,sequenceLearningTask,001,121,
min1.png,min2.png,min3.png,min4.png,allBlank.png,,,,,,,,,,,,0,4,4,4,,,,,,,,,"(-0.25, -0.04)",images/min2.png,5,0.0494633642957,0.659767113975,[ 0.3359375  -0.26111111],,,,2018_Jun_30_1839,59.8616613233,sequenceLearningTask,001,121,
min1.png,min2.png,min3.png,min4.png,allBlank.png,,,,,,,,,,,,0,4,4,4,,,,,,,,,"(0.75, -0.04)",images/min4.png,5,0.0620881796349,0.664129778743,[-0.2328125  -0.21388889],,,,2018_Jun_30_1839,59.8616613233,sequenceLearningTask,001,121,
min1.png,min2.png,min3.png,min4.png,allBlank.png,,,,,,,,,,,,0,4,4,4,,,,,,,,,"(0.75, -0.04)",images/min4.png,5,0.0556705412455,0.82393402094,[ 0.7265625  -0.08888889],,,,2018_Jun_30_1839,59.8616613233,sequenceLearningTask,001,121,
min1.png,min2.png,min3.png,min4.png,allBlank.png,,,,,,,,,,,,0,4,4,4,,,,,,,,,"(-0.25, -0.04)",images/min2.png,5,0.0541907469742,0.788117009914,[ 0.7        -0.27222222],,,,2018_Jun_30_1839,59.8616613233,sequenceLearningTask,001,121,
min1.png,min2.png,min3.png,min4.png,allBlank.png,,,,,,,,,,,,0,4,4,4,,,,,,,,,"(0.25, -0.04)",images/min3.png,5,0.0539257214405,0.707280119997,[-0.18125    -0.09166667],,,,2018_Jun_30_1839,59.8616613233,sequenceLearningTask,001,121,
min1.png,min2.png,min3.png,min4.png,allBlank.png,,,,,,,,,,,,0,4,4,4,,,,,,,,,"(0.75, -0.04)",images/min4.png,5,0.059900283115,0.783471268369,[ 0.2578125  -0.02222222],,,,2018_Jun_30_1839,59.8616613233,sequenceLearningTask,001,121,
min1.png,min2.png,min3.png,min4.png,allBlank.png,,,,,,,,,,,,0,5,5,5,,,,,,,,,"(-0.75, -0.04)",images/min1.png,6,0.0516327993246,0.757813842967,[ 0.7671875   0.08611111],,,,2018_Jun_30_1839,59.8616613233,sequenceLearningTask,001,121,
min1.png,min2.png,min3.png,min4.png,allBlank.png,,,,,,,,,,,,0,5,5,5,,,,,,,,,"(0.25, -0.04)",images/min3.png,6,0.0583043863298,0.687025769381,[-0.73125     0.00555556],,,,2018_Jun_30_1839,59.8616613233,sequenceLearningTask,001,121,
min1.png,min2.png,min3.png,min4.png,allBlank.png,,,,,,,,,,,,0,5,5,5,,,,,,,,,"(-0.25, -0.04)",images/min2.png,6,0.0519893120509,0.910896857036,[ 0.23125    -0.06666667],,,,2018_Jun_30_1839,59.8616613233,sequenceLearningTask,001,121,
min1.png,min2.png,min3.png,min4.png,allBlank.png,,,,,,,,,,,,0,5,5,5,,,,,,,,,"(0.75, -0.04)",images/min4.png,6,0.0686773051275,0.789072086569,[-0.2578125   0.17777778],0.53699383093,1,,2018_Jun_30_1839,59.8616613233,sequenceLearningTask,001,121,
min1.png,min2.png,min3.png,min4.png,allBlank.png,,,,,,,,,,,,0,5,5,5,,,,,,,,,"(0.75, -0.04)",images/min4.png,6,0.0620348462835,0.762256918009,[ 0.4        -0.16944444],0.529220705968,1,,2018_Jun_30_1839,59.8616613233,sequenceLearningTask,001,121,
min1.png,min2.png,min3.png,min4.png,allBlank.png,,,,,,,,,,,,0,5,5,5,,,,,,,,,"(-0.25, -0.04)",images/min2.png,6,0.0533878755523,0.571825816645,[ 0.6296875  -0.21388889],,,,2018_Jun_30_1839,59.8616613233,sequenceLearningTask,001,121,
min1.png,min2.png,min3.png,min4.png,allBlank.png,,,,,,,,,,,,0,5,5,5,,,,,,,,,"(0.25, -0.04)",images/min3.png,6,0.0559142334387,0.585609605885,[-0.2734375  -0.04722222],,,,2018_Jun_30_1839,59.8616613233,sequenceLearningTask,001,121,
min1.png,min2.png,min3.png,min4.png,allBlank.png,,,,,,,,,,,,0,5,5,5,,,,,,,,,"(0.75, -0.04)",images/min4.png,6,0.0625706410501,0.629119741963,[ 0.2640625  -0.13888889],,,,2018_Jun_30_1839,59.8616613233,sequenceLearningTask,001,121,
min1.png,min2.png,min3.png,min4.png,allBlank.png,,,,,,,,,,,,0,6,6,6,,,,,,,,,"(-0.75, -0.04)",images/min1.png,7,0.0531683884328,0.733485237579,[ 0.765625   -0.13611111],,,,2018_Jun_30_1839,59.8616613233,sequenceLearningTask,001,121,
min1.png,min2.png,min3.png,min4.png,allBlank.png,,,,,,,,,,,,0,6,6,6,,,,,,,,,"(0.25, -0.04)",images/min3.png,7,0.053673824179,0.656903525349,[-0.7140625  -0.00833333],,,,2018_Jun_30_1839,59.8616613233,sequenceLearningTask,001,121,
min1.png,min2.png,min3.png,min4.png,allBlank.png,,,,,,,,,,,,0,6,6,6,,,,,,,,,"(-0.25, -0.04)",images/min2.png,7,0.0454313659575,0.731449135812,[ 0.2453125  -0.14166667],,,,2018_Jun_30_1839,59.8616613233,sequenceLearningTask,001,121,
min1.png,min2.png,min3.png,min4.png,allBlank.png,,,,,,,,,,,,0,6,6,6,,,,,,,,,"(0.75, -0.04)",images/min4.png,7,0.0538449010346,0.706133864122,[-0.2328125  -0.10555556],,,,2018_Jun_30_1839,59.8616613233,sequenceLearningTask,001,121,
min1.png,min2.png,min3.png,min4.png,allBlank.png,,,,,,,,,,,,0,6,6,6,,,,,,,,,"(0.75, -0.04)",images/min4.png,7,0.0608192570508,0.596885908977,[ 0.63125    -0.26388889],,,,2018_Jun_30_1839,59.8616613233,sequenceLearningTask,001,121,
min1.png,min2.png,min3.png,min4.png,allBlank.png,,,,,,,,,,,,0,6,6,6,,,,,,,,,"(-0.25, -0.04)",images/min2.png,7,0.0608967954759,0.696274996386,[ 0.759375 -0.275   ],,,,2018_Jun_30_1839,59.8616613233,sequenceLearningTask,001,121,
min1.png,min2.png,min3.png,min4.png,allBlank.png,,,,,,,,,,,,0,6,6,6,,,,,,,,,"(0.25, -0.04)",images/min3.png,7,0.0522522863466,0.568606946152,[-0.2453125  -0.13055556],,,,2018_Jun_30_1839,59.8616613233,sequenceLearningTask,001,121,
min1.png,min2.png,min3.png,min4.png,allBlank.png,,,,,,,,,,,,0,6,6,6,,,,,,,,,"(0.75, -0.04)",images/min4.png,7,0.0556627464248,0.570250842953,[ 0.25625    -0.28888889],,,,2018_Jun_30_1839,59.8616613233,sequenceLearningTask,001,121,
min1.png,min2.png,min3.png,min4.png,allBlank.png,,,,,,,,,,,,0,7,7,7,,,,,,,,,"(-0.75, -0.04)",images/min1.png,8,0.0563778229989,0.698844431317,[ 0.659375   -0.18055556],,,,2018_Jun_30_1839,59.8616613233,sequenceLearningTask,001,121,
min1.png,min2.png,min3.png,min4.png,allBlank.png,,,,,,,,,,,,0,7,7,7,,,,,,,,,"(0.25, -0.04)",images/min3.png,8,0.0531811064575,0.53833126626,[-0.6578125  -0.10833333],,,,2018_Jun_30_1839,59.8616613233,sequenceLearningTask,001,121,
min1.png,min2.png,min3.png,min4.png,allBlank.png,,,,,,,,,,,,0,7,7,7,,,,,,,,,"(-0.25, -0.04)",images/min2.png,8,0.0521074658027,0.522723067552,[ 0.28125    -0.27222222],,,,2018_Jun_30_1839,59.8616613233,sequenceLearningTask,001,121,
min1.png,min2.png,min3.png,min4.png,allBlank.png,,,,,,,,,,,,0,7,7,7,,,,,,,,,"(0.75, -0.04)",images/min4.png,8,0.0537698240951,0.605663751485,[-0.1953125  -0.33055556],,,,2018_Jun_30_1839,59.8616613233,sequenceLearningTask,001,121,
min1.png,min2.png,min3.png,min4.png,allBlank.png,,,,,,,,,,,,0,7,7,7,,,,,,,,,"(0.75, -0.04)",images/min4.png,8,0.0723975087749,0.738814876415,[ 0.7375     -0.08055556],,,,2018_Jun_30_1839,59.8616613233,sequenceLearningTask,001,121,
min1.png,min2.png,min3.png,min4.png,allBlank.png,,,,,,,,,,,,0,7,7,7,,,,,,,,,"(-0.25, -0.04)",images/min2.png,8,0.0526096194517,0.635036867694,[ 0.740625   -0.34166667],,,,2018_Jun_30_1839,59.8616613233,sequenceLearningTask,001,121,
min1.png,min2.png,min3.png,min4.png,allBlank.png,,,,,,,,,,,,0,7,7,7,,,,,,,,,"(0.25, -0.04)",images/min3.png,8,0.0626674614614,0.629752357025,[-0.2453125  -0.06944444],,,,2018_Jun_30_1839,59.8616613233,sequenceLearningTask,001,121,
min1.png,min2.png,min3.png,min4.png,allBlank.png,,,,,,,,,,,,0,7,7,7,,,,,,,,,"(0.75, -0.04)",images/min4.png,8,0.0522629529005,0.605737597565,[ 0.1875     -0.06388889],,,,2018_Jun_30_1839,59.8616613233,sequenceLearningTask,001,121,
min1.png,min2.png,min3.png,min4.png,allBlank.png,,,,,,,,,,,,0,8,8,8,,,,,,,,,"(-0.75, -0.04)",images/min1.png,9,0.0541903367266,0.687154589919,[ 0.7        -0.09444444],,,,2018_Jun_30_1839,59.8616613233,sequenceLearningTask,001,121,
min1.png,min2.png,min3.png,min4.png,allBlank.png,,,,,,,,,,,,0,8,8,8,,,,,,,,,"(0.25, -0.04)",images/min3.png,9,0.0577862326754,0.636071533896,[-0.759375   -0.01111111],,,,2018_Jun_30_1839,59.8616613233,sequenceLearningTask,001,121,
min1.png,min2.png,min3.png,min4.png,allBlank.png,,,,,,,,,,,,0,8,8,8,,,,,,,,,"(-0.25, -0.04)",images/min2.png,9,0.0667171007954,0.62746887072,[ 0.2171875  -0.09722222],,,,2018_Jun_30_1839,59.8616613233,sequenceLearningTask,001,121,
min1.png,min2.png,min3.png,min4.png,allBlank.png,,,,,,,,,,,,0,8,8,8,,,,,,,,,"(0.75, -0.04)",images/min4.png,9,0.0696106380783,0.724903497496,[-0.2921875  -0.01388889],,,,2018_Jun_30_1839,59.8616613233,sequenceLearningTask,001,121,
min1.png,min2.png,min3.png,min4.png,allBlank.png,,,,,,,,,,,,0,8,8,8,,,,,,,,,"(0.75, -0.04)",images/min4.png,9,0.0939433460589,0.664549060748,[ 0.7328125  -0.15833333],,,,2018_Jun_30_1839,59.8616613233,sequenceLearningTask,001,121,
min1.png,min2.png,min3.png,min4.png,allBlank.png,,,,,,,,,,,,0,8,8,8,,,,,,,,,"(-0.25, -0.04)",images/min2.png,9,0.0588188477559,0.75221425551,[ 0.7140625  -0.19722222],,,,2018_Jun_30_1839,59.8616613233,sequenceLearningTask,001,121,
min1.png,min2.png,min3.png,min4.png,allBlank.png,,,,,,,,,,,,0,8,8,8,,,,,,,,,"(0.25, -0.04)",images/min3.png,9,0.0478830572683,0.513826661045,[-0.259375   -0.08055556],,,,2018_Jun_30_1839,59.8616613233,sequenceLearningTask,001,121,
min1.png,min2.png,min3.png,min4.png,allBlank.png,,,,,,,,,,,,0,8,8,8,,,,,,,,,"(0.75, -0.04)",images/min4.png,9,0.0592836679425,0.484613544773,[ 0.2734375  -0.19444444],,,,2018_Jun_30_1839,59.8616613233,sequenceLearningTask,001,121,
min1.png,min2.png,min3.png,min4.png,allBlank.png,,,,,,,,,,,,0,9,9,9,,,,,,,,,"(-0.75, -0.04)",images/min1.png,10,0.0628414100502,0.71214616939,[ 0.7140625  -0.26944444],,,,2018_Jun_30_1839,59.8616613233,sequenceLearningTask,001,121,
min1.png,min2.png,min3.png,min4.png,allBlank.png,,,,,,,,,,,,0,9,9,9,,,,,,,,,"(0.25, -0.04)",images/min3.png,10,0.0588295143098,0.717344526201,[-0.696875   -0.06111111],,,,2018_Jun_30_1839,59.8616613233,sequenceLearningTask,001,121,
min1.png,min2.png,min3.png,min4.png,allBlank.png,,,,,,,,,,,,0,9,9,9,,,,,,,,,"(-0.25, -0.04)",images/min2.png,10,0.0574325917987,0.722626985633,[ 0.296875   -0.19444444],,,,2018_Jun_30_1839,59.8616613233,sequenceLearningTask,001,121,
min1.png,min2.png,min3.png,min4.png,allBlank.png,,,,,,,,,,,,0,9,9,9,,,,,,,,,"(0.75, -0.04)",images/min4.png,10,0.0553464387776,0.569214535761,[-0.2234375   0.00833333],,,,2018_Jun_30_1839,59.8616613233,sequenceLearningTask,001,121,
min1.png,min2.png,min3.png,min4.png,allBlank.png,,,,,,,,,,,,0,9,9,9,,,,,,,,,"(0.75, -0.04)",images/min4.png,10,0.0525964911794,0.741879490553,[ 0.7015625  -0.14722222],,,,2018_Jun_30_1839,59.8616613233,sequenceLearningTask,001,121,
min1.png,min2.png,min3.png,min4.png,allBlank.png,,,,,,,,,,,,0,9,9,9,,,,,,,,,"(-0.25, -0.04)",images/min2.png,10,0.0520180298481,0.810571975191,[ 0.6953125  -0.15277778],,,,2018_Jun_30_1839,59.8616613233,sequenceLearningTask,001,121,
min1.png,min2.png,min3.png,min4.png,allBlank.png,,,,,,,,,,,,0,9,9,9,,,,,,,,,"(0.25, -0.04)",images/min3.png,10,0.0615667438833,0.613280979218,[-0.2859375  -0.19722222],,,,2018_Jun_30_1839,59.8616613233,sequenceLearningTask,001,121,
min1.png,min2.png,min3.png,min4.png,allBlank.png,,,,,,,,,,,,0,9,9,9,,,,,,,,,"(0.75, -0.04)",images/min4.png,10,0.0580758735305,0.820774637628,[ 0.25625    -0.11666667],,,,2018_Jun_30_1839,59.8616613233,sequenceLearningTask,001,121,
min1.png,min2.png,min3.png,min4.png,allBlank.png,,,,,,,,,,,,0,0,0,0,,,,,,,,,"(-0.75, -0.04)",images/min1.png,1,0.0392890095245,0.785937318578,[ 0.2484375  -0.51388889],0.131352561526,1,,2018_Jun_30_1839,59.8616613233,sequenceLearningTask,001,121,
min1.png,min2.png,min3.png,min4.png,allBlank.png,,,,,,,,,,,,0,0,0,0,,,,,,,,,"(0.25, -0.04)",images/min3.png,1,0.0622506411746,0.511528815841,[-0.7203125   0.03888889],,,,2018_Jun_30_1839,59.8616613233,sequenceLearningTask,001,121,
min1.png,min2.png,min3.png,min4.png,allBlank.png,,,,,,,,,,,,0,0,0,0,,,,,,,,,"(-0.25, -0.04)",images/min2.png,1,0.0585324887652,0.493572720559,[ 0.3359375  -0.08055556],,,,2018_Jun_30_1839,59.8616613233,sequenceLearningTask,001,121,
min1.png,min2.png,min3.png,min4.png,allBlank.png,,,,,,,,,,,,0,0,0,0,,,,,,,,,"(0.75, -0.04)",images/min4.png,1,0.05431382393,0.571938226931,[-0.265625   -0.14444444],,,,2018_Jun_30_1839,59.8616613233,sequenceLearningTask,001,121,
min1.png,min2.png,min3.png,min4.png,allBlank.png,,,,,,,,,,,,0,0,0,0,,,,,,,,,"(0.75, -0.04)",images/min4.png,1,0.0598297190154,0.613947645645,[ 0.7640625  -0.07222222],,,,2018_Jun_30_1839,59.8616613233,sequenceLearningTask,001,121,
min1.png,min2.png,min3.png,min4.png,allBlank.png,,,,,,,,,,,,0,0,0,0,,,,,,,,,"(-0.25, -0.04)",images/min2.png,1,0.0518079787726,0.472809241968,[ 0.76875    -0.03055556],,,,2018_Jun_30_1839,59.8616613233,sequenceLearningTask,001,121,
min1.png,min2.png,min3.png,min4.png,allBlank.png,,,,,,,,,,,,0,0,0,0,,,,,,,,,"(0.25, -0.04)",images/min3.png,1,0.0543101315852,0.505286356783,[-0.1859375 -0.075    ],,,,2018_Jun_30_1839,59.8616613233,sequenceLearningTask,001,121,
min1.png,min2.png,min3.png,min4.png,allBlank.png,,,,,,,,,,,,0,0,0,0,,,,,,,,,"(0.75, -0.04)",images/min4.png,1,0.0602658215212,1.31681176741,[ 0.3578125  -0.18055556],,,,2018_Jun_30_1839,59.8616613233,sequenceLearningTask,001,121,
min1.png,min2.png,min3.png,min4.png,allBlank.png,,,,,,,,,,,,0,1,1,1,,,,,,,,,"(-0.75, -0.04)",images/min1.png,2,0.0523035682272,0.670955211855,[ 0.7421875  -0.06944444],,,,2018_Jun_30_1839,59.8616613233,sequenceLearningTask,001,121,
min1.png,min2.png,min3.png,min4.png,allBlank.png,,,,,,,,,,,,0,1,1,1,,,,,,,,,"(0.25, -0.04)",images/min3.png,2,0.061227051774,0.56198664126,[-0.5890625  -0.10277778],,,,2018_Jun_30_1839,59.8616613233,sequenceLearningTask,001,121,
min1.png,min2.png,min3.png,min4.png,allBlank.png,,,,,,,,,,,,0,1,1,1,,,,,,,,,"(-0.25, -0.04)",images/min2.png,2,0.0593780268682,0.731951289461,[ 0.31875    -0.11388889],,,,2018_Jun_30_1839,59.8616613233,sequenceLearningTask,001,121,
min1.png,min2.png,min3.png,min4.png,allBlank.png,,,,,,,,,,,,0,1,1,1,,,,,,,,,"(0.75, -0.04)",images/min4.png,2,0.0556430540746,0.65368219337,[-0.2515625   0.00833333],,,,2018_Jun_30_1839,59.8616613233,sequenceLearningTask,001,121,
min1.png,min2.png,min3.png,min4.png,allBlank.png,,,,,,,,,,,,0,1,1,1,,,,,,,,,"(0.75, -0.04)",images/min4.png,2,0.0581230530515,0.60081452271,[ 0.753125   -0.06388889],,,,2018_Jun_30_1839,59.8616613233,sequenceLearningTask,001,121,
min1.png,min2.png,min3.png,min4.png,allBlank.png,,,,,,,,,,,,0,1,1,1,,,,,,,,,"(-0.25, -0.04)",images/min2.png,2,0.0549763877643,0.670684032491,[ 0.7515625  -0.14166667],,,,2018_Jun_30_1839,59.8616613233,sequenceLearningTask,001,121,
min1.png,min2.png,min3.png,min4.png,allBlank.png,,,,,,,,,,,,0,1,1,1,,,,,,,,,"(0.25, -0.04)",images/min3.png,2,0.0585308477748,0.582684478955,[-0.1765625  -0.06944444],,,,2018_Jun_30_1839,59.8616613233,sequenceLearningTask,001,121,
min1.png,min2.png,min3.png,min4.png,allBlank.png,,,,,,,,,,,,0,1,1,1,,,,,,,,,"(0.75, -0.04)",images/min4.png,2,0.0581948480103,0.53143937164,[ 0.3296875  -0.11388889],,,,2018_Jun_30_1839,59.8616613233,sequenceLearningTask,001,121,
min1.png,min2.png,min3.png,min4.png,allBlank.png,,,,,,,,,,,,0,2,2,2,,,,,,,,,"(-0.75, -0.04)",images/min1.png,3,0.0563052077778,0.494975796901,[ 0.721875   -0.05555556],,,,2018_Jun_30_1839,59.8616613233,sequenceLearningTask,001,121,
min1.png,min2.png,min3.png,min4.png,allBlank.png,,,,,,,,,,,,0,2,2,2,,,,,,,,,"(0.25, -0.04)",images/min3.png,3,0.0555975156603,0.434714898583,[-0.6796875  -0.21944444],,,,2018_Jun_30_1839,59.8616613233,sequenceLearningTask,001,121,
min1.png,min2.png,min3.png,min4.png,allBlank.png,,,,,,,,,,,,0,2,2,2,,,,,,,,,"(-0.25, -0.04)",images/min2.png,3,0.0531946448609,0.767862659297,[ 0.19375 -0.175  ],0.451448840438,1,,2018_Jun_30_1839,59.8616613233,sequenceLearningTask,001,121,
min1.png,min2.png,min3.png,min4.png,allBlank.png,,,,,,,,,,,,0,2,2,2,,,,,,,,,"(0.75, -0.04)",images/min4.png,3,0.0544902341207,0.537573112757,[-0.240625   -0.08055556],,,,2018_Jun_30_1839,59.8616613233,sequenceLearningTask,001,121,
min1.png,min2.png,min3.png,min4.png,allBlank.png,,,,,,,,,,,,0,2,2,2,,,,,,,,,"(0.75, -0.04)",images/min4.png,3,0.0717398679117,0.552443670807,[ 0.7109375  -0.06944444],,,,2018_Jun_30_1839,59.8616613233,sequenceLearningTask,001,121,
min1.png,min2.png,min3.png,min4.png,allBlank.png,,,,,,,,,,,,0,2,2,2,,,,,,,,,"(-0.25, -0.04)",images/min2.png,3,0.055957720615,0.66600177798,[ 0.74375    -0.17777778],,,,2018_Jun_30_1839,59.8616613233,sequenceLearningTask,001,121,
min1.png,min2.png,min3.png,min4.png,allBlank.png,,,,,,,,,,,,0,2,2,2,,,,,,,,,"(0.25, -0.04)",images/min3.png,3,0.0588422323344,0.635411841795,[-0.2578125  -0.14166667],,,,2018_Jun_30_1839,59.8616613233,sequenceLearningTask,001,121,
min1.png,min2.png,min3.png,min4.png,allBlank.png,,,,,,,,,,,,0,2,2,2,,,,,,,,,"(0.75, -0.04)",images/min4.png,3,0.0562231563963,0.668196648941,[ 0.2546875  -0.00833333],,,,2018_Jun_30_1839,59.8616613233,sequenceLearningTask,001,121,
min1.png,min2.png,min3.png,min4.png,allBlank.png,,,,,,,,,,,,0,3,3,3,,,,,,,,,"(-0.75, -0.04)",images/min1.png,4,0.0527987475507,0.432116745738,[ 0.7671875  -0.14166667],,,,2018_Jun_30_1839,59.8616613233,sequenceLearningTask,001,121,
min1.png,min2.png,min3.png,min4.png,allBlank.png,,,,,,,,,,,,0,3,3,3,,,,,,,,,"(0.25, -0.04)",images/min3.png,4,0.0600061292062,0.614669696544,[-0.7234375  -0.05277778],,,,2018_Jun_30_1839,59.8616613233,sequenceLearningTask,001,121,
min1.png,min2.png,min3.png,min4.png,allBlank.png,,,,,,,,,,,,0,3,3,3,,,,,,,,,"(-0.25, -0.04)",images/min2.png,4,0.0551901311846,0.636593790143,[ 0.2671875  -0.14444444],,,,2018_Jun_30_1839,59.8616613233,sequenceLearningTask,001,121,
min1.png,min2.png,min3.png,min4.png,allBlank.png,,,,,,,,,,,,0,3,3,3,,,,,,,,,"(0.75, -0.04)",images/min4.png,4,0.0563109512441,0.699214892695,[-0.23125    -0.05833333],,,,2018_Jun_30_1839,59.8616613233,sequenceLearningTask,001,121,
min1.png,min2.png,min3.png,min4.png,allBlank.png,,,,,,,,,,,,0,3,3,3,,,,,,,,,"(0.75, -0.04)",images/min4.png,4,0.0509788509225,0.522788708564,[ 0.7359375  -0.08611111],,,,2018_Jun_30_1839,59.8616613233,sequenceLearningTask,001,121,
min1.png,min2.png,min3.png,min4.png,allBlank.png,,,,,,,,,,,,0,3,3,3,,,,,,,,,"(-0.25, -0.04)",images/min2.png,4,0.0541263368214,0.670024750754,[ 0.7140625 -0.15     ],,,,2018_Jun_30_1839,59.8616613233,sequenceLearningTask,001,121,
min1.png,min2.png,min3.png,min4.png,allBlank.png,,,,,,,,,,,,0,3,3,3,,,,,,,,,"(0.25, -0.04)",images/min3.png,4,0.0586026426172,0.634624560131,[-0.2671875  -0.13333333],,,,2018_Jun_30_1839,59.8616613233,sequenceLearningTask,001,121,
min1.png,min2.png,min3.png,min4.png,allBlank.png,,,,,,,,,,,,0,3,3,3,,,,,,,,,"(0.75, -0.04)",images/min4.png,4,0.048671159544,0.665899213986,[ 0.2359375  -0.11388889],,,,2018_Jun_30_1839,59.8616613233,sequenceLearningTask,001,121,
min1.png,min2.png,min3.png,min4.png,allBlank.png,,,,,,,,,,,,0,4,4,4,,,,,,,,,"(-0.75, -0.04)",images/min1.png,5,0.0541246957146,0.517963274615,[ 0.79375  0.     ],,,,2018_Jun_30_1839,59.8616613233,sequenceLearningTask,001,121,
min1.png,min2.png,min3.png,min4.png,allBlank.png,,,,,,,,,,,,0,4,4,4,,,,,,,,,"(0.25, -0.04)",images/min3.png,5,0.0658461267594,0.625875845784,[-0.73125    -0.13611111],,,,2018_Jun_30_1839,59.8616613233,sequenceLearningTask,001,121,
min1.png,min2.png,min3.png,min4.png,allBlank.png,,,,,,,,,,,,0,4,4,4,,,,,,,,,"(-0.25, -0.04)",images/min2.png,5,0.0561575153843,0.5680600747,[ 0.2234375  -0.10555556],,,,2018_Jun_30_1839,59.8616613233,sequenceLearningTask,001,121,
min1.png,min2.png,min3.png,min4.png,allBlank.png,,,,,,,,,,,,0,4,4,4,,,,,,,,,"(0.75, -0.04)",images/min4.png,5,0.0630309485132,0.594722627779,[-0.2671875  -0.05555556],,,,2018_Jun_30_1839,59.8616613233,sequenceLearningTask,001,121,
min1.png,min2.png,min3.png,min4.png,allBlank.png,,,,,,,,,,,,0,4,4,4,,,,,,,,,"(0.75, -0.04)",images/min4.png,5,0.0536836703541,0.722131806309,[ 0.7234375  -0.09166667],,,,2018_Jun_30_1839,59.8616613233,sequenceLearningTask,001,121,
min1.png,min2.png,min3.png,min4.png,allBlank.png,,,,,,,,,,,,0,4,4,4,,,,,,,,,"(-0.25, -0.04)",images/min2.png,5,0.0572393612238,0.75206246064,[ 0.75625    -0.19444444],,,,2018_Jun_30_1839,59.8616613233,sequenceLearningTask,001,121,
min1.png,min2.png,min3.png,min4.png,allBlank.png,,,,,,,,,,,,0,4,4,4,,,,,,,,,"(0.25, -0.04)",images/min3.png,5,0.0535995677346,0.502748511615,[-0.2109375  0.       ],,,,2018_Jun_30_1839,59.8616613233,sequenceLearningTask,001,121,
min1.png,min2.png,min3.png,min4.png,allBlank.png,,,,,,,,,,,,0,4,4,4,,,,,,,,,"(0.75, -0.04)",images/min4.png,5,0.0528709526407,0.471222781111,[ 0.24375    -0.16388889],,,,2018_Jun_30_1839,59.8616613233,sequenceLearningTask,001,121,
min1.png,min2.png,min3.png,min4.png,allBlank.png,,,,,,,,,,,,0,5,5,5,,,,,,,,,"(-0.75, -0.04)",images/min1.png,6,0.0599031549646,0.681207925663,[ 0.7734375  -0.21111111],,,,2018_Jun_30_1839,59.8616613233,sequenceLearningTask,001,121,
min1.png,min2.png,min3.png,min4.png,allBlank.png,,,,,,,,,,,,0,5,5,5,,,,,,,,,"(0.25, -0.04)",images/min3.png,6,0.0567880792078,0.580604479765,[-0.7109375  -0.06944444],,,,2018_Jun_30_1839,59.8616613233,sequenceLearningTask,001,121,
min1.png,min2.png,min3.png,min4.png,allBlank.png,,,,,,,,,,,,0,5,5,5,,,,,,,,,"(-0.25, -0.04)",images/min2.png,6,0.0432176232571,0.681686284486,[ 0.215625   -0.03055556],,,,2018_Jun_30_1839,59.8616613233,sequenceLearningTask,001,121,
min1.png,min2.png,min3.png,min4.png,allBlank.png,,,,,,,,,,,,0,5,5,5,,,,,,,,,"(0.75, -0.04)",images/min4.png,6,0.0499396718806,0.493700310355,[-0.2546875  -0.08888889],,,,2018_Jun_30_1839,59.8616613233,sequenceLearningTask,001,121,
min1.png,min2.png,min3.png,min4.png,allBlank.png,,,,,,,,,,,,0,5,5,5,,,,,,,,,"(0.75, -0.04)",images/min4.png,6,0.0545657211915,0.632280766265,[ 0.7453125  -0.19722222],,,,2018_Jun_30_1839,59.8616613233,sequenceLearningTask,001,121,
min1.png,min2.png,min3.png,min4.png,allBlank.png,,,,,,,,,,,,0,5,5,5,,,,,,,,,"(-0.25, -0.04)",images/min2.png,6,0.0593136167154,0.664762393921,[ 0.846875   -0.25833333],,,,2018_Jun_30_1839,59.8616613233,sequenceLearningTask,001,121,
min1.png,min2.png,min3.png,min4.png,allBlank.png,,,,,,,,,,,,0,5,5,5,,,,,,,,,"(0.25, -0.04)",images/min3.png,6,0.0650961783249,0.50904061168,[-0.1390625 -0.15     ],,,,2018_Jun_30_1839,59.8616613233,sequenceLearningTask,001,121,
min1.png,min2.png,min3.png,min4.png,allBlank.png,,,,,,,,,,,,0,5,5,5,,,,,,,,,"(0.75, -0.04)",images/min4.png,6,0.0540200803662,0.716721347068,[ 0.2796875  -0.11388889],,,,2018_Jun_30_1839,59.8616613233,sequenceLearningTask,001,121,
min1.png,min2.png,min3.png,min4.png,allBlank.png,,,,,,,,,,,,0,6,6,6,,,,,,,,,"(-0.75, -0.04)",images/min1.png,7,0.0523901323322,0.722181857564,[ 0.7796875  -0.31666667],,,,2018_Jun_30_1839,59.8616613233,sequenceLearningTask,001,121,
min1.png,min2.png,min3.png,min4.png,allBlank.png,,,,,,,,,,,,0,6,6,6,,,,,,,,,"(0.25, -0.04)",images/min3.png,7,0.0538087984314,0.673879518406,[-0.6921875  -0.08055556],,,,2018_Jun_30_1839,59.8616613233,sequenceLearningTask,001,121,
min1.png,min2.png,min3.png,min4.png,allBlank.png,,,,,,,,,,,,0,6,6,6,,,,,,,,,"(-0.25, -0.04)",images/min2.png,7,0.05953843717,0.631765074097,[ 0.2609375  -0.19166667],,,,2018_Jun_30_1839,59.8616613233,sequenceLearningTask,001,121,
min1.png,min2.png,min3.png,min4.png,allBlank.png,,,,,,,,,,,,0,6,6,6,,,,,,,,,"(0.75, -0.04)",images/min4.png,7,0.054070541868,0.669423315092,[-0.1796875  -0.30555556],,,,2018_Jun_30_1839,59.8616613233,sequenceLearningTask,001,121,
min1.png,min2.png,min3.png,min4.png,allBlank.png,,,,,,,,,,,,0,6,6,6,,,,,,,,,"(0.75, -0.04)",images/min4.png,7,0.0606789494632,0.680932233459,[ 0.728125   -0.15277778],,,,2018_Jun_30_1839,59.8616613233,sequenceLearningTask,001,121,
min1.png,min2.png,min3.png,min4.png,allBlank.png,,,,,,,,,,,,0,6,6,6,,,,,,,,,"(-0.25, -0.04)",images/min2.png,7,0.0615925900638,0.681444643531,[ 0.7390625  -0.20555556],,,,2018_Jun_30_1839,59.8616613233,sequenceLearningTask,001,121,
min1.png,min2.png,min3.png,min4.png,allBlank.png,,,,,,,,,,,,0,6,6,6,,,,,,,,,"(0.25, -0.04)",images/min3.png,7,0.0565197716933,0.580307864468,[-0.1203125  -0.21944444],,,,2018_Jun_30_1839,59.8616613233,sequenceLearningTask,001,121,
min1.png,min2.png,min3.png,min4.png,allBlank.png,,,,,,,,,,,,0,6,6,6,,,,,,,,,"(0.75, -0.04)",images/min4.png,7,0.0593123859726,0.849550420651,[ 0.1578125  -0.35833333],,,,2018_Jun_30_1839,59.8616613233,sequenceLearningTask,001,121,
min1.png,min2.png,min3.png,min4.png,allBlank.png,,,,,,,,,,,,0,7,7,7,,,,,,,,,"(-0.75, -0.04)",images/min1.png,8,0.0525214143563,0.739084004425,[ 0.7640625  -0.06944444],,,,2018_Jun_30_1839,59.8616613233,sequenceLearningTask,001,121,
min1.png,min2.png,min3.png,min4.png,allBlank.png,,,,,,,,,,,,0,7,7,7,,,,,,,,,"(0.25, -0.04)",images/min3.png,8,0.0545493109385,0.639280968462,[-0.7296875  -0.00833333],,,,2018_Jun_30_1839,59.8616613233,sequenceLearningTask,001,121,
min1.png,min2.png,min3.png,min4.png,allBlank.png,,,,,,,,,,,,0,7,7,7,,,,,,,,,"(-0.25, -0.04)",images/min2.png,8,0.0623290000949,0.744619181729,[ 0.2640625  -0.05555556],,,,2018_Jun_30_1839,59.8616613233,sequenceLearningTask,001,121,
min1.png,min2.png,min3.png,min4.png,allBlank.png,,,,,,,,,,,,0,7,7,7,,,,,,,,,"(0.75, -0.04)",images/min4.png,8,0.0567630536389,0.769115992123,[-0.2203125  -0.06944444],,,,2018_Jun_30_1839,59.8616613233,sequenceLearningTask,001,121,
min1.png,min2.png,min3.png,min4.png,allBlank.png,,,,,,,,,,,,0,7,7,7,,,,,,,,,"(0.75, -0.04)",images/min4.png,8,0.0570785406744,0.784273729543,[ 0.7296875  -0.20555556],,,,2018_Jun_30_1839,59.8616613233,sequenceLearningTask,001,121,
min1.png,min2.png,min3.png,min4.png,allBlank.png,,,,,,,,,,,,0,7,7,7,,,,,,,,,"(-0.25, -0.04)",images/min2.png,8,0.0549649005989,0.702935506473,[ 0.7625     -0.26666667],,,,2018_Jun_30_1839,59.8616613233,sequenceLearningTask,001,121,
min1.png,min2.png,min3.png,min4.png,allBlank.png,,,,,,,,,,,,0,7,7,7,,,,,,,,,"(0.25, -0.04)",images/min3.png,8,0.0539971060352,0.583966529695,[-0.2609375  -0.01944444],,,,2018_Jun_30_1839,59.8616613233,sequenceLearningTask,001,121,
min1.png,min2.png,min3.png,min4.png,allBlank.png,,,,,,,,,,,,0,7,7,7,,,,,,,,,"(0.75, -0.04)",images/min4.png,8,0.0553189516068,0.769763376564,[ 0.24375    -0.00555556],,,,2018_Jun_30_1839,59.8616613233,sequenceLearningTask,001,121,
min1.png,min2.png,min3.png,min4.png,allBlank.png,,,,,,,,,,,,0,8,8,8,,,,,,,,,"(-0.75, -0.04)",images/min1.png,9,0.0546366955386,0.785809318651,[ 0.7359375  -0.18055556],,,,2018_Jun_30_1839,59.8616613233,sequenceLearningTask,001,121,
min1.png,min2.png,min3.png,min4.png,allBlank.png,,,,,,,,,,,,0,8,8,8,,,,,,,,,"(0.25, -0.04)",images/min3.png,9,0.0613755645463,0.679652233957,[-0.7046875  -0.05277778],,,,2018_Jun_30_1839,59.8616613233,sequenceLearningTask,001,121,
min1.png,min2.png,min3.png,min4.png,allBlank.png,,,,,,,,,,,,0,8,8,8,,,,,,,,,"(-0.25, -0.04)",images/min2.png,9,0.0554034644738,0.686071103206,[ 0.23125 -0.075  ],,,,2018_Jun_30_1839,59.8616613233,sequenceLearningTask,001,121,
min1.png,min2.png,min3.png,min4.png,allBlank.png,,,,,,,,,,,,0,8,8,8,,,,,,,,,"(0.75, -0.04)",images/min4.png,9,0.0597829498583,0.614924465772,[-0.175      -0.05277778],,,,2018_Jun_30_1839,59.8616613233,sequenceLearningTask,001,121,
min1.png,min2.png,min3.png,min4.png,allBlank.png,,,,,,,,,,,,0,8,8,8,,,,,,,,,"(0.75, -0.04)",images/min4.png,9,0.0530055166455,0.589384373627,[ 0.746875   -0.01111111],,,,2018_Jun_30_1839,59.8616613233,sequenceLearningTask,001,121,
min1.png,min2.png,min3.png,min4.png,allBlank.png,,,,,,,,,,,,0,8,8,8,,,,,,,,,"(-0.25, -0.04)",images/min2.png,9,0.0577505403198,0.733362981235,[ 0.746875   -0.28611111],,,,2018_Jun_30_1839,59.8616613233,sequenceLearningTask,001,121,
min1.png,min2.png,min3.png,min4.png,allBlank.png,,,,,,,,,,,,0,8,8,8,,,,,,,,,"(0.25, -0.04)",images/min3.png,9,0.060070949723,0.646055119578,[-0.1828125  -0.04722222],,,,2018_Jun_30_1839,59.8616613233,sequenceLearningTask,001,121,
min1.png,min2.png,min3.png,min4.png,allBlank.png,,,,,,,,,,,,0,8,8,8,,,,,,,,,"(0.75, -0.04)",images/min4.png,9,0.0534670549678,0.469678166322,[ 0.25       -0.14722222],,,,2018_Jun_30_1839,59.8616613233,sequenceLearningTask,001,121,
min1.png,min2.png,min3.png,min4.png,allBlank.png,,,,,,,,,,,,0,9,9,9,,,,,,,,,"(-0.75, -0.04)",images/min1.png,10,0.0508750560693,0.685494282865,[ 0.6828125  -0.05277778],,,,2018_Jun_30_1839,59.8616613233,sequenceLearningTask,001,121,
min1.png,min2.png,min3.png,min4.png,allBlank.png,,,,,,,,,,,,0,9,9,9,,,,,,,,,"(0.25, -0.04)",images/min3.png,10,0.0593694115523,0.565036075888,[-0.6609375  -0.03611111],,,,2018_Jun_30_1839,59.8616613233,sequenceLearningTask,001,121,
min1.png,min2.png,min3.png,min4.png,allBlank.png,,,,,,,,,,,,0,9,9,9,,,,,,,,,"(-0.25, -0.04)",images/min2.png,10,0.0568422331708,0.871037591482,[ 0.2296875  -0.00833333],0.199215097819,1,,2018_Jun_30_1839,59.8616613233,sequenceLearningTask,001,121,
min1.png,min2.png,min3.png,min4.png,allBlank.png,,,,,,,,,,,,0,9,9,9,,,,,,,,,"(0.75, -0.04)",images/min4.png,10,0.0537997727515,0.720361550688,[-0.209375   -0.05555556],,,,2018_Jun_30_1839,59.8616613233,sequenceLearningTask,001,121,
min1.png,min2.png,min3.png,min4.png,allBlank.png,,,,,,,,,,,,0,9,9,9,,,,,,,,,"(0.75, -0.04)",images/min4.png,10,0.0535240806639,0.659060652601,[ 0.7265625  -0.09166667],,,,2018_Jun_30_1839,59.8616613233,sequenceLearningTask,001,121,
min1.png,min2.png,min3.png,min4.png,allBlank.png,,,,,,,,,,,,0,9,9,9,,,,,,,,,"(-0.25, -0.04)",images/min2.png,10,0.0529809013242,0.571107457974,[ 0.709375   -0.15277778],,,,2018_Jun_30_1839,59.8616613233,sequenceLearningTask,001,121,
min1.png,min2.png,min3.png,min4.png,allBlank.png,,,,,,,,,,,,0,9,9,9,,,,,,,,,"(0.25, -0.04)",images/min3.png,10,0.0563868485624,0.480935187312,[-0.2078125  -0.02777778],,,,2018_Jun_30_1839,59.8616613233,sequenceLearningTask,001,121,
min1.png,min2.png,min3.png,min4.png,allBlank.png,,,,,,,,,,,,0,9,9,9,,,,,,,,,"(0.75, -0.04)",images/min4.png,10,0.0305431669112,0.631891843281,[ 0.209375   -0.24166667],,,,2018_Jun_30_1839,59.8616613233,sequenceLearningTask,001,121,
min1.png,min2.png,min3.png,min4.png,images/allBlank.png,"['num_7', 'num_4', 'num_1', 'num_0']",['num_4'],num_4,[2],'num_4',images/min2.png,"[(0.45, 0.79)]",,,,,0,-1,-1,0,0,0,0,1,,,,,"(-0.75, 0.04)",images/min1.png,1,0.0281152705429,503.787632497,[ 0.803125   -0.20277778],503.673499621,1,,2018_Jun_30_1839,59.8616613233,sequenceLearningTask,001,121,
min1.png,min2.png,min3.png,min4.png,images/allBlank.png,"['num_7', 'num_4', 'num_1', 'num_0']",['num_4'],num_4,[2],'num_4',images/min2.png,"[(0.45, 0.79)]",,,,,0,-1,-1,0,0,0,0,1,,,,,"(-0.25, 0.04)",images/min2.png,1,0.0779888910474,0.591603039415,[-0.29375    -0.13333333],,,,2018_Jun_30_1839,59.8616613233,sequenceLearningTask,001,121,
min1.png,min2.png,min3.png,min4.png,images/allBlank.png,"['num_7', 'num_4', 'num_1', 'num_0']",['num_4'],num_4,[2],'num_4',images/min2.png,"[(0.45, 0.79)]",,,,,0,-1,-1,0,0,0,0,1,,,,,"(0.25, 0.04)",images/min3.png,1,0.0571429509437,0.54611587862,[-0.2921875  -0.09166667],,,,2018_Jun_30_1839,59.8616613233,sequenceLearningTask,001,121,
min1.png,min2.png,min3.png,min4.png,images/allBlank.png,"['num_7', 'num_4', 'num_1', 'num_0']",['num_4'],num_4,[2],'num_4',images/min2.png,"[(0.45, 0.79)]",,,,,0,-1,-1,0,0,0,0,1,,,,,"(0.25, 0.04)",images/min3.png,1,0.0849357601255,0.506030151271,[ 0.3203125  -0.05833333],,,,2018_Jun_30_1839,59.8616613233,sequenceLearningTask,001,121,
min1.png,min2.png,min3.png,min4.png,images/allBlank.png,"['num_7', 'num_4', 'num_1', 'num_0']",['num_1'],num_1,[3],'num_1',images/min3.png,"[(0.45, 0.79)]",,,,,0,-1,-1,0,0,1,1,2,,,,,"(0.75, 0.04)",images/min4.png,2,0.0653948449763,0.568986433209,[ 0.321875   -0.11666667],,,,2018_Jun_30_1839,59.8616613233,sequenceLearningTask,001,121,
min1.png,min2.png,min3.png,min4.png,images/allBlank.png,"['num_7', 'num_4', 'num_1', 'num_0']",['num_1'],num_1,[3],'num_1',images/min3.png,"[(0.45, 0.79)]",,,,,0,-1,-1,0,0,1,1,2,,,,,"(-0.75, 0.04)",images/min1.png,2,0.0515909531387,0.623746615951,[ 0.7453125  -0.38611111],,,,2018_Jun_30_1839,59.8616613233,sequenceLearningTask,001,121,
min1.png,min2.png,min3.png,min4.png,images/allBlank.png,"['num_7', 'num_4', 'num_1', 'num_0']",['num_1'],num_1,[3],'num_1',images/min3.png,"[(0.45, 0.79)]",,,,,0,-1,-1,0,0,1,1,2,,,,,"(0.25, 0.04)",images/min3.png,2,0.0553706439678,0.513489020173,[-0.6953125  -0.09722222],,,,2018_Jun_30_1839,59.8616613233,sequenceLearningTask,001,121,
min1.png,min2.png,min3.png,min4.png,images/allBlank.png,"['num_7', 'num_4', 'num_1', 'num_0']",['num_1'],num_1,[3],'num_1',images/min3.png,"[(0.45, 0.79)]",,,,,0,-1,-1,0,0,1,1,2,,,,,"(-0.25, 0.04)",images/min2.png,2,0.0687921768986,0.654421885381,[ 0.15       -0.27222222],,,,2018_Jun_30_1839,59.8616613233,sequenceLearningTask,001,121,
min1.png,min2.png,min3.png,min4.png,images/allBlank.png,"['num_7', 'num_4', 'num_1', 'num_0']",['num_7'],num_7,[1],'num_7',images/min1.png,"[(0.45, 0.79)]",,,,,0,-1,-1,0,0,2,2,0,,,,,"(0.75, 0.04)",images/min4.png,3,0.0633091023192,0.509386047488,[-0.3109375  -0.13055556],,,,2018_Jun_30_1839,59.8616613233,sequenceLearningTask,001,121,
min1.png,min2.png,min3.png,min4.png,images/allBlank.png,"['num_7', 'num_4', 'num_1', 'num_0']",['num_7'],num_7,[1],'num_7',images/min1.png,"[(0.45, 0.79)]",,,,,0,-1,-1,0,0,2,2,0,,,,,"(-0.25, 0.04)",images/min2.png,3,0.0601886932272,0.513246558607,[ 0.7765625  -0.04722222],,,,2018_Jun_30_1839,59.8616613233,sequenceLearningTask,001,121,
min1.png,min2.png,min3.png,min4.png,images/allBlank.png,"['num_7', 'num_4', 'num_1', 'num_0']",['num_7'],num_7,[1],'num_7',images/min1.png,"[(0.45, 0.79)]",,,,,0,-1,-1,0,0,2,2,0,,,,,"(-0.75, 0.04)",images/min1.png,3,0.0590805911925,0.649959117873,[-0.2125     -0.01666667],,,,2018_Jun_30_1839,59.8616613233,sequenceLearningTask,001,121,
min1.png,min2.png,min3.png,min4.png,images/allBlank.png,"['num_7', 'num_4', 'num_1', 'num_0']",['num_7'],num_7,[1],'num_7',images/min1.png,"[(0.45, 0.79)]",,,,,0,-1,-1,0,0,2,2,0,,,,,"(0.75, 0.04)",images/min4.png,3,0.059482231969,0.665089778486,[-0.7546875  0.025    ],,,,2018_Jun_30_1839,59.8616613233,sequenceLearningTask,001,121,
min1.png,min2.png,min3.png,min4.png,images/allBlank.png,"['num_7', 'num_4', 'num_1', 'num_0']",['num_0'],num_0,[4],'num_0',images/min4.png,"[(0.45, 0.79)]",,,,,0,-1,-1,0,0,3,3,3,,,,,"(-0.25, 0.04)",images/min2.png,4,0.0573345405282,0.549528389936,[ 0.7296875  -0.20555556],,,,2018_Jun_30_1839,59.8616613233,sequenceLearningTask,001,121,
min1.png,min2.png,min3.png,min4.png,images/allBlank.png,"['num_7', 'num_4', 'num_1', 'num_0']",['num_0'],num_0,[4],'num_0',images/min4.png,"[(0.45, 0.79)]",,,,,0,-1,-1,0,0,3,3,3,,,,,"(0.75, 0.04)",images/min4.png,4,0.0570613099262,0.545833622222,[-0.2265625  -0.14722222],,,,2018_Jun_30_1839,59.8616613233,sequenceLearningTask,001,121,
min1.png,min2.png,min3.png,min4.png,images/allBlank.png,"['num_7', 'num_4', 'num_1', 'num_0']",['num_0'],num_0,[4],'num_0',images/min4.png,"[(0.45, 0.79)]",,,,,0,-1,-1,0,0,3,3,3,,,,,"(-0.25, 0.04)",images/min2.png,4,0.0695659202756,0.536363677355,[ 0.6015625  -0.16944444],,,,2018_Jun_30_1839,59.8616613233,sequenceLearningTask,001,121,
min1.png,min2.png,min3.png,min4.png,images/allBlank.png,"['num_7', 'num_4', 'num_1', 'num_0']",['num_0'],num_0,[4],'num_0',images/min4.png,"[(0.45, 0.79)]",,,,,0,-1,-1,0,0,3,3,3,,,,,"(0.75, 0.04)",images/min4.png,4,0.0622034616536,0.576527763507,[-0.23125 -0.175  ],,,,2018_Jun_30_1839,59.8616613233,sequenceLearningTask,001,121,
min1.png,min2.png,min3.png,min4.png,images/allBlank.png,"['num_7', 'num_4', 'num_1', 'num_0']",['num_0'],num_0,[4],'num_0',images/min4.png,"[(0.45, 0.79)]",,,,,0,-1,-1,0,1,0,4,3,,,,,"(-0.75, 0.04)",images/min1.png,5,0.0618641796755,0.712322989828,[ 0.7359375   0.03611111],,,,2018_Jun_30_1839,59.8616613233,sequenceLearningTask,001,121,
min1.png,min2.png,min3.png,min4.png,images/allBlank.png,"['num_7', 'num_4', 'num_1', 'num_0']",['num_0'],num_0,[4],'num_0',images/min4.png,"[(0.45, 0.79)]",,,,,0,-1,-1,0,1,0,4,3,,,,,"(0.25, 0.04)",images/min3.png,5,0.0622633590829,0.477539496496,[-0.8140625  -0.05833333],,,,2018_Jun_30_1839,59.8616613233,sequenceLearningTask,001,121,
min1.png,min2.png,min3.png,min4.png,images/allBlank.png,"['num_7', 'num_4', 'num_1', 'num_0']",['num_0'],num_0,[4],'num_0',images/min4.png,"[(0.45, 0.79)]",,,,,0,-1,-1,0,1,0,4,3,,,,,"(-0.25, 0.04)",images/min2.png,5,0.0661932035582,0.625580050983,[ 0.259375   -0.13055556],,,,2018_Jun_30_1839,59.8616613233,sequenceLearningTask,001,121,
min1.png,min2.png,min3.png,min4.png,images/allBlank.png,"['num_7', 'num_4', 'num_1', 'num_0']",['num_0'],num_0,[4],'num_0',images/min4.png,"[(0.45, 0.79)]",,,,,0,-1,-1,0,1,0,4,3,,,,,"(-0.25, 0.04)",images/min2.png,5,0.0619626411935,0.748599077575,[-0.3203125   0.01944444],,,,2018_Jun_30_1839,59.8616613233,sequenceLearningTask,001,121,
min1.png,min2.png,min3.png,min4.png,images/allBlank.png,"['num_7', 'num_4', 'num_1', 'num_0']",['num_1'],num_1,[3],'num_1',images/min3.png,"[(0.45, 0.79)]",,,,,0,-1,-1,0,1,1,5,2,,,,,"(-0.25, 0.04)",images/min2.png,6,0.0605300264433,0.644430094515,[-0.3328125  -0.07777778],,,,2018_Jun_30_1839,59.8616613233,sequenceLearningTask,001,121,
min1.png,min2.png,min3.png,min4.png,images/allBlank.png,"['num_7', 'num_4', 'num_1', 'num_0']",['num_1'],num_1,[3],'num_1',images/min3.png,"[(0.45, 0.79)]",,,,,0,-1,-1,0,1,1,5,2,,,,,"(-0.25, 0.04)",images/min2.png,6,0.0616208978463,0.667427828768,[-0.2703125  -0.08055556],,,,2018_Jun_30_1839,59.8616613233,sequenceLearningTask,001,121,
min1.png,min2.png,min3.png,min4.png,images/allBlank.png,"['num_7', 'num_4', 'num_1', 'num_0']",['num_1'],num_1,[3],'num_1',images/min3.png,"[(0.45, 0.79)]",,,,,0,-1,-1,0,1,1,5,2,,,,,"(0.25, 0.04)",images/min3.png,6,0.0583191555925,0.787358035916,[-0.2875      0.04166667],,,,2018_Jun_30_1839,59.8616613233,sequenceLearningTask,001,121,
min1.png,min2.png,min3.png,min4.png,images/allBlank.png,"['num_7', 'num_4', 'num_1', 'num_0']",['num_1'],num_1,[3],'num_1',images/min3.png,"[(0.45, 0.79)]",,,,,0,-1,-1,0,1,1,5,2,,,,,"(-0.25, 0.04)",images/min2.png,6,0.0515121839708,0.704746787786,[ 0.2109375  -0.16111111],,,,2018_Jun_30_1839,59.8616613233,sequenceLearningTask,001,121,
min1.png,min2.png,min3.png,min4.png,images/allBlank.png,"['num_7', 'num_4', 'num_1', 'num_0']",['num_7'],num_7,[1],'num_7',images/min1.png,"[(0.45, 0.79)]",,,,,0,-1,-1,0,1,2,6,0,,,,,"(-0.75, 0.04)",images/min1.png,7,0.0639696147991,0.740315183415,[-0.2546875  -0.16944444],,,,2018_Jun_30_1839,59.8616613233,sequenceLearningTask,001,121,
min1.png,min2.png,min3.png,min4.png,images/allBlank.png,"['num_7', 'num_4', 'num_1', 'num_0']",['num_7'],num_7,[1],'num_7',images/min1.png,"[(0.45, 0.79)]",,,,,0,-1,-1,0,1,2,6,0,,,,,"(-0.75, 0.04)",images/min1.png,7,0.0599593600491,0.71758903889,[-0.7078125  -0.01666667],,,,2018_Jun_30_1839,59.8616613233,sequenceLearningTask,001,121,
min1.png,min2.png,min3.png,min4.png,images/allBlank.png,"['num_7', 'num_4', 'num_1', 'num_0']",['num_7'],num_7,[1],'num_7',images/min1.png,"[(0.45, 0.79)]",,,,,0,-1,-1,0,1,2,6,0,,,,,"(0.25, 0.04)",images/min3.png,7,0.0598276677774,0.718451807857,[-0.7765625  -0.03055556],,,,2018_Jun_30_1839,59.8616613233,sequenceLearningTask,001,121,
min1.png,min2.png,min3.png,min4.png,images/allBlank.png,"['num_7', 'num_4', 'num_1', 'num_0']",['num_7'],num_7,[1],'num_7',images/min1.png,"[(0.45, 0.79)]",,,,,0,-1,-1,0,1,2,6,0,,,,,"(0.75, 0.04)",images/min4.png,7,0.0583392580738,0.628242614097,[ 0.2484375  -0.13055556],,,,2018_Jun_30_1839,59.8616613233,sequenceLearningTask,001,121,
min1.png,min2.png,min3.png,min4.png,images/allBlank.png,"['num_7', 'num_4', 'num_1', 'num_0']",['num_4'],num_4,[2],'num_4',images/min2.png,"[(0.45, 0.79)]",,,,,0,-1,-1,0,1,3,7,1,,,,,"(-0.25, 0.04)",images/min2.png,8,0.0727183291456,0.727573034936,[ 0.753125   -0.08611111],,,,2018_Jun_30_1839,59.8616613233,sequenceLearningTask,001,121,
min1.png,min2.png,min3.png,min4.png,images/allBlank.png,"['num_7', 'num_4', 'num_1', 'num_0']",['num_4'],num_4,[2],'num_4',images/min2.png,"[(0.45, 0.79)]",,,,,0,-1,-1,0,1,3,7,1,,,,,"(-0.25, 0.04)",images/min2.png,8,0.0633583329618,0.695330996881,[-0.228125   -0.05277778],,,,2018_Jun_30_1839,59.8616613233,sequenceLearningTask,001,121,
min1.png,min2.png,min3.png,min4.png,images/allBlank.png,"['num_7', 'num_4', 'num_1', 'num_0']",['num_4'],num_4,[2],'num_4',images/min2.png,"[(0.45, 0.79)]",,,,,0,-1,-1,0,1,3,7,1,,,,,"(0.75, 0.04)",images/min4.png,8,0.0691449972801,0.775495476671,[-0.2765625 -0.05     ],,,,2018_Jun_30_1839,59.8616613233,sequenceLearningTask,001,121,
min1.png,min2.png,min3.png,min4.png,images/allBlank.png,"['num_7', 'num_4', 'num_1', 'num_0']",['num_4'],num_4,[2],'num_4',images/min2.png,"[(0.45, 0.79)]",,,,,0,-1,-1,0,1,3,7,1,,,,,"(-0.25, 0.04)",images/min2.png,8,0.055280387518,0.715697757667,[ 0.7234375  -0.06111111],,,,2018_Jun_30_1839,59.8616613233,sequenceLearningTask,001,121,
min1.png,min2.png,min3.png,min4.png,images/allBlank.png,"['num_7', 'num_4', 'num_1', 'num_0']",['num_7'],num_7,[1],'num_7',images/min1.png,"[(0.45, 0.79)]",,,,,0,-1,-1,0,2,0,8,0,,,,,"(-0.25, 0.04)",images/min2.png,9,0.0640192558058,0.642585992813,[-0.278125    0.00833333],,,,2018_Jun_30_1839,59.8616613233,sequenceLearningTask,001,121,
min1.png,min2.png,min3.png,min4.png,images/allBlank.png,"['num_7', 'num_4', 'num_1', 'num_0']",['num_7'],num_7,[1],'num_7',images/min1.png,"[(0.45, 0.79)]",,,,,0,-1,-1,0,2,0,8,0,,,,,"(-0.25, 0.04)",images/min2.png,9,0.0586108476855,0.599374933634,[-0.1421875  -0.15555556],,,,2018_Jun_30_1839,59.8616613233,sequenceLearningTask,001,121,
min1.png,min2.png,min3.png,min4.png,images/allBlank.png,"['num_7', 'num_4', 'num_1', 'num_0']",['num_7'],num_7,[1],'num_7',images/min1.png,"[(0.45, 0.79)]",,,,,0,-1,-1,0,2,0,8,0,,,,,"(0.75, 0.04)",images/min4.png,9,0.0545107468497,0.60407688038,[-0.3203125  -0.10833333],,,,2018_Jun_30_1839,59.8616613233,sequenceLearningTask,001,121,
min1.png,min2.png,min3.png,min4.png,images/allBlank.png,"['num_7', 'num_4', 'num_1', 'num_0']",['num_7'],num_7,[1],'num_7',images/min1.png,"[(0.45, 0.79)]",,,,,0,-1,-1,0,2,0,8,0,,,,,"(-0.25, 0.04)",images/min2.png,9,0.0664155625273,2.64595665806,[ 0.7984375  -0.05555556],2.21020586253,1,,2018_Jun_30_1839,59.8616613233,sequenceLearningTask,001,121,
min1.png,min2.png,min3.png,min4.png,images/allBlank.png,"['num_7', 'num_4', 'num_1', 'num_0']",['num_1'],num_1,[3],'num_1',images/min3.png,"[(0.45, 0.79)]",,,,,0,-1,-1,0,2,1,9,2,,,,,"(-0.25, 0.04)",images/min2.png,10,0.0561743360013,0.702212634962,[-0.346875   -0.21944444],,,,2018_Jun_30_1839,59.8616613233,sequenceLearningTask,001,121,
min1.png,min2.png,min3.png,min4.png,images/allBlank.png,"['num_7', 'num_4', 'num_1', 'num_0']",['num_1'],num_1,[3],'num_1',images/min3.png,"[(0.45, 0.79)]",,,,,0,-1,-1,0,2,1,9,2,,,,,"(-0.75, 0.04)",images/min1.png,10,0.0564426435158,0.797593929223,[-0.2296875  -0.19166667],,,,2018_Jun_30_1839,59.8616613233,sequenceLearningTask,001,121,
min1.png,min2.png,min3.png,min4.png,images/allBlank.png,"['num_7', 'num_4', 'num_1', 'num_0']",['num_1'],num_1,[3],'num_1',images/min3.png,"[(0.45, 0.79)]",,,,,0,-1,-1,0,2,1,9,2,,,,,"(0.25, 0.04)",images/min3.png,10,0.0559544386342,0.563011461287,[-0.765625    0.04722222],,,,2018_Jun_30_1839,59.8616613233,sequenceLearningTask,001,121,
min1.png,min2.png,min3.png,min4.png,images/allBlank.png,"['num_7', 'num_4', 'num_1', 'num_0']",['num_1'],num_1,[3],'num_1',images/min3.png,"[(0.45, 0.79)]",,,,,0,-1,-1,0,2,1,9,2,,,,,"(-0.25, 0.04)",images/min2.png,10,0.0669365879148,2.46153375937,[ 0.2734375  -0.18333333],,,,2018_Jun_30_1839,59.8616613233,sequenceLearningTask,001,121,
min1.png,min2.png,min3.png,min4.png,images/allBlank.png,"['num_7', 'num_4', 'num_1', 'num_0']",['num_0'],num_0,[4],'num_0',images/min4.png,"[(0.45, 0.79)]",,,,,0,-1,-1,0,2,2,10,3,,,,,"(0.25, 0.04)",images/min3.png,11,0.0645702299662,2.35141811229,[-0.3328125   0.00833333],,,,2018_Jun_30_1839,59.8616613233,sequenceLearningTask,001,121,
min1.png,min2.png,min3.png,min4.png,images/allBlank.png,"['num_7', 'num_4', 'num_1', 'num_0']",['num_0'],num_0,[4],'num_0',images/min4.png,"[(0.45, 0.79)]",,,,,0,-1,-1,0,2,2,10,3,,,,,"(-0.25, 0.04)",images/min2.png,11,0.0600951549131,2.55849166831,[ 0.2859375  -0.12222222],,,,2018_Jun_30_1839,59.8616613233,sequenceLearningTask,001,121,
min1.png,min2.png,min3.png,min4.png,images/allBlank.png,"['num_7', 'num_4', 'num_1', 'num_0']",['num_0'],num_0,[4],'num_0',images/min4.png,"[(0.45, 0.79)]",,,,,0,-1,-1,0,2,2,10,3,,,,,"(0.75, 0.04)",images/min4.png,11,0.0512775173411,4.19031007576,[-0.14375    -0.06111111],,,,2018_Jun_30_1839,59.8616613233,sequenceLearningTask,001,121,
min1.png,min2.png,min3.png,min4.png,images/allBlank.png,"['num_7', 'num_4', 'num_1', 'num_0']",['num_0'],num_0,[4],'num_0',images/min4.png,"[(0.45, 0.79)]",,,,,0,-1,-1,0,2,2,10,3,,,,,"(0.75, 0.04)",images/min4.png,11,0.0579560787883,3.54661228857,[ 0.721875   -0.34166667],3.19233551074,1,,2018_Jun_30_1839,59.8616613233,sequenceLearningTask,001,121,
min1.png,min2.png,min3.png,min4.png,images/allBlank.png,"['num_7', 'num_4', 'num_1', 'num_0']",['num_4'],num_4,[2],'num_4',images/min2.png,"[(0.45, 0.79)]",,,,,0,-1,-1,0,2,3,11,1,,,,,"(0.75, 0.04)",images/min4.png,12,0.0696459201863,0.151416143053,[ 0.6515625  -0.10833333],,,,2018_Jun_30_1839,59.8616613233,sequenceLearningTask,001,121,
min1.png,min2.png,min3.png,min4.png,images/allBlank.png,"['num_7', 'num_4', 'num_1', 'num_0']",['num_4'],num_4,[2],'num_4',images/min2.png,"[(0.45, 0.79)]",,,,,0,-1,-1,0,2,3,11,1,,,,,"(0.25, 0.04)",images/min3.png,12,0.0664143316681,0.788635163568,[ 0.7140625  -0.00555556],0.389426711947,1,,2018_Jun_30_1839,59.8616613233,sequenceLearningTask,001,121,
min1.png,min2.png,min3.png,min4.png,images/allBlank.png,"['num_7', 'num_4', 'num_1', 'num_0']",['num_4'],num_4,[2],'num_4',images/min2.png,"[(0.45, 0.79)]",,,,,0,-1,-1,0,2,3,11,1,,,,,"(0.25, 0.04)",images/min3.png,12,0.0582645914983,0.215599501273,[ 0.28125 -0.075  ],,,,2018_Jun_30_1839,59.8616613233,sequenceLearningTask,001,121,
min1.png,min2.png,min3.png,min4.png,images/allBlank.png,"['num_7', 'num_4', 'num_1', 'num_0']",['num_4'],num_4,[2],'num_4',images/min2.png,"[(0.45, 0.79)]",,,,,0,-1,-1,0,2,3,11,1,,,,,"(0.75, 0.04)",images/min4.png,12,0.059970436967,0.681027002633,[ 0.2234375  -0.11388889],0.492963490076,1,,2018_Jun_30_1839,59.8616613233,sequenceLearningTask,001,121,
min1.png,min2.png,min3.png,min4.png,images/allBlank.png,"['num_7', 'num_4', 'num_1', 'num_0']",['num_0'],num_0,[4],'num_0',images/min4.png,"[(0.45, 0.79)]",,,,,0,-1,-1,0,3,0,12,3,,,,,"(0.25, 0.04)",images/min3.png,13,0.077993814135,0.72833611141,[ 0.0734375   0.06666667],0.426399414777,1,,2018_Jun_30_1839,59.8616613233,sequenceLearningTask,001,121,
min1.png,min2.png,min3.png,min4.png,images/allBlank.png,"['num_7', 'num_4', 'num_1', 'num_0']",['num_0'],num_0,[4],'num_0',images/min4.png,"[(0.45, 0.79)]",,,,,0,-1,-1,0,3,0,12,3,,,,,"(0.75, 0.04)",images/min4.png,13,0.062581717968,0.0,[-0.3546875  -0.09722222],,,1,2018_Jun_30_1839,59.8616613233,sequenceLearningTask,001,121,
min1.png,min2.png,min3.png,min4.png,images/allBlank.png,"['num_7', 'num_4', 'num_1', 'num_0']",['num_0'],num_0,[4],'num_0',images/min4.png,"[(0.45, 0.79)]",,,,,0,-1,-1,0,3,0,12,3,,,,,"(0.75, 0.04)",images/min4.png,13,0.0376898306422,0.152687116875,[ 0.559375    0.04444444],,,,2018_Jun_30_1839,59.8616613233,sequenceLearningTask,001,121,
min1.png,min2.png,min3.png,min4.png,images/allBlank.png,"['num_7', 'num_4', 'num_1', 'num_0']",['num_0'],num_0,[4],'num_0',images/min4.png,"[(0.45, 0.79)]",,,,,0,-1,-1,0,3,0,12,3,,,,,"(-0.75, 0.04)",images/min1.png,13,0.0565173102077,1.02065024793,[ 0.6859375   0.03611111],,,,2018_Jun_30_1839,59.8616613233,sequenceLearningTask,001,121,
min1.png,min2.png,min3.png,min4.png,images/allBlank.png,"['num_7', 'num_4', 'num_1', 'num_0']",['num_7'],num_7,[1],'num_7',images/min1.png,"[(0.45, 0.79)]",,,,,0,-1,-1,0,3,1,13,0,,,,,"(-0.25, 0.04)",images/min2.png,14,0.0717562781647,1.90480947495,[-0.640625  0.325   ],1.5667607931,1,,2018_Jun_30_1839,59.8616613233,sequenceLearningTask,001,121,
min1.png,min2.png,min3.png,min4.png,images/allBlank.png,"['num_7', 'num_4', 'num_1', 'num_0']",['num_7'],num_7,[1],'num_7',images/min1.png,"[(0.45, 0.79)]",,,,,0,-1,-1,0,3,1,13,0,,,,,"(-0.25, 0.04)",images/min2.png,14,0.0545718750218,0.637615328189,[-0.2109375  -0.00833333],,,,2018_Jun_30_1839,59.8616613233,sequenceLearningTask,001,121,
min1.png,min2.png,min3.png,min4.png,images/allBlank.png,"['num_7', 'num_4', 'num_1', 'num_0']",['num_7'],num_7,[1],'num_7',images/min1.png,"[(0.45, 0.79)]",,,,,0,-1,-1,0,3,1,13,0,,,,,"(0.75, 0.04)",images/min4.png,14,0.0587971040513,0.710114990827,[-0.2609375  -0.18611111],,,,2018_Jun_30_1839,59.8616613233,sequenceLearningTask,001,121,
min1.png,min2.png,min3.png,min4.png,images/allBlank.png,"['num_7', 'num_4', 'num_1', 'num_0']",['num_7'],num_7,[1],'num_7',images/min1.png,"[(0.45, 0.79)]",,,,,0,-1,-1,0,3,1,13,0,,,,,"(0.75, 0.04)",images/min4.png,14,0.0676766901743,0.846291755326,[ 0.7359375  -0.13611111],,,,2018_Jun_30_1839,59.8616613233,sequenceLearningTask,001,121,
min1.png,min2.png,min3.png,min4.png,images/allBlank.png,"['num_7', 'num_4', 'num_1', 'num_0']",['num_1'],num_1,[3],'num_1',images/min3.png,"[(0.45, 0.79)]",,,,,0,-1,-1,0,3,2,14,2,,,,,"(-0.25, 0.04)",images/min2.png,15,0.0736840723548,0.792935059289,[ 0.7421875  -0.05277778],,,,2018_Jun_30_1839,59.8616613233,sequenceLearningTask,001,121,
min1.png,min2.png,min3.png,min4.png,images/allBlank.png,"['num_7', 'num_4', 'num_1', 'num_0']",['num_1'],num_1,[3],'num_1',images/min3.png,"[(0.45, 0.79)]",,,,,0,-1,-1,0,3,2,14,2,,,,,"(0.75, 0.04)",images/min4.png,15,0.0560762847308,0.707010991988,[-0.2546875  -0.18611111],,,,2018_Jun_30_1839,59.8616613233,sequenceLearningTask,001,121,
min1.png,min2.png,min3.png,min4.png,images/allBlank.png,"['num_7', 'num_4', 'num_1', 'num_0']",['num_1'],num_1,[3],'num_1',images/min3.png,"[(0.45, 0.79)]",,,,,0,-1,-1,0,3,2,14,2,,,,,"(0.75, 0.04)",images/min4.png,15,0.0588471553056,0.688504332909,[ 0.7640625  -0.04166667],,,,2018_Jun_30_1839,59.8616613233,sequenceLearningTask,001,121,
min1.png,min2.png,min3.png,min4.png,images/allBlank.png,"['num_7', 'num_4', 'num_1', 'num_0']",['num_1'],num_1,[3],'num_1',images/min3.png,"[(0.45, 0.79)]",,,,,0,-1,-1,0,3,2,14,2,,,,,"(-0.25, 0.04)",images/min2.png,15,0.0615039748373,0.709241144941,[ 0.7515625  -0.09166667],,,,2018_Jun_30_1839,59.8616613233,sequenceLearningTask,001,121,
min1.png,min2.png,min3.png,min4.png,images/allBlank.png,"['num_7', 'num_4', 'num_1', 'num_0']",['num_4'],num_4,[2],'num_4',images/min2.png,"[(0.45, 0.79)]",,,,,0,-1,-1,0,3,3,15,1,,,,,"(0.75, 0.04)",images/min4.png,16,0.05375997792,0.62217369338,[-0.3015625  -0.01111111],,,,2018_Jun_30_1839,59.8616613233,sequenceLearningTask,001,121,
min1.png,min2.png,min3.png,min4.png,images/allBlank.png,"['num_7', 'num_4', 'num_1', 'num_0']",['num_4'],num_4,[2],'num_4',images/min2.png,"[(0.45, 0.79)]",,,,,0,-1,-1,0,3,3,15,1,,,,,"(-0.75, 0.04)",images/min1.png,16,0.0568434639135,0.662490394898,[ 0.6671875 -0.075    ],,,,2018_Jun_30_1839,59.8616613233,sequenceLearningTask,001,121,
min1.png,min2.png,min3.png,min4.png,images/allBlank.png,"['num_7', 'num_4', 'num_1', 'num_0']",['num_4'],num_4,[2],'num_4',images/min2.png,"[(0.45, 0.79)]",,,,,0,-1,-1,0,3,3,15,1,,,,,"(0.75, 0.04)",images/min4.png,16,0.0430949566653,0.543591982103,[-0.846875   -0.16388889],,,,2018_Jun_30_1839,59.8616613233,sequenceLearningTask,001,121,
min1.png,min2.png,min3.png,min4.png,images/allBlank.png,"['num_7', 'num_4', 'num_1', 'num_0']",['num_4'],num_4,[2],'num_4',images/min2.png,"[(0.45, 0.79)]",,,,,0,-1,-1,0,3,3,15,1,,,,,"(0.25, 0.04)",images/min3.png,16,0.0278806040296,0.861658313195,[ 0.7578125 -0.05     ],0.831202530768,1,,2018_Jun_30_1839,59.8616613233,sequenceLearningTask,001,121,
min1.png,min2.png,min3.png,min4.png,images/allBlank.png,"['num_7', 'num_4', 'num_1', 'num_0']",['num_1'],num_1,[3],'num_1',images/min3.png,"[(0.45, 0.79)]",,,,,0,-1,-1,0,4,0,16,2,,,,,"(-0.75, 0.04)",images/min1.png,17,0.0721374063287,4.34628621687,[ 0.3078125 -0.15     ],1.50164861465,1,,2018_Jun_30_1839,59.8616613233,sequenceLearningTask,001,121,
min1.png,min2.png,min3.png,min4.png,images/allBlank.png,"['num_7', 'num_4', 'num_1', 'num_0']",['num_1'],num_1,[3],'num_1',images/min3.png,"[(0.45, 0.79)]",,,,,0,-1,-1,0,4,0,16,2,,,,,"(0.75, 0.04)",images/min4.png,17,0.0305456285132,1.86200292839,[-0.7734375   0.00277778],,,,2018_Jun_30_1839,59.8616613233,sequenceLearningTask,001,121,
min1.png,min2.png,min3.png,min4.png,images/allBlank.png,"['num_7', 'num_4', 'num_1', 'num_0']",['num_1'],num_1,[3],'num_1',images/min3.png,"[(0.45, 0.79)]",,,,,0,-1,-1,0,4,0,16,2,,,,,"(-0.25, 0.04)",images/min2.png,17,0.0267843991751,5.03221290989,[ 0.80625     0.04166667],,,,2018_Jun_30_1839,59.8616613233,sequenceLearningTask,001,121,
min1.png,min2.png,min3.png,min4.png,images/allBlank.png,"['num_7', 'num_4', 'num_1', 'num_0']",['num_1'],num_1,[3],'num_1',images/min3.png,"[(0.45, 0.79)]",,,,,0,-1,-1,0,4,0,16,2,,,,,"(0.75, 0.04)",images/min4.png,17,0.0279175270116,2.0666633572,[-0.1484375 -0.325    ],,,,2018_Jun_30_1839,59.8616613233,sequenceLearningTask,001,121,
min1.png,min2.png,min3.png,min4.png,images/allBlank.png,"['num_7', 'num_4', 'num_1', 'num_0']",['num_0'],num_0,[4],'num_0',images/min4.png,"[(0.45, 0.79)]",,,,,0,-1,-1,0,4,1,17,3,,,,,"(0.75, 0.04)",images/min4.png,18,0.026912809466,3.76218266168,[ 0.7890625  -0.20555556],,,,2018_Jun_30_1839,59.8616613233,sequenceLearningTask,001,121,
min1.png,min2.png,min3.png,min4.png,images/allBlank.png,"['num_7', 'num_4', 'num_1', 'num_0']",['num_0'],num_0,[4],'num_0',images/min4.png,"[(0.45, 0.79)]",,,,,0,-1,-1,0,4,1,17,3,,,,,"(0.75, 0.04)",images/min4.png,18,0.0600073599489,1.18239664321,[ 0.759375    0.03611111],,,,2018_Jun_30_1839,59.8616613233,sequenceLearningTask,001,121,
min1.png,min2.png,min3.png,min4.png,images/allBlank.png,"['num_7', 'num_4', 'num_1', 'num_0']",['num_0'],num_0,[4],'num_0',images/min4.png,"[(0.45, 0.79)]",,,,,0,-1,-1,0,4,1,17,3,,,,,"(-0.25, 0.04)",images/min2.png,18,0.0663068445865,0.6399090708,[ 0.7921875  -0.07777778],,,,2018_Jun_30_1839,59.8616613233,sequenceLearningTask,001,121,
min1.png,min2.png,min3.png,min4.png,images/allBlank.png,"['num_7', 'num_4', 'num_1', 'num_0']",['num_0'],num_0,[4],'num_0',images/min4.png,"[(0.45, 0.79)]",,,,,0,-1,-1,0,4,1,17,3,,,,,"(-0.25, 0.04)",images/min2.png,18,0.0651240758598,1.32373279019,[-0.184375 -0.075   ],,,,2018_Jun_30_1839,59.8616613233,sequenceLearningTask,001,121,
min1.png,min2.png,min3.png,min4.png,images/allBlank.png,"['num_7', 'num_4', 'num_1', 'num_0']",['num_7'],num_7,[1],'num_7',images/min1.png,"[(0.45, 0.79)]",,,,,0,-1,-1,0,4,2,18,0,,,,,"(0.25, 0.04)",images/min3.png,19,0.0295544494875,0.422332544695,[-0.2078125  -0.19444444],,,,2018_Jun_30_1839,59.8616613233,sequenceLearningTask,001,121,
min1.png,min2.png,min3.png,min4.png,images/allBlank.png,"['num_7', 'num_4', 'num_1', 'num_0']",['num_7'],num_7,[1],'num_7',images/min1.png,"[(0.45, 0.79)]",,,,,0,-1,-1,0,4,2,18,0,,,,,"(-0.75, 0.04)",images/min1.png,19,0.0670838698279,2.88063184381,[ 0.2703125  -0.18611111],1.94421294599,1,,2018_Jun_30_1839,59.8616613233,sequenceLearningTask,001,121,
min1.png,min2.png,min3.png,min4.png,images/allBlank.png,"['num_7', 'num_4', 'num_1', 'num_0']",['num_7'],num_7,[1],'num_7',images/min1.png,"[(0.45, 0.79)]",,,,,0,-1,-1,0,4,2,18,0,,,,,"(-0.75, 0.04)",images/min1.png,19,0.056331463973,0.936496436363,[-0.8640625  -0.01388889],,,,2018_Jun_30_1839,59.8616613233,sequenceLearningTask,001,121,
min1.png,min2.png,min3.png,min4.png,images/allBlank.png,"['num_7', 'num_4', 'num_1', 'num_0']",['num_7'],num_7,[1],'num_7',images/min1.png,"[(0.45, 0.79)]",,,,,0,-1,-1,0,4,2,18,0,,,,,"(-0.75, 0.04)",images/min1.png,19,0.0552676696097,1.0547027468,[-0.7609375  -0.10833333],,,,2018_Jun_30_1839,59.8616613233,sequenceLearningTask,001,121,
min1.png,min2.png,min3.png,min4.png,images/allBlank.png,"['num_7', 'num_4', 'num_1', 'num_0']",['num_4'],num_4,[2],'num_4',images/min2.png,"[(0.45, 0.79)]",,,,,0,-1,-1,0,4,3,19,1,,,,,"(0.75, 0.04)",images/min4.png,20,0.0676192542305,0.655313372146,[-0.8078125  -0.01944444],,,,2018_Jun_30_1839,59.8616613233,sequenceLearningTask,001,121,
min1.png,min2.png,min3.png,min4.png,images/allBlank.png,"['num_7', 'num_4', 'num_1', 'num_0']",['num_4'],num_4,[2],'num_4',images/min2.png,"[(0.45, 0.79)]",,,,,0,-1,-1,0,4,3,19,1,,,,,"(-0.25, 0.04)",images/min2.png,20,0.0678424336948,0.887024456519,[ 0.6796875  -0.06388889],,,,2018_Jun_30_1839,59.8616613233,sequenceLearningTask,001,121,
min1.png,min2.png,min3.png,min4.png,images/allBlank.png,"['num_7', 'num_4', 'num_1', 'num_0']",['num_4'],num_4,[2],'num_4',images/min2.png,"[(0.45, 0.79)]",,,,,0,-1,-1,0,4,3,19,1,,,,,"(0.75, 0.04)",images/min4.png,20,0.0679064336,0.488573748269,[-0.178125    0.05277778],,,,2018_Jun_30_1839,59.8616613233,sequenceLearningTask,001,121,
min1.png,min2.png,min3.png,min4.png,images/allBlank.png,"['num_7', 'num_4', 'num_1', 'num_0']",['num_4'],num_4,[2],'num_4',images/min2.png,"[(0.45, 0.79)]",,,,,0,-1,-1,0,4,3,19,1,,,,,"(-0.25, 0.04)",images/min2.png,20,0.0593640782172,1.03239793552,[ 0.8625     -0.32222222],,,,2018_Jun_30_1839,59.8616613233,sequenceLearningTask,001,121,
min1.png,min2.png,min3.png,min4.png,allBlank.png,"['num_7', 'num_4', 'num_1', 'num_0']",['num_4'],num_4,[2],'num_4',images/min2.png,"[(0.45, 0.79)]",,,,,0,0,0,0,4,3,19,1,,,,,"(-0.75, -0.04)",images/min1.png,1,0.0579097197624,0.684451821726,[ 0.1015625  -0.09166667],,,,2018_Jun_30_1839,59.8616613233,sequenceLearningTask,001,121,
min1.png,min2.png,min3.png,min4.png,allBlank.png,"['num_7', 'num_4', 'num_1', 'num_0']",['num_4'],num_4,[2],'num_4',images/min2.png,"[(0.45, 0.79)]",,,,,0,0,0,0,4,3,19,1,,,,,"(0.25, -0.04)",images/min3.png,1,0.0651667424245,0.481217853841,[-0.7515625  -0.18611111],,,,2018_Jun_30_1839,59.8616613233,sequenceLearningTask,001,121,
min1.png,min2.png,min3.png,min4.png,allBlank.png,"['num_7', 'num_4', 'num_1', 'num_0']",['num_4'],num_4,[2],'num_4',images/min2.png,"[(0.45, 0.79)]",,,,,0,0,0,0,4,3,19,1,,,,,"(-0.25, -0.04)",images/min2.png,1,0.0621406923747,0.662948651123,[ 0.3125     -0.09722222],,,,2018_Jun_30_1839,59.8616613233,sequenceLearningTask,001,121,
min1.png,min2.png,min3.png,min4.png,allBlank.png,"['num_7', 'num_4', 'num_1', 'num_0']",['num_4'],num_4,[2],'num_4',images/min2.png,"[(0.45, 0.79)]",,,,,0,0,0,0,4,3,19,1,,,,,"(0.75, -0.04)",images/min4.png,1,0.0603240778437,0.513170661172,[-0.1734375  -0.05277778],,,,2018_Jun_30_1839,59.8616613233,sequenceLearningTask,001,121,
min1.png,min2.png,min3.png,min4.png,allBlank.png,"['num_7', 'num_4', 'num_1', 'num_0']",['num_4'],num_4,[2],'num_4',images/min2.png,"[(0.45, 0.79)]",,,,,0,0,0,0,4,3,19,1,,,,,"(0.75, -0.04)",images/min4.png,1,0.0512172097806,0.744448515121,[ 0.7421875   0.01944444],,,,2018_Jun_30_1839,59.8616613233,sequenceLearningTask,001,121,
min1.png,min2.png,min3.png,min4.png,allBlank.png,"['num_7', 'num_4', 'num_1', 'num_0']",['num_4'],num_4,[2],'num_4',images/min2.png,"[(0.45, 0.79)]",,,,,0,0,0,0,4,3,19,1,,,,,"(-0.25, -0.04)",images/min2.png,1,0.0610851031961,1.42798997823,[ 0.6671875 -0.25     ],,,,2018_Jun_30_1839,59.8616613233,sequenceLearningTask,001,121,
min1.png,min2.png,min3.png,min4.png,allBlank.png,"['num_7', 'num_4', 'num_1', 'num_0']",['num_4'],num_4,[2],'num_4',images/min2.png,"[(0.45, 0.79)]",,,,,0,0,0,0,4,3,19,1,,,,,"(0.25, -0.04)",images/min3.png,1,0.0627737179166,0.824278225889,[-0.246875   -0.06944444],,,,2018_Jun_30_1839,59.8616613233,sequenceLearningTask,001,121,
min1.png,min2.png,min3.png,min4.png,allBlank.png,"['num_7', 'num_4', 'num_1', 'num_0']",['num_4'],num_4,[2],'num_4',images/min2.png,"[(0.45, 0.79)]",,,,,0,0,0,0,4,3,19,1,,,,,"(0.75, -0.04)",images/min4.png,1,0.0533078755252,0.504350151983,[ 0.2515625  -0.20277778],,,,2018_Jun_30_1839,59.8616613233,sequenceLearningTask,001,121,
min1.png,min2.png,min3.png,min4.png,allBlank.png,"['num_7', 'num_4', 'num_1', 'num_0']",['num_4'],num_4,[2],'num_4',images/min2.png,"[(0.45, 0.79)]",,,,,0,1,1,1,4,3,19,1,,,,,"(-0.75, -0.04)",images/min1.png,2,0.0530842859298,0.5688695102,[ 0.771875   -0.13055556],,,,2018_Jun_30_1839,59.8616613233,sequenceLearningTask,001,121,
min1.png,min2.png,min3.png,min4.png,allBlank.png,"['num_7', 'num_4', 'num_1', 'num_0']",['num_4'],num_4,[2],'num_4',images/min2.png,"[(0.45, 0.79)]",,,,,0,1,1,1,4,3,19,1,,,,,"(0.25, -0.04)",images/min3.png,2,0.0608865391696,0.463705245638,[-0.6203125  -0.19722222],,,,2018_Jun_30_1839,59.8616613233,sequenceLearningTask,001,121,
min1.png,min2.png,min3.png,min4.png,allBlank.png,"['num_7', 'num_4', 'num_1', 'num_0']",['num_4'],num_4,[2],'num_4',images/min2.png,"[(0.45, 0.79)]",,,,,0,1,1,1,4,3,19,1,,,,,"(-0.25, -0.04)",images/min2.png,2,0.0586494117742,0.614969593822,[ 0.2171875 -0.175    ],,,,2018_Jun_30_1839,59.8616613233,sequenceLearningTask,001,121,
min1.png,min2.png,min3.png,min4.png,allBlank.png,"['num_7', 'num_4', 'num_1', 'num_0']",['num_4'],num_4,[2],'num_4',images/min2.png,"[(0.45, 0.79)]",,,,,0,1,1,1,4,3,19,1,,,,,"(0.75, -0.04)",images/min4.png,2,0.063361204695,0.607576776412,[-0.1859375  -0.09166667],,,,2018_Jun_30_1839,59.8616613233,sequenceLearningTask,001,121,
min1.png,min2.png,min3.png,min4.png,allBlank.png,"['num_7', 'num_4', 'num_1', 'num_0']",['num_4'],num_4,[2],'num_4',images/min2.png,"[(0.45, 0.79)]",,,,,0,1,1,1,4,3,19,1,,,,,"(0.75, -0.04)",images/min4.png,2,0.0578990532085,0.651448758319,[ 0.690625   -0.10833333],,,,2018_Jun_30_1839,59.8616613233,sequenceLearningTask,001,121,
min1.png,min2.png,min3.png,min4.png,allBlank.png,"['num_7', 'num_4', 'num_1', 'num_0']",['num_4'],num_4,[2],'num_4',images/min2.png,"[(0.45, 0.79)]",,,,,0,1,1,1,4,3,19,1,,,,,"(-0.25, -0.04)",images/min2.png,2,0.0609755647602,0.613222312531,[ 0.6953125  -0.19166667],,,,2018_Jun_30_1839,59.8616613233,sequenceLearningTask,001,121,
min1.png,min2.png,min3.png,min4.png,allBlank.png,"['num_7', 'num_4', 'num_1', 'num_0']",['num_4'],num_4,[2],'num_4',images/min2.png,"[(0.45, 0.79)]",,,,,0,1,1,1,4,3,19,1,,,,,"(0.25, -0.04)",images/min3.png,2,0.0546793622198,0.8386929892,[-0.16875    -0.01944444],,,,2018_Jun_30_1839,59.8616613233,sequenceLearningTask,001,121,
min1.png,min2.png,min3.png,min4.png,allBlank.png,"['num_7', 'num_4', 'num_1', 'num_0']",['num_4'],num_4,[2],'num_4',images/min2.png,"[(0.45, 0.79)]",,,,,0,1,1,1,4,3,19,1,,,,,"(0.75, -0.04)",images/min4.png,2,0.0520266453968,1.15978906269,[ 0.2640625  -0.14722222],0.202541455394,1,,2018_Jun_30_1839,59.8616613233,sequenceLearningTask,001,121,
min1.png,min2.png,min3.png,min4.png,allBlank.png,"['num_7', 'num_4', 'num_1', 'num_0']",['num_4'],num_4,[2],'num_4',images/min2.png,"[(0.45, 0.79)]",,,,,0,2,2,2,4,3,19,1,,,,,"(-0.75, -0.04)",images/min1.png,3,0.0563839768292,2.29209834174,[ 0.74375    -0.03888889],1.83357668365,1,,2018_Jun_30_1839,59.8616613233,sequenceLearningTask,001,121,
min1.png,min2.png,min3.png,min4.png,allBlank.png,"['num_7', 'num_4', 'num_1', 'num_0']",['num_4'],num_4,[2],'num_4',images/min2.png,"[(0.45, 0.79)]",,,,,0,2,2,2,4,3,19,1,,,,,"(0.25, -0.04)",images/min3.png,3,0.0534243882867,1.03520695993,[-0.7359375  -0.20555556],0.67435664637,1,,2018_Jun_30_1839,59.8616613233,sequenceLearningTask,001,121,
min1.png,min2.png,min3.png,min4.png,allBlank.png,"['num_7', 'num_4', 'num_1', 'num_0']",['num_4'],num_4,[2],'num_4',images/min2.png,"[(0.45, 0.79)]",,,,,0,2,2,2,4,3,19,1,,,,,"(-0.25, -0.04)",images/min2.png,3,0.0729677649215,0.667281777482,[ 0.2390625  -0.11388889],,,,2018_Jun_30_1839,59.8616613233,sequenceLearningTask,001,121,
min1.png,min2.png,min3.png,min4.png,allBlank.png,"['num_7', 'num_4', 'num_1', 'num_0']",['num_4'],num_4,[2],'num_4',images/min2.png,"[(0.45, 0.79)]",,,,,0,2,2,2,4,3,19,1,,,,,"(0.75, -0.04)",images/min4.png,3,0.0511917739641,0.605834418093,[-0.3015625   0.05555556],0.169569161255,1,,2018_Jun_30_1839,59.8616613233,sequenceLearningTask,001,121,
min1.png,min2.png,min3.png,min4.png,allBlank.png,"['num_7', 'num_4', 'num_1', 'num_0']",['num_4'],num_4,[2],'num_4',images/min2.png,"[(0.45, 0.79)]",,,,,0,2,2,2,4,3,19,1,,,,,"(0.75, -0.04)",images/min4.png,3,0.0253755793674,0.0275482964935,[ 0.796875   -0.30555556],,,,2018_Jun_30_1839,59.8616613233,sequenceLearningTask,001,121,
min1.png,min2.png,min3.png,min4.png,allBlank.png,"['num_7', 'num_4', 'num_1', 'num_0']",['num_4'],num_4,[2],'num_4',images/min2.png,"[(0.45, 0.79)]",,,,,0,2,2,2,4,3,19,1,,,,,"(-0.25, -0.04)",images/min2.png,3,0.025499476702,1.07176694495,[ 0.8125     -0.33055556],0.335550221265,1,,2018_Jun_30_1839,59.8616613233,sequenceLearningTask,001,121,
min1.png,min2.png,min3.png,min4.png,allBlank.png,"['num_7', 'num_4', 'num_1', 'num_0']",['num_4'],num_4,[2],'num_4',images/min2.png,"[(0.45, 0.79)]",,,,,0,2,2,2,4,3,19,1,,,,,"(0.25, -0.04)",images/min3.png,3,0.0612615132704,0.547537006205,[-0.315625    0.05555556],,,,2018_Jun_30_1839,59.8616613233,sequenceLearningTask,001,121,
min1.png,min2.png,min3.png,min4.png,allBlank.png,"['num_7', 'num_4', 'num_1', 'num_0']",['num_4'],num_4,[2],'num_4',images/min2.png,"[(0.45, 0.79)]",,,,,0,2,2,2,4,3,19,1,,,,,"(0.75, -0.04)",images/min4.png,3,0.0600598728051,0.668604853912,[ 0.290625   -0.23888889],,,,2018_Jun_30_1839,59.8616613233,sequenceLearningTask,001,121,
min1.png,min2.png,min3.png,min4.png,allBlank.png,"['num_7', 'num_4', 'num_1', 'num_0']",['num_4'],num_4,[2],'num_4',images/min2.png,"[(0.45, 0.79)]",,,,,0,3,3,3,4,3,19,1,,,,,"(-0.75, -0.04)",images/min1.png,4,0.0641661274713,0.555109515903,[ 0.7234375  -0.13333333],,,,2018_Jun_30_1839,59.8616613233,sequenceLearningTask,001,121,
min1.png,min2.png,min3.png,min4.png,allBlank.png,"['num_7', 'num_4', 'num_1', 'num_0']",['num_4'],num_4,[2],'num_4',images/min2.png,"[(0.45, 0.79)]",,,,,0,3,3,3,4,3,19,1,,,,,"(0.25, -0.04)",images/min3.png,4,0.0670133058447,0.251434153295,[-0.7078125  -0.03333333],0.189779614448,1,,2018_Jun_30_1839,59.8616613233,sequenceLearningTask,001,121,
min1.png,min2.png,min3.png,min4.png,allBlank.png,"['num_7', 'num_4', 'num_1', 'num_0']",['num_4'],num_4,[2],'num_4',images/min2.png,"[(0.45, 0.79)]",,,,,0,3,3,3,4,3,19,1,,,,,"(-0.25, -0.04)",images/min2.png,4,0.059015360428,0.818817715393,[ 0.234375   -0.08333333],,,,2018_Jun_30_1839,59.8616613233,sequenceLearningTask,001,121,
min1.png,min2.png,min3.png,min4.png,allBlank.png,"['num_7', 'num_4', 'num_1', 'num_0']",['num_4'],num_4,[2],'num_4',images/min2.png,"[(0.45, 0.79)]",,,,,0,3,3,3,4,3,19,1,,,,,"(0.75, -0.04)",images/min4.png,4,0.0571470534196,0.9526638143,[-0.1140625  -0.11944444],0.209754990879,1,,2018_Jun_30_1839,59.8616613233,sequenceLearningTask,001,121,
min1.png,min2.png,min3.png,min4.png,allBlank.png,"['num_7', 'num_4', 'num_1', 'num_0']",['num_4'],num_4,[2],'num_4',images/min2.png,"[(0.45, 0.79)]",,,,,0,3,3,3,4,3,19,1,,,,,"(0.75, -0.04)",images/min4.png,4,0.0675564850681,0.22520647163,[ 0.7046875  -0.26111111],,,,2018_Jun_30_1839,59.8616613233,sequenceLearningTask,001,121,
min1.png,min2.png,min3.png,min4.png,allBlank.png,"['num_7', 'num_4', 'num_1', 'num_0']",['num_4'],num_4,[2],'num_4',images/min2.png,"[(0.45, 0.79)]",,,,,0,3,3,3,4,3,19,1,,,,,"(-0.25, -0.04)",images/min2.png,4,0.0248578359606,1.42085357092,[ 0.7578125  -0.09166667],0.0277017322369,1,,2018_Jun_30_1839,59.8616613233,sequenceLearningTask,001,121,
min1.png,min2.png,min3.png,min4.png,allBlank.png,"['num_7', 'num_4', 'num_1', 'num_0']",['num_4'],num_4,[2],'num_4',images/min2.png,"[(0.45, 0.79)]",,,,,0,3,3,3,4,3,19,1,,,,,"(0.25, -0.04)",images/min3.png,4,0.0642190506915,0.679258798249,[-0.2484375  -0.11944444],,,,2018_Jun_30_1839,59.8616613233,sequenceLearningTask,001,121,
min1.png,min2.png,min3.png,min4.png,allBlank.png,"['num_7', 'num_4', 'num_1', 'num_0']",['num_4'],num_4,[2],'num_4',images/min2.png,"[(0.45, 0.79)]",,,,,0,3,3,3,4,3,19,1,,,,,"(0.75, -0.04)",images/min4.png,4,0.059549924219,3.69304833107,[ 0.3109375  -0.33611111],3.42481623602,1,,2018_Jun_30_1839,59.8616613233,sequenceLearningTask,001,121,
min1.png,min2.png,min3.png,min4.png,allBlank.png,"['num_7', 'num_4', 'num_1', 'num_0']",['num_4'],num_4,[2],'num_4',images/min2.png,"[(0.45, 0.79)]",,,,,0,4,4,4,4,3,19,1,,,,,"(-0.75, -0.04)",images/min1.png,5,0.0628446921473,10.7077515045,[ 0.6578125   0.24166667],,,,2018_Jun_30_1839,59.8616613233,sequenceLearningTask,001,121,
min1.png,min2.png,min3.png,min4.png,allBlank.png,"['num_7', 'num_4', 'num_1', 'num_0']",['num_4'],num_4,[2],'num_4',images/min2.png,"[(0.45, 0.79)]",,,,,0,4,4,4,4,3,19,1,,,,,"(0.25, -0.04)",images/min3.png,5,0.064104178804,4.24533446343,[-0.7296875  -0.00277778],,,,2018_Jun_30_1839,59.8616613233,sequenceLearningTask,001,121,
min1.png,min2.png,min3.png,min4.png,allBlank.png,"['num_7', 'num_4', 'num_1', 'num_0']",['num_4'],num_4,[2],'num_4',images/min2.png,"[(0.45, 0.79)]",,,,,0,4,4,4,4,3,19,1,,,,,"(-0.25, -0.04)",images/min2.png,5,0.0525390553521,11.4430418696,[ 0.3296875  -0.01666667],5.01022481627,1,,2018_Jun_30_1839,59.8616613233,sequenceLearningTask,001,121,
min1.png,min2.png,min3.png,min4.png,allBlank.png,"['num_7', 'num_4', 'num_1', 'num_0']",['num_4'],num_4,[2],'num_4',images/min2.png,"[(0.45, 0.79)]",,,,,0,4,4,4,4,3,19,1,,,,,"(0.75, -0.04)",images/min4.png,5,0.0526929014595,2.14841142623,[-0.2453125 -0.175    ],,,,2018_Jun_30_1839,59.8616613233,sequenceLearningTask,001,121,
min1.png,min2.png,min3.png,min4.png,allBlank.png,"['num_7', 'num_4', 'num_1', 'num_0']",['num_4'],num_4,[2],'num_4',images/min2.png,"[(0.45, 0.79)]",,,,,0,4,4,4,4,3,19,1,,,,,"(0.75, -0.04)",images/min4.png,5,0.0581505402224,0.888755738037,[ 0.7296875  -0.09722222],,,,2018_Jun_30_1839,59.8616613233,sequenceLearningTask,001,121,
min1.png,min2.png,min3.png,min4.png,allBlank.png,"['num_7', 'num_4', 'num_1', 'num_0']",['num_4'],num_4,[2],'num_4',images/min2.png,"[(0.45, 0.79)]",,,,,0,4,4,4,4,3,19,1,,,,,"(-0.25, -0.04)",images/min2.png,5,0.0768508402398,2.49038502958,[ 0.775      -0.10277778],,,,2018_Jun_30_1839,59.8616613233,sequenceLearningTask,001,121,
min1.png,min2.png,min3.png,min4.png,allBlank.png,"['num_7', 'num_4', 'num_1', 'num_0']",['num_4'],num_4,[2],'num_4',images/min2.png,"[(0.45, 0.79)]",,,,,0,4,4,4,4,3,19,1,,,,,"(0.25, -0.04)",images/min3.png,5,0.0619819232961,0.614950722083,[-0.2640625  -0.12222222],,,,2018_Jun_30_1839,59.8616613233,sequenceLearningTask,001,121,
min1.png,min2.png,min3.png,min4.png,allBlank.png,"['num_7', 'num_4', 'num_1', 'num_0']",['num_4'],num_4,[2],'num_4',images/min2.png,"[(0.45, 0.79)]",,,,,0,4,4,4,4,3,19,1,,,,,"(0.75, -0.04)",images/min4.png,5,0.057412899565,0.53032306442,[ 0.3546875  -0.06388889],,,,2018_Jun_30_1839,59.8616613233,sequenceLearningTask,001,121,
min1.png,min2.png,min3.png,min4.png,allBlank.png,"['num_7', 'num_4', 'num_1', 'num_0']",['num_4'],num_4,[2],'num_4',images/min2.png,"[(0.45, 0.79)]",,,,,0,5,5,5,4,3,19,1,,,,,"(-0.75, -0.04)",images/min1.png,6,0.0528664398007,0.740266362904,[ 0.7703125  -0.28888889],,,,2018_Jun_30_1839,59.8616613233,sequenceLearningTask,001,121,
min1.png,min2.png,min3.png,min4.png,allBlank.png,"['num_7', 'num_4', 'num_1', 'num_0']",['num_4'],num_4,[2],'num_4',images/min2.png,"[(0.45, 0.79)]",,,,,0,5,5,5,4,3,19,1,,,,,"(0.25, -0.04)",images/min3.png,6,0.0636426405981,1.22947764944,[-0.8703125  -0.33611111],0.66422495828,1,,2018_Jun_30_1839,59.8616613233,sequenceLearningTask,001,121,
min1.png,min2.png,min3.png,min4.png,allBlank.png,"['num_7', 'num_4', 'num_1', 'num_0']",['num_4'],num_4,[2],'num_4',images/min2.png,"[(0.45, 0.79)]",,,,,0,5,5,5,4,3,19,1,,,,,"(-0.25, -0.04)",images/min2.png,6,0.0520245940425,0.639486096683,[ 0.3578125 -0.05     ],,,,2018_Jun_30_1839,59.8616613233,sequenceLearningTask,001,121,
min1.png,min2.png,min3.png,min4.png,allBlank.png,"['num_7', 'num_4', 'num_1', 'num_0']",['num_4'],num_4,[2],'num_4',images/min2.png,"[(0.45, 0.79)]",,,,,0,5,5,5,4,3,19,1,,,,,"(0.75, -0.04)",images/min4.png,6,0.0569304381497,0.853898726637,[-0.359375   -0.13055556],,,,2018_Jun_30_1839,59.8616613233,sequenceLearningTask,001,121,
min1.png,min2.png,min3.png,min4.png,allBlank.png,"['num_7', 'num_4', 'num_1', 'num_0']",['num_4'],num_4,[2],'num_4',images/min2.png,"[(0.45, 0.79)]",,,,,0,5,5,5,4,3,19,1,,,,,"(0.75, -0.04)",images/min4.png,6,0.0571618226822,2.22726718883,[ 0.8109375  -0.06944444],,,,2018_Jun_30_1839,59.8616613233,sequenceLearningTask,001,121,
min1.png,min2.png,min3.png,min4.png,allBlank.png,"['num_7', 'num_4', 'num_1', 'num_0']",['num_4'],num_4,[2],'num_4',images/min2.png,"[(0.45, 0.79)]",,,,,0,5,5,5,4,3,19,1,,,,,"(-0.25, -0.04)",images/min2.png,6,0.065255768015,0.80983392417,[ 0.75       -0.00555556],,,,2018_Jun_30_1839,59.8616613233,sequenceLearningTask,001,121,
min1.png,min2.png,min3.png,min4.png,allBlank.png,"['num_7', 'num_4', 'num_1', 'num_0']",['num_4'],num_4,[2],'num_4',images/min2.png,"[(0.45, 0.79)]",,,,,0,5,5,5,4,3,19,1,,,,,"(0.25, -0.04)",images/min3.png,6,0.0563638742315,1.2402965168,[-0.225      -0.20277778],,,,2018_Jun_30_1839,59.8616613233,sequenceLearningTask,001,121,
min1.png,min2.png,min3.png,min4.png,allBlank.png,"['num_7', 'num_4', 'num_1', 'num_0']",['num_4'],num_4,[2],'num_4',images/min2.png,"[(0.45, 0.79)]",,,,,0,5,5,5,4,3,19,1,,,,,"(0.75, -0.04)",images/min4.png,6,0.0544935161015,0.923753467156,[ 0.2203125  -0.00833333],,,,2018_Jun_30_1839,59.8616613233,sequenceLearningTask,001,121,
min1.png,min2.png,min3.png,min4.png,allBlank.png,"['num_7', 'num_4', 'num_1', 'num_0']",['num_4'],num_4,[2],'num_4',images/min2.png,"[(0.45, 0.79)]",,,,,0,6,6,6,4,3,19,1,,,,,"(-0.75, -0.04)",images/min1.png,7,0.0248988616513,1.08250581229,[ 0.8046875  -0.06944444],0.0,1,,2018_Jun_30_1839,59.8616613233,sequenceLearningTask,001,121,
min1.png,min2.png,min3.png,min4.png,allBlank.png,"['num_7', 'num_4', 'num_1', 'num_0']",['num_4'],num_4,[2],'num_4',images/min2.png,"[(0.45, 0.79)]",,,,,0,6,6,6,4,3,19,1,,,,,"(0.25, -0.04)",images/min3.png,7,0.0585066427011,6.83007883886,[ 0.9953125   0.98611111],,,,2018_Jun_30_1839,59.8616613233,sequenceLearningTask,001,121,
min1.png,min2.png,min3.png,min4.png,allBlank.png,"['num_7', 'num_4', 'num_1', 'num_0']",['num_4'],num_4,[2],'num_4',images/min2.png,"[(0.45, 0.79)]",,,,,0,6,6,6,4,3,19,1,,,,,"(-0.25, -0.04)",images/min2.png,7,0.0412586497841,23.1719777755,[ 0.253125    0.20277778],13.5769006864,1,,2018_Jun_30_1839,59.8616613233,sequenceLearningTask,001,121,
min1.png,min2.png,min3.png,min4.png,allBlank.png,"['num_7', 'num_4', 'num_1', 'num_0']",['num_4'],num_4,[2],'num_4',images/min2.png,"[(0.45, 0.79)]",,,,,0,6,6,6,4,3,19,1,,,,,"(0.75, -0.04)",images/min4.png,7,0.0512545431266,1.1615121389,[-0.1421875  -0.02222222],,,,2018_Jun_30_1839,59.8616613233,sequenceLearningTask,001,121,
min1.png,min2.png,min3.png,min4.png,allBlank.png,"['num_7', 'num_4', 'num_1', 'num_0']",['num_4'],num_4,[2],'num_4',images/min2.png,"[(0.45, 0.79)]",,,,,0,6,6,6,4,3,19,1,,,,,"(0.75, -0.04)",images/min4.png,7,0.0515314659569,0.0,[ 0.721875   -0.03611111],,,1,2018_Jun_30_1839,59.8616613233,sequenceLearningTask,001,121,
min1.png,min2.png,min3.png,min4.png,allBlank.png,"['num_7', 'num_4', 'num_1', 'num_0']",['num_4'],num_4,[2],'num_4',images/min2.png,"[(0.45, 0.79)]",,,,,0,6,6,6,4,3,19,1,,,,,"(-0.25, -0.04)",images/min2.png,7,0.0396192658227,0.468794474378,[ 0.7015625  -0.01111111],,,,2018_Jun_30_1839,59.8616613233,sequenceLearningTask,001,121,
min1.png,min2.png,min3.png,min4.png,allBlank.png,"['num_7', 'num_4', 'num_1', 'num_0']",['num_4'],num_4,[2],'num_4',images/min2.png,"[(0.45, 0.79)]",,,,,0,6,6,6,4,3,19,1,,,,,"(0.25, -0.04)",images/min3.png,7,0.0532939268742,0.670900647761,[-0.2828125  -0.04166667],,,,2018_Jun_30_1839,59.8616613233,sequenceLearningTask,001,121,
min1.png,min2.png,min3.png,min4.png,allBlank.png,"['num_7', 'num_4', 'num_1', 'num_0']",['num_4'],num_4,[2],'num_4',images/min2.png,"[(0.45, 0.79)]",,,,,0,6,6,6,4,3,19,1,,,,,"(0.75, -0.04)",images/min4.png,7,0.0762830455787,0.849133190117,[ 0.134375    0.23055556],,,,2018_Jun_30_1839,59.8616613233,sequenceLearningTask,001,121,
min1.png,min2.png,min3.png,min4.png,allBlank.png,"['num_7', 'num_4', 'num_1', 'num_0']",['num_4'],num_4,[2],'num_4',images/min2.png,"[(0.45, 0.79)]",,,,,0,7,7,7,4,3,19,1,,,,,"(-0.75, -0.04)",images/min1.png,8,0.065967972856,1.52689291199,[ 0.5265625  0.325    ],1.30497751583,1,,2018_Jun_30_1839,59.8616613233,sequenceLearningTask,001,121,
min1.png,min2.png,min3.png,min4.png,allBlank.png,"['num_7', 'num_4', 'num_1', 'num_0']",['num_4'],num_4,[2],'num_4',images/min2.png,"[(0.45, 0.79)]",,,,,0,7,7,7,4,3,19,1,,,,,"(0.25, -0.04)",images/min3.png,8,0.0610018210718,1.29891762102,[-0.86875     0.00277778],,,,2018_Jun_30_1839,59.8616613233,sequenceLearningTask,001,121,
min1.png,min2.png,min3.png,min4.png,allBlank.png,"['num_7', 'num_4', 'num_1', 'num_0']",['num_4'],num_4,[2],'num_4',images/min2.png,"[(0.45, 0.79)]",,,,,0,7,7,7,4,3,19,1,,,,,"(-0.25, -0.04)",images/min2.png,8,0.0534055165481,0.624019846553,[ 0.325       0.11111111],,,,2018_Jun_30_1839,59.8616613233,sequenceLearningTask,001,121,
min1.png,min2.png,min3.png,min4.png,allBlank.png,"['num_7', 'num_4', 'num_1', 'num_0']",['num_4'],num_4,[2],'num_4',images/min2.png,"[(0.45, 0.79)]",,,,,0,7,7,7,4,3,19,1,,,,,"(0.75, -0.04)",images/min4.png,8,0.0613977184985,1.12056733505,[-0.296875   -0.00833333],,,,2018_Jun_30_1839,59.8616613233,sequenceLearningTask,001,121,
min1.png,min2.png,min3.png,min4.png,allBlank.png,"['num_7', 'num_4', 'num_1', 'num_0']",['num_4'],num_4,[2],'num_4',images/min2.png,"[(0.45, 0.79)]",,,,,0,7,7,7,4,3,19,1,,,,,"(0.75, -0.04)",images/min4.png,8,0.0546309519559,0.689762178576,[ 0.7703125   0.08055556],,,,2018_Jun_30_1839,59.8616613233,sequenceLearningTask,001,121,
min1.png,min2.png,min3.png,min4.png,allBlank.png,"['num_7', 'num_4', 'num_1', 'num_0']",['num_4'],num_4,[2],'num_4',images/min2.png,"[(0.45, 0.79)]",,,,,0,7,7,7,4,3,19,1,,,,,"(-0.25, -0.04)",images/min2.png,8,0.0531589525053,0.772655272856,[ 0.7109375   0.00833333],,,,2018_Jun_30_1839,59.8616613233,sequenceLearningTask,001,121,
min1.png,min2.png,min3.png,min4.png,allBlank.png,"['num_7', 'num_4', 'num_1', 'num_0']",['num_4'],num_4,[2],'num_4',images/min2.png,"[(0.45, 0.79)]",,,,,0,7,7,7,4,3,19,1,,,,,"(0.25, -0.04)",images/min3.png,8,0.0515868505463,0.626095332787,[-0.1765625   0.13055556],,,,2018_Jun_30_1839,59.8616613233,sequenceLearningTask,001,121,
min1.png,min2.png,min3.png,min4.png,allBlank.png,"['num_7', 'num_4', 'num_1', 'num_0']",['num_4'],num_4,[2],'num_4',images/min2.png,"[(0.45, 0.79)]",,,,,0,7,7,7,4,3,19,1,,,,,"(0.75, -0.04)",images/min4.png,8,0.0550810029963,0.754937536432,[ 0.2671875   0.05833333],,,,2018_Jun_30_1839,59.8616613233,sequenceLearningTask,001,121,
min1.png,min2.png,min3.png,min4.png,allBlank.png,"['num_7', 'num_4', 'num_1', 'num_0']",['num_4'],num_4,[2],'num_4',images/min2.png,"[(0.45, 0.79)]",,,,,0,8,8,8,4,3,19,1,,,,,"(-0.75, -0.04)",images/min1.png,9,0.0549583365209,0.89859532367,[ 0.7453125  -0.07222222],0.656404653797,1,,2018_Jun_30_1839,59.8616613233,sequenceLearningTask,001,121,
min1.png,min2.png,min3.png,min4.png,allBlank.png,"['num_7', 'num_4', 'num_1', 'num_0']",['num_4'],num_4,[2],'num_4',images/min2.png,"[(0.45, 0.79)]",,,,,0,8,8,8,4,3,19,1,,,,,"(0.25, -0.04)",images/min3.png,9,0.0656611012528,0.309127668035,[-0.6640625  -0.10277778],,,,2018_Jun_30_1839,59.8616613233,sequenceLearningTask,001,121,
min1.png,min2.png,min3.png,min4.png,allBlank.png,"['num_7', 'num_4', 'num_1', 'num_0']",['num_4'],num_4,[2],'num_4',images/min2.png,"[(0.45, 0.79)]",,,,,0,8,8,8,4,3,19,1,,,,,"(-0.25, -0.04)",images/min2.png,9,0.03577188286,0.538950753165,[ 0.2265625   0.00277778],0.336251759436,1,,2018_Jun_30_1839,59.8616613233,sequenceLearningTask,001,121,
min1.png,min2.png,min3.png,min4.png,allBlank.png,"['num_7', 'num_4', 'num_1', 'num_0']",['num_4'],num_4,[2],'num_4',images/min2.png,"[(0.45, 0.79)]",,,,,0,8,8,8,4,3,19,1,,,,,"(0.75, -0.04)",images/min4.png,9,0.044957109727,0.770064914832,[-0.284375   -0.04722222],0.633042612113,1,,2018_Jun_30_1839,59.8616613233,sequenceLearningTask,001,121,
min1.png,min2.png,min3.png,min4.png,allBlank.png,"['num_7', 'num_4', 'num_1', 'num_0']",['num_4'],num_4,[2],'num_4',images/min2.png,"[(0.45, 0.79)]",,,,,0,8,8,8,4,3,19,1,,,,,"(0.75, -0.04)",images/min4.png,9,0.0698461252032,0.0703995608492,[ 0.7015625  -0.00277778],,,,2018_Jun_30_1839,59.8616613233,sequenceLearningTask,001,121,
min1.png,min2.png,min3.png,min4.png,allBlank.png,"['num_7', 'num_4', 'num_1', 'num_0']",['num_4'],num_4,[2],'num_4',images/min2.png,"[(0.45, 0.79)]",,,,,0,8,8,8,4,3,19,1,,,,,"(-0.25, -0.04)",images/min2.png,9,0.0500327999471,0.624628666905,[ 0.828125   -0.07222222],0.511584200431,1,,2018_Jun_30_1839,59.8616613233,sequenceLearningTask,001,121,
min1.png,min2.png,min3.png,min4.png,allBlank.png,"['num_7', 'num_4', 'num_1', 'num_0']",['num_4'],num_4,[2],'num_4',images/min2.png,"[(0.45, 0.79)]",,,,,0,8,8,8,4,3,19,1,,,,,"(0.25, -0.04)",images/min3.png,9,0.0526760809589,1.63087727968,[-0.29375    -0.10277778],0.232939801877,1,,2018_Jun_30_1839,59.8616613233,sequenceLearningTask,001,121,
min1.png,min2.png,min3.png,min4.png,allBlank.png,"['num_7', 'num_4', 'num_1', 'num_0']",['num_4'],num_4,[2],'num_4',images/min2.png,"[(0.45, 0.79)]",,,,,0,8,8,8,4,3,19,1,,,,,"(0.75, -0.04)",images/min4.png,9,0.0538522856077,1.04288695671,[ 0.2234375  -0.04166667],,,,2018_Jun_30_1839,59.8616613233,sequenceLearningTask,001,121,
min1.png,min2.png,min3.png,min4.png,allBlank.png,"['num_7', 'num_4', 'num_1', 'num_0']",['num_4'],num_4,[2],'num_4',images/min2.png,"[(0.45, 0.79)]",,,,,0,9,9,9,4,3,19,1,,,,,"(-0.75, -0.04)",images/min1.png,10,0.0522830554983,5.09244385944,[ 0.8265625  -0.05277778],,,,2018_Jun_30_1839,59.8616613233,sequenceLearningTask,001,121,
min1.png,min2.png,min3.png,min4.png,allBlank.png,"['num_7', 'num_4', 'num_1', 'num_0']",['num_4'],num_4,[2],'num_4',images/min2.png,"[(0.45, 0.79)]",,,,,0,9,9,9,4,3,19,1,,,,,"(0.25, -0.04)",images/min3.png,10,0.069184381864,0.668086700258,[-0.7609375  -0.15555556],,,,2018_Jun_30_1839,59.8616613233,sequenceLearningTask,001,121,
min1.png,min2.png,min3.png,min4.png,allBlank.png,"['num_7', 'num_4', 'num_1', 'num_0']",['num_4'],num_4,[2],'num_4',images/min2.png,"[(0.45, 0.79)]",,,,,0,9,9,9,4,3,19,1,,,,,"(-0.25, -0.04)",images/min2.png,10,0.0570473612752,1.77544501517,[ 0.2625  0.075 ],,,,2018_Jun_30_1839,59.8616613233,sequenceLearningTask,001,121,
min1.png,min2.png,min3.png,min4.png,allBlank.png,"['num_7', 'num_4', 'num_1', 'num_0']",['num_4'],num_4,[2],'num_4',images/min2.png,"[(0.45, 0.79)]",,,,,0,9,9,9,4,3,19,1,,,,,"(0.75, -0.04)",images/min4.png,10,0.0616200773511,0.531704807538,[-0.2578125  -0.05555556],,,,2018_Jun_30_1839,59.8616613233,sequenceLearningTask,001,121,
min1.png,min2.png,min3.png,min4.png,allBlank.png,"['num_7', 'num_4', 'num_1', 'num_0']",['num_4'],num_4,[2],'num_4',images/min2.png,"[(0.45, 0.79)]",,,,,0,9,9,9,4,3,19,1,,,,,"(0.75, -0.04)",images/min4.png,10,0.0651441783411,1.62636610202,[ 0.7640625 -0.05     ],,,,2018_Jun_30_1839,59.8616613233,sequenceLearningTask,001,121,
min1.png,min2.png,min3.png,min4.png,allBlank.png,"['num_7', 'num_4', 'num_1', 'num_0']",['num_4'],num_4,[2],'num_4',images/min2.png,"[(0.45, 0.79)]",,,,,0,9,9,9,4,3,19,1,,,,,"(-0.25, -0.04)",images/min2.png,10,0.0682834591717,0.603068470606,[ 0.6765625  -0.06666667],,,,2018_Jun_30_1839,59.8616613233,sequenceLearningTask,001,121,
min1.png,min2.png,min3.png,min4.png,allBlank.png,"['num_7', 'num_4', 'num_1', 'num_0']",['num_4'],num_4,[2],'num_4',images/min2.png,"[(0.45, 0.79)]",,,,,0,9,9,9,4,3,19,1,,,,,"(0.25, -0.04)",images/min3.png,10,0.0587006938877,0.511950148968,[-0.2984375  -0.05555556],,,,2018_Jun_30_1839,59.8616613233,sequenceLearningTask,001,121,
min1.png,min2.png,min3.png,min4.png,allBlank.png,"['num_7', 'num_4', 'num_1', 'num_0']",['num_4'],num_4,[2],'num_4',images/min2.png,"[(0.45, 0.79)]",,,,,0,9,9,9,4,3,19,1,,,,,"(0.75, -0.04)",images/min4.png,10,0.0562613102375,0.396633273223,[ 0.3859375  -0.29444444],,,,2018_Jun_30_1839,59.8616613233,sequenceLearningTask,001,121,
min1.png,min2.png,min3.png,min4.png,allBlank.png,"['num_7', 'num_4', 'num_1', 'num_0']",['num_4'],num_4,[2],'num_4',images/min2.png,"[(0.45, 0.79)]",,,,,0,9,9,9,4,3,19,1,0,-1,-1,0,,,,,,,,,,2018_Jun_30_1839,59.8616613233,sequenceLearningTask,001,121,
