pawPatrol1,pawPatrol2,pawPatrol3,pawPatrol4,blank,allowableKey,correctKey,correctKeyPressNum,posLoc,correctKeyPress,randomPaw,im_size,trials.thisRepN,trials.thisTrialN,trials.thisN,trials.thisIndex,trials_3.thisRepN,trials_3.thisTrialN,trials_3.thisN,trials_3.thisIndex,trials_2.thisRepN,trials_2.thisTrialN,trials_2.thisN,trials_2.thisIndex,trials_questions.thisRepN,trials_questions.thisTrialN,trials_questions.thisN,trials_questions.thisIndex,trials_test.thisRepN,trials_test.thisTrialN,trials_test.thisN,trials_test.thisIndex,trials_recogtest.thisRepN,trials_recogtest.thisTrialN,trials_recogtest.thisN,trials_recogtest.thisIndex,correctLocation,correctImage,repetitionNumber,responseTimeIncorrect,trialIncorrect,stimulusPresent.t,responseTimeCorrect,pressLoc,anticipatoryResponse,questionsResponses,AnswerFinished.keys,AnswerFinished.rt,RecordAnswer.keys,RecordAnswer.rt,correctKey,trialCorrect,recallResponse,recallResponseTime,date,frameRate,expName,session,participant,
min1.png,min2.png,min3.png,min4.png,allBlank.png,,,,,,,,,,,,0,0,0,0,,,,,,,,,,,,,,,,,"(-0.75, -0.04)",images/min1.png,1,0.80667035887,1,0.076987487264,2.57889928203,[ 0.1515625  -0.62222222],,,,,,,,,,,2018_Jun_16_1603,59.6397392392,sequenceLearningTask,001,127,
min1.png,min2.png,min3.png,min4.png,allBlank.png,,,,,,,,,,,,0,0,0,0,,,,,,,,,,,,,,,,,"(0.25, -0.04)",images/min3.png,1,,,0.0768246152438,0.60905969236,[-0.690625   -0.16944444],,,,,,,,,,,2018_Jun_16_1603,59.6397392392,sequenceLearningTask,001,127,
min1.png,min2.png,min3.png,min4.png,allBlank.png,,,,,,,,,,,,0,0,0,0,,,,,,,,,,,,,,,,,"(-0.25, -0.04)",images/min2.png,1,,,0.0774174360558,0.494471794926,[ 0.2515625  -0.24166667],,,,,,,,,,,2018_Jun_16_1603,59.6397392392,sequenceLearningTask,001,127,
min1.png,min2.png,min3.png,min4.png,allBlank.png,,,,,,,,,,,,0,0,0,0,,,,,,,,,,,,,,,,,"(0.75, -0.04)",images/min4.png,1,,,0.0867881025188,0.432170256274,[-0.2453125  -0.18888889],,,,,,,,,,,2018_Jun_16_1603,59.6397392392,sequenceLearningTask,001,127,
min1.png,min2.png,min3.png,min4.png,allBlank.png,,,,,,,,,,,,0,0,0,0,,,,,,,,,,,,,,,,,"(0.75, -0.04)",images/min4.png,1,,,0.0614445128012,0.51597497426,[ 0.778125   -0.20833333],,,,,,,,,,,2018_Jun_16_1603,59.6397392392,sequenceLearningTask,001,127,
min1.png,min2.png,min3.png,min4.png,allBlank.png,,,,,,,,,,,,0,0,0,0,,,,,,,,,,,,,,,,,"(-0.25, -0.04)",images/min2.png,1,,,0.0653415385168,0.511746461503,[ 0.7265625 -0.05     ],,,,,,,,,,,2018_Jun_16_1603,59.6397392392,sequenceLearningTask,001,127,
min1.png,min2.png,min3.png,min4.png,allBlank.png,,,,,,,,,,,,0,0,0,0,,,,,,,,,,,,,,,,,"(0.25, -0.04)",images/min3.png,1,,,0.0551581538748,0.519883076893,[-0.209375   -0.02222222],,,,,,,,,,,2018_Jun_16_1603,59.6397392392,sequenceLearningTask,001,127,
min1.png,min2.png,min3.png,min4.png,allBlank.png,,,,,,,,,,,,0,0,0,0,,,,,,,,,,,,,,,,,"(0.75, -0.04)",images/min4.png,1,,,0.056307282066,0.464190769242,[ 0.3015625   0.00277778],,,,,,,,,,,2018_Jun_16_1603,59.6397392392,sequenceLearningTask,001,127,
min1.png,min2.png,min3.png,min4.png,allBlank.png,,,,,,,,,,,,0,1,1,1,,,,,,,,,,,,,,,,,"(-0.75, -0.04)",images/min1.png,2,,,0.0546358975116,0.552127179457,[ 0.7296875  -0.14722222],,,,,,,,,,,2018_Jun_16_1603,59.6397392392,sequenceLearningTask,001,127,
min1.png,min2.png,min3.png,min4.png,allBlank.png,,,,,,,,,,,,0,1,1,1,,,,,,,,,,,,,,,,,"(0.25, -0.04)",images/min3.png,2,,,0.0629382564221,0.448591999942,[-0.740625   -0.11388889],,,,,,,,,,,2018_Jun_16_1603,59.6397392392,sequenceLearningTask,001,127,
min1.png,min2.png,min3.png,min4.png,allBlank.png,,,,,,,,,,,,0,1,1,1,,,,,,,,,,,,,,,,,"(-0.25, -0.04)",images/min2.png,2,,,0.0562482050154,0.470534153748,[ 0.2984375  -0.08055556],,,,,,,,,,,2018_Jun_16_1603,59.6397392392,sequenceLearningTask,001,127,
min1.png,min2.png,min3.png,min4.png,allBlank.png,,,,,,,,,,,,0,1,1,1,,,,,,,,,,,,,,,,,"(0.75, -0.04)",images/min4.png,2,,,0.0547528206371,0.470458256314,[-0.228125   -0.25277778],,,,,,,,,,,2018_Jun_16_1603,59.6397392392,sequenceLearningTask,001,127,
min1.png,min2.png,min3.png,min4.png,allBlank.png,,,,,,,,,,,,0,1,1,1,,,,,,,,,,,,,,,,,"(0.75, -0.04)",images/min4.png,2,,,0.0549558973871,0.637536410242,[ 0.6984375  -0.21388889],,,,,,,,,,,2018_Jun_16_1603,59.6397392392,sequenceLearningTask,001,127,
min1.png,min2.png,min3.png,min4.png,allBlank.png,,,,,,,,,,,,0,1,1,1,,,,,,,,,,,,,,,,,"(-0.25, -0.04)",images/min2.png,2,,,0.0618157947902,0.847081435844,[ 0.809375   -0.15277778],,,,,,,,,,,2018_Jun_16_1603,59.6397392392,sequenceLearningTask,001,127,
min1.png,min2.png,min3.png,min4.png,allBlank.png,,,,,,,,,,,,0,1,1,1,,,,,,,,,,,,,,,,,"(0.25, -0.04)",images/min3.png,2,,,0.0604841024615,0.632271589711,[-0.246875   -0.24166667],,,,,,,,,,,2018_Jun_16_1603,59.6397392392,sequenceLearningTask,001,127,
min1.png,min2.png,min3.png,min4.png,allBlank.png,,,,,,,,,,,,0,1,1,1,,,,,,,,,,,,,,,,,"(0.75, -0.04)",images/min4.png,2,,,0.0611540512182,0.531795692164,[ 0.2109375 -0.025    ],,,,,,,,,,,2018_Jun_16_1603,59.6397392392,sequenceLearningTask,001,127,
min1.png,min2.png,min3.png,min4.png,allBlank.png,,,,,,,,,,,,0,2,2,2,,,,,,,,,,,,,,,,,"(-0.75, -0.04)",images/min1.png,3,,,0.0534781538881,0.623876102734,[ 0.7140625  -0.02222222],,,,,,,,,,,2018_Jun_16_1603,59.6397392392,sequenceLearningTask,001,127,
min1.png,min2.png,min3.png,min4.png,allBlank.png,,,,,,,,,,,,0,2,2,2,,,,,,,,,,,,,,,,,"(0.25, -0.04)",images/min3.png,3,,,0.0605587691534,0.53227856406,[-0.7390625   0.00277778],,,,,,,,,,,2018_Jun_16_1603,59.6397392392,sequenceLearningTask,001,127,
min1.png,min2.png,min3.png,min4.png,allBlank.png,,,,,,,,,,,,0,2,2,2,,,,,,,,,,,,,,,,,"(-0.25, -0.04)",images/min2.png,3,,,0.0600832819473,0.599470769288,[ 0.3328125  -0.14722222],,,,,,,,,,,2018_Jun_16_1603,59.6397392392,sequenceLearningTask,001,127,
min1.png,min2.png,min3.png,min4.png,allBlank.png,,,,,,,,,,,,0,2,2,2,,,,,,,,,,,,,,,,,"(0.75, -0.04)",images/min4.png,3,,,0.0602892306633,0.530329025583,[-0.2140625  -0.06111111],,,,,,,,,,,2018_Jun_16_1603,59.6397392392,sequenceLearningTask,001,127,
min1.png,min2.png,min3.png,min4.png,allBlank.png,,,,,,,,,,,,0,2,2,2,,,,,,,,,,,,,,,,,"(0.75, -0.04)",images/min4.png,3,,,0.0537234873045,0.57180882059,[ 0.8078125  -0.01944444],,,,,,,,,,,2018_Jun_16_1603,59.6397392392,sequenceLearningTask,001,127,
min1.png,min2.png,min3.png,min4.png,allBlank.png,,,,,,,,,,,,0,2,2,2,,,,,,,,,,,,,,,,,"(-0.25, -0.04)",images/min2.png,3,,,0.0593924103305,0.578043076908,[ 0.7765625  -0.13333333],,,,,,,,,,,2018_Jun_16_1603,59.6397392392,sequenceLearningTask,001,127,
min1.png,min2.png,min3.png,min4.png,allBlank.png,,,,,,,,,,,,0,2,2,2,,,,,,,,,,,,,,,,,"(0.25, -0.04)",images/min3.png,3,,,0.0630863590632,0.49600902549,[-0.2671875  -0.11944444],,,,,,,,,,,2018_Jun_16_1603,59.6397392392,sequenceLearningTask,001,127,
min1.png,min2.png,min3.png,min4.png,allBlank.png,,,,,,,,,,,,0,2,2,2,,,,,,,,,,,,,,,,,"(0.75, -0.04)",images/min4.png,3,,,0.060318358941,0.527669333387,[ 0.278125   -0.08055556],,,,,,,,,,,2018_Jun_16_1603,59.6397392392,sequenceLearningTask,001,127,
min1.png,min2.png,min3.png,min4.png,allBlank.png,,,,,,,,,,,,0,3,3,3,,,,,,,,,,,,,,,,,"(-0.75, -0.04)",images/min1.png,4,,,0.0580340512097,0.66855384619,[ 0.7078125  -0.15833333],,,,,,,,,,,2018_Jun_16_1603,59.6397392392,sequenceLearningTask,001,127,
min1.png,min2.png,min3.png,min4.png,allBlank.png,,,,,,,,,,,,0,3,3,3,,,,,,,,,,,,,,,,,"(0.25, -0.04)",images/min3.png,4,,,0.0578145640902,0.552573538385,[-0.7484375 -0.15     ],,,,,,,,,,,2018_Jun_16_1603,59.6397392392,sequenceLearningTask,001,127,
min1.png,min2.png,min3.png,min4.png,allBlank.png,,,,,,,,,,,,0,3,3,3,,,,,,,,,,,,,,,,,"(-0.25, -0.04)",images/min2.png,4,,,0.0605509744491,0.599235692294,[ 0.2546875  -0.21111111],,,,,,,,,,,2018_Jun_16_1603,59.6397392392,sequenceLearningTask,001,127,
min1.png,min2.png,min3.png,min4.png,allBlank.png,,,,,,,,,,,,0,3,3,3,,,,,,,,,,,,,,,,,"(0.75, -0.04)",images/min4.png,4,,,0.0569275899325,0.50039425632,[-0.2140625  -0.09166667],,,,,,,,,,,2018_Jun_16_1603,59.6397392392,sequenceLearningTask,001,127,
min1.png,min2.png,min3.png,min4.png,allBlank.png,,,,,,,,,,,,0,3,3,3,,,,,,,,,,,,,,,,,"(0.75, -0.04)",images/min4.png,4,,,0.0528406153899,0.622468512738,[ 0.728125   -0.25833333],,,,,,,,,,,2018_Jun_16_1603,59.6397392392,sequenceLearningTask,001,127,
min1.png,min2.png,min3.png,min4.png,allBlank.png,,,,,,,,,,,,0,3,3,3,,,,,,,,,,,,,,,,,"(-0.25, -0.04)",images/min2.png,4,,,0.0525641024578,0.522637538612,[ 0.7140625  -0.09166667],,,,,,,,,,,2018_Jun_16_1603,59.6397392392,sequenceLearningTask,001,127,
min1.png,min2.png,min3.png,min4.png,allBlank.png,,,,,,,,,,,,0,3,3,3,,,,,,,,,,,,,,,,,"(0.25, -0.04)",images/min3.png,4,,,0.0547318975441,0.486674051266,[-0.2484375 -0.2      ],,,,,,,,,,,2018_Jun_16_1603,59.6397392392,sequenceLearningTask,001,127,
min1.png,min2.png,min3.png,min4.png,allBlank.png,,,,,,,,,,,,0,3,3,3,,,,,,,,,,,,,,,,,"(0.75, -0.04)",images/min4.png,4,,,0.0593657437712,0.46593312826,[ 0.2578125  -0.28888889],,,,,,,,,,,2018_Jun_16_1603,59.6397392392,sequenceLearningTask,001,127,
min1.png,min2.png,min3.png,min4.png,allBlank.png,,,,,,,,,,,,0,4,4,4,,,,,,,,,,,,,,,,,"(-0.75, -0.04)",images/min1.png,5,,,0.0589275897946,0.781385025708,[ 0.728125   -0.19722222],,,,,,,,,,,2018_Jun_16_1603,59.6397392392,sequenceLearningTask,001,127,
min1.png,min2.png,min3.png,min4.png,allBlank.png,,,,,,,,,,,,0,4,4,4,,,,,,,,,,,,,,,,,"(0.25, -0.04)",images/min3.png,5,,,0.0559507692233,0.52009394858,[-0.7109375  -0.19444444],,,,,,,,,,,2018_Jun_16_1603,59.6397392392,sequenceLearningTask,001,127,
min1.png,min2.png,min3.png,min4.png,allBlank.png,,,,,,,,,,,,0,4,4,4,,,,,,,,,,,,,,,,,"(-0.25, -0.04)",images/min2.png,5,0.246947281994,1,0.0600890256464,0.853343999945,[ 0.275      -0.20833333],,,,,,,,,,,2018_Jun_16_1603,59.6397392392,sequenceLearningTask,001,127,
min1.png,min2.png,min3.png,min4.png,allBlank.png,,,,,,,,,,,,0,4,4,4,,,,,,,,,,,,,,,,,"(0.75, -0.04)",images/min4.png,5,,,0.0545915898401,0.504933333257,[-0.196875   -0.12222222],,,,,,,,,,,2018_Jun_16_1603,59.6397392392,sequenceLearningTask,001,127,
min1.png,min2.png,min3.png,min4.png,allBlank.png,,,,,,,,,,,,0,4,4,4,,,,,,,,,,,,,,,,,"(0.75, -0.04)",images/min4.png,5,,,0.0544717949815,0.587195076747,[ 0.6734375  -0.30833333],,,,,,,,,,,2018_Jun_16_1603,59.6397392392,sequenceLearningTask,001,127,
min1.png,min2.png,min3.png,min4.png,allBlank.png,,,,,,,,,,,,0,4,4,4,,,,,,,,,,,,,,,,,"(-0.25, -0.04)",images/min2.png,5,,,0.059518358903,0.587020718027,[ 0.715625   -0.25555556],,,,,,,,,,,2018_Jun_16_1603,59.6397392392,sequenceLearningTask,001,127,
min1.png,min2.png,min3.png,min4.png,allBlank.png,,,,,,,,,,,,0,4,4,4,,,,,,,,,,,,,,,,,"(0.25, -0.04)",images/min3.png,5,,,0.0668869742658,0.660384410061,[-0.23125    -0.19166667],,,,,,,,,,,2018_Jun_16_1603,59.6397392392,sequenceLearningTask,001,127,
min1.png,min2.png,min3.png,min4.png,allBlank.png,,,,,,,,,,,,0,4,4,4,,,,,,,,,,,,,,,,,"(0.75, -0.04)",images/min4.png,5,,,0.0568209229968,0.535838359036,[ 0.303125   -0.13333333],,,,,,,,,,,2018_Jun_16_1603,59.6397392392,sequenceLearningTask,001,127,
min1.png,min2.png,min3.png,min4.png,allBlank.png,,,,,,,,,,,,0,5,5,5,,,,,,,,,,,,,,,,,"(-0.75, -0.04)",images/min1.png,6,,,0.0607614358887,0.590692102443,[ 0.7421875  -0.15277778],,,,,,,,,,,2018_Jun_16_1603,59.6397392392,sequenceLearningTask,001,127,
min1.png,min2.png,min3.png,min4.png,allBlank.png,,,,,,,,,,,,0,5,5,5,,,,,,,,,,,,,,,,,"(0.25, -0.04)",images/min3.png,6,,,0.0655035898089,0.476514871698,[-0.7375      0.04444444],,,,,,,,,,,2018_Jun_16_1603,59.6397392392,sequenceLearningTask,001,127,
min1.png,min2.png,min3.png,min4.png,allBlank.png,,,,,,,,,,,,0,5,5,5,,,,,,,,,,,,,,,,,"(-0.25, -0.04)",images/min2.png,6,,,0.0646100514568,0.797094974434,[ 0.2703125  -0.04444444],,,,,,,,,,,2018_Jun_16_1603,59.6397392392,sequenceLearningTask,001,127,
min1.png,min2.png,min3.png,min4.png,allBlank.png,,,,,,,,,,,,0,5,5,5,,,,,,,,,,,,,,,,,"(0.75, -0.04)",images/min4.png,6,,,0.0648205128964,0.568978051422,[-0.1578125  -0.06666667],,,,,,,,,,,2018_Jun_16_1603,59.6397392392,sequenceLearningTask,001,127,
min1.png,min2.png,min3.png,min4.png,allBlank.png,,,,,,,,,,,,0,5,5,5,,,,,,,,,,,,,,,,,"(0.75, -0.04)",images/min4.png,6,,,0.0539700512309,0.640061538434,[ 0.7578125  -0.09722222],,,,,,,,,,,2018_Jun_16_1603,59.6397392392,sequenceLearningTask,001,127,
min1.png,min2.png,min3.png,min4.png,allBlank.png,,,,,,,,,,,,0,5,5,5,,,,,,,,,,,,,,,,,"(-0.25, -0.04)",images/min2.png,6,,,0.0586921025533,0.634051281959,[ 0.7421875  -0.15555556],,,,,,,,,,,2018_Jun_16_1603,59.6397392392,sequenceLearningTask,001,127,
min1.png,min2.png,min3.png,min4.png,allBlank.png,,,,,,,,,,,,0,5,5,5,,,,,,,,,,,,,,,,,"(0.25, -0.04)",images/min3.png,6,,,0.0574162050616,0.55330297444,[-0.2015625  -0.01944444],,,,,,,,,,,2018_Jun_16_1603,59.6397392392,sequenceLearningTask,001,127,
min1.png,min2.png,min3.png,min4.png,allBlank.png,,,,,,,,,,,,0,5,5,5,,,,,,,,,,,,,,,,,"(0.75, -0.04)",images/min4.png,6,,,0.0585677947383,0.569733333308,[ 0.2921875  -0.13611111],,,,,,,,,,,2018_Jun_16_1603,59.6397392392,sequenceLearningTask,001,127,
min1.png,min2.png,min3.png,min4.png,allBlank.png,,,,,,,,,,,,0,6,6,6,,,,,,,,,,,,,,,,,"(-0.75, -0.04)",images/min1.png,7,,,0.0519364103675,0.672124307603,[ 0.728125   -0.08055556],,,,,,,,,,,2018_Jun_16_1603,59.6397392392,sequenceLearningTask,001,127,
min1.png,min2.png,min3.png,min4.png,allBlank.png,,,,,,,,,,,,0,6,6,6,,,,,,,,,,,,,,,,,"(0.25, -0.04)",images/min3.png,7,,,0.0559081025422,0.448298256379,[-0.8484375  -0.08888889],,,,,,,,,,,2018_Jun_16_1603,59.6397392392,sequenceLearningTask,001,127,
min1.png,min2.png,min3.png,min4.png,allBlank.png,,,,,,,,,,,,0,6,6,6,,,,,,,,,,,,,,,,,"(-0.25, -0.04)",images/min2.png,7,,,0.058477538405,0.651270153699,[ 0.2765625  -0.08611111],,,,,,,,,,,2018_Jun_16_1603,59.6397392392,sequenceLearningTask,001,127,
min1.png,min2.png,min3.png,min4.png,allBlank.png,,,,,,,,,,,,0,6,6,6,,,,,,,,,,,,,,,,,"(0.75, -0.04)",images/min4.png,7,,,0.0573764103465,0.604163282085,[-0.1671875  -0.16388889],,,,,,,,,,,2018_Jun_16_1603,59.6397392392,sequenceLearningTask,001,127,
min1.png,min2.png,min3.png,min4.png,allBlank.png,,,,,,,,,,,,0,6,6,6,,,,,,,,,,,,,,,,,"(0.75, -0.04)",images/min4.png,7,,,0.0571774358395,0.587045743596,[ 0.6734375  -0.13888889],,,,,,,,,,,2018_Jun_16_1603,59.6397392392,sequenceLearningTask,001,127,
min1.png,min2.png,min3.png,min4.png,allBlank.png,,,,,,,,,,,,0,6,6,6,,,,,,,,,,,,,,,,,"(-0.25, -0.04)",images/min2.png,7,,,0.0614998973906,0.696009846171,[ 0.7453125  -0.08055556],,,,,,,,,,,2018_Jun_16_1603,59.6397392392,sequenceLearningTask,001,127,
min1.png,min2.png,min3.png,min4.png,allBlank.png,,,,,,,,,,,,0,6,6,6,,,,,,,,,,,,,,,,,"(0.25, -0.04)",images/min3.png,7,,,0.0546761027072,0.697117128177,[-0.221875   -0.08055556],,,,,,,,,,,2018_Jun_16_1603,59.6397392392,sequenceLearningTask,001,127,
min1.png,min2.png,min3.png,min4.png,allBlank.png,,,,,,,,,,,,0,6,6,6,,,,,,,,,,,,,,,,,"(0.75, -0.04)",images/min4.png,7,,,0.0553251281381,0.573342358926,[ 0.246875   -0.11388889],,,,,,,,,,,2018_Jun_16_1603,59.6397392392,sequenceLearningTask,001,127,
min1.png,min2.png,min3.png,min4.png,allBlank.png,,,,,,,,,,,,0,7,7,7,,,,,,,,,,,,,,,,,"(-0.75, -0.04)",images/min1.png,8,,,0.0559302563779,0.613540512742,[ 0.6921875  -0.11388889],,,,,,,,,,,2018_Jun_16_1603,59.6397392392,sequenceLearningTask,001,127,
min1.png,min2.png,min3.png,min4.png,allBlank.png,,,,,,,,,,,,0,7,7,7,,,,,,,,,,,,,,,,,"(0.25, -0.04)",images/min3.png,8,,,0.0577661539428,0.518443076871,[-0.7734375  -0.12222222],,,,,,,,,,,2018_Jun_16_1603,59.6397392392,sequenceLearningTask,001,127,
min1.png,min2.png,min3.png,min4.png,allBlank.png,,,,,,,,,,,,0,7,7,7,,,,,,,,,,,,,,,,,"(-0.25, -0.04)",images/min2.png,8,,,0.0597046152689,0.565500717843,[ 0.2546875 -0.275    ],,,,,,,,,,,2018_Jun_16_1603,59.6397392392,sequenceLearningTask,001,127,
min1.png,min2.png,min3.png,min4.png,allBlank.png,,,,,,,,,,,,0,7,7,7,,,,,,,,,,,,,,,,,"(0.75, -0.04)",images/min4.png,8,,,0.0603610256221,1.60443035909,[-0.1421875  -0.19166667],,,,,,,,,,,2018_Jun_16_1603,59.6397392392,sequenceLearningTask,001,127,
min1.png,min2.png,min3.png,min4.png,allBlank.png,,,,,,,,,,,,0,7,7,7,,,,,,,,,,,,,,,,,"(0.75, -0.04)",images/min4.png,8,,,0.0552947693504,0.704097640933,[ 0.6921875  -0.18611111],,,,,,,,,,,2018_Jun_16_1603,59.6397392392,sequenceLearningTask,001,127,
min1.png,min2.png,min3.png,min4.png,allBlank.png,,,,,,,,,,,,0,7,7,7,,,,,,,,,,,,,,,,,"(-0.25, -0.04)",images/min2.png,8,,,0.0566601024475,0.617837538477,[ 0.75       -0.06111111],,,,,,,,,,,2018_Jun_16_1603,59.6397392392,sequenceLearningTask,001,127,
min1.png,min2.png,min3.png,min4.png,allBlank.png,,,,,,,,,,,,0,7,7,7,,,,,,,,,,,,,,,,,"(0.25, -0.04)",images/min3.png,8,,,0.0599093332421,2.38607425638,[-0.2390625  -0.08055556],,,,,,,,,,,2018_Jun_16_1603,59.6397392392,sequenceLearningTask,001,127,
min1.png,min2.png,min3.png,min4.png,allBlank.png,,,,,,,,,,,,0,7,7,7,,,,,,,,,,,,,,,,,"(0.75, -0.04)",images/min4.png,8,,,0.0561907694209,0.570223179413,[ 0.2328125  -0.04166667],,,,,,,,,,,2018_Jun_16_1603,59.6397392392,sequenceLearningTask,001,127,
min1.png,min2.png,min3.png,min4.png,allBlank.png,,,,,,,,,,,,0,8,8,8,,,,,,,,,,,,,,,,,"(-0.75, -0.04)",images/min1.png,9,,,0.0601981538348,0.541832205141,[ 0.746875   -0.18055556],,,,,,,,,,,2018_Jun_16_1603,59.6397392392,sequenceLearningTask,001,127,
min1.png,min2.png,min3.png,min4.png,allBlank.png,,,,,,,,,,,,0,8,8,8,,,,,,,,,,,,,,,,,"(0.25, -0.04)",images/min3.png,9,,,0.0577870768029,0.43517661537,[-0.696875    0.03333333],,,,,,,,,,,2018_Jun_16_1603,59.6397392392,sequenceLearningTask,001,127,
min1.png,min2.png,min3.png,min4.png,allBlank.png,,,,,,,,,,,,0,8,8,8,,,,,,,,,,,,,,,,,"(-0.25, -0.04)",images/min2.png,9,,,0.0653846154455,0.646517743589,[ 0.2484375  -0.01666667],,,,,,,,,,,2018_Jun_16_1603,59.6397392392,sequenceLearningTask,001,127,
min1.png,min2.png,min3.png,min4.png,allBlank.png,,,,,,,,,,,,0,8,8,8,,,,,,,,,,,,,,,,,"(0.75, -0.04)",images/min4.png,9,,,0.0589394872077,0.618981743464,[-0.2078125   0.10277778],,,,,,,,,,,2018_Jun_16_1603,59.6397392392,sequenceLearningTask,001,127,
min1.png,min2.png,min3.png,min4.png,allBlank.png,,,,,,,,,,,,0,8,8,8,,,,,,,,,,,,,,,,,"(0.75, -0.04)",images/min4.png,9,,,0.060318358941,0.625759999966,[ 0.7109375   0.07777778],,,,,,,,,,,2018_Jun_16_1603,59.6397392392,sequenceLearningTask,001,127,
min1.png,min2.png,min3.png,min4.png,allBlank.png,,,,,,,,,,,,0,8,8,8,,,,,,,,,,,,,,,,,"(-0.25, -0.04)",images/min2.png,9,,,0.0558670768514,0.572754871799,[ 0.6453125   0.01944444],,,,,,,,,,,2018_Jun_16_1603,59.6397392392,sequenceLearningTask,001,127,
min1.png,min2.png,min3.png,min4.png,allBlank.png,,,,,,,,,,,,0,8,8,8,,,,,,,,,,,,,,,,,"(0.25, -0.04)",images/min3.png,9,,,0.0529087178875,0.438758974429,[-0.16875     0.03888889],,,,,,,,,,,2018_Jun_16_1603,59.6397392392,sequenceLearningTask,001,127,
min1.png,min2.png,min3.png,min4.png,allBlank.png,,,,,,,,,,,,0,8,8,8,,,,,,,,,,,,,,,,,"(0.75, -0.04)",images/min4.png,9,,,0.0527396923862,0.791683282237,[ 0.2890625   0.00555556],,,,,,,,,,,2018_Jun_16_1603,59.6397392392,sequenceLearningTask,001,127,
min1.png,min2.png,min3.png,min4.png,allBlank.png,,,,,,,,,,,,0,9,9,9,,,,,,,,,,,,,,,,,"(-0.75, -0.04)",images/min1.png,10,,,0.0660344613716,0.977923281956,[ 0.79375    -0.05833333],,,,,,,,,,,2018_Jun_16_1603,59.6397392392,sequenceLearningTask,001,127,
min1.png,min2.png,min3.png,min4.png,allBlank.png,,,,,,,,,,,,0,9,9,9,,,,,,,,,,,,,,,,,"(0.25, -0.04)",images/min3.png,10,,,0.0518219487276,0.437578256475,[-0.7375     -0.01388889],,,,,,,,,,,2018_Jun_16_1603,59.6397392392,sequenceLearningTask,001,127,
min1.png,min2.png,min3.png,min4.png,allBlank.png,,,,,,,,,,,,0,9,9,9,,,,,,,,,,,,,,,,,"(-0.25, -0.04)",images/min2.png,10,,,0.0530797948595,0.553403487196,[ 0.2328125   0.00555556],,,,,,,,,,,2018_Jun_16_1603,59.6397392392,sequenceLearningTask,001,127,
min1.png,min2.png,min3.png,min4.png,allBlank.png,,,,,,,,,,,,0,9,9,9,,,,,,,,,,,,,,,,,"(0.75, -0.04)",images/min4.png,10,,,0.0555446152575,0.552517333301,[-0.1859375   0.04444444],,,,,,,,,,,2018_Jun_16_1603,59.6397392392,sequenceLearningTask,001,127,
min1.png,min2.png,min3.png,min4.png,allBlank.png,,,,,,,,,,,,0,9,9,9,,,,,,,,,,,,,,,,,"(0.75, -0.04)",images/min4.png,10,,,0.0598789742216,0.543444102397,[ 0.78125    -0.05833333],,,,,,,,,,,2018_Jun_16_1603,59.6397392392,sequenceLearningTask,001,127,
min1.png,min2.png,min3.png,min4.png,allBlank.png,,,,,,,,,,,,0,9,9,9,,,,,,,,,,,,,,,,,"(-0.25, -0.04)",images/min2.png,10,,,0.0630670769606,0.563432205003,[ 0.7640625   0.00277778],,,,,,,,,,,2018_Jun_16_1603,59.6397392392,sequenceLearningTask,001,127,
min1.png,min2.png,min3.png,min4.png,allBlank.png,,,,,,,,,,,,0,9,9,9,,,,,,,,,,,,,,,,,"(0.25, -0.04)",images/min3.png,10,,,0.0593009230215,0.484397538472,[-0.2046875  -0.05277778],,,,,,,,,,,2018_Jun_16_1603,59.6397392392,sequenceLearningTask,001,127,
min1.png,min2.png,min3.png,min4.png,allBlank.png,,,,,,,,,,,,0,9,9,9,,,,,,,,,,,,,,,,,"(0.75, -0.04)",images/min4.png,10,,,0.05849641026,0.568747487152,[ 0.33125    -0.01111111],,,,,,,,,,,2018_Jun_16_1603,59.6397392392,sequenceLearningTask,001,127,
min1.png,min2.png,min3.png,min4.png,images/allBlank.png,"['num_7', 'num_4', 'num_1', 'num_0']",['num_0'],num_0,[4],'num_0',images/min4.png,"[(0.45, 0.79)]",,,,,0,-1,-1,0,0,0,0,3,,,,,,,,,,,,,"(-0.25, 0.04)",images/min2.png,1,,,0.0319844102487,0.724069333402,[ 0.4265625  -0.11944444],,,,,,,['num_0'],,,,2018_Jun_16_1603,59.6397392392,sequenceLearningTask,001,127,
min1.png,min2.png,min3.png,min4.png,images/allBlank.png,"['num_7', 'num_4', 'num_1', 'num_0']",['num_0'],num_0,[4],'num_0',images/min4.png,"[(0.45, 0.79)]",,,,,0,-1,-1,0,0,0,0,3,,,,,,,,,,,,,"(0.75, 0.04)",images/min4.png,1,,,0.0596640000585,0.514343384653,[-0.278125   -0.06944444],,,,,,,['num_0'],,,,2018_Jun_16_1603,59.6397392392,sequenceLearningTask,001,127,
min1.png,min2.png,min3.png,min4.png,images/allBlank.png,"['num_7', 'num_4', 'num_1', 'num_0']",['num_0'],num_0,[4],'num_0',images/min4.png,"[(0.45, 0.79)]",,,,,0,-1,-1,0,0,0,0,3,,,,,,,,,,,,,"(-0.25, 0.04)",images/min2.png,1,,,0.0576131283306,0.582218666794,[ 0.7265625  -0.01666667],,,,,,,['num_0'],,,,2018_Jun_16_1603,59.6397392392,sequenceLearningTask,001,127,
min1.png,min2.png,min3.png,min4.png,images/allBlank.png,"['num_7', 'num_4', 'num_1', 'num_0']",['num_0'],num_0,[4],'num_0',images/min4.png,"[(0.45, 0.79)]",,,,,0,-1,-1,0,0,0,0,3,,,,,,,,,,,,,"(-0.75, 0.04)",images/min1.png,1,,,0.0535548718181,0.581655384507,[-0.1765625  -0.01666667],,,,,,,['num_0'],,,,2018_Jun_16_1603,59.6397392392,sequenceLearningTask,001,127,
min1.png,min2.png,min3.png,min4.png,images/allBlank.png,"['num_7', 'num_4', 'num_1', 'num_0']",['num_7'],num_7,[1],'num_7',images/min1.png,"[(0.45, 0.79)]",,,,,0,-1,-1,0,0,1,1,0,,,,,,,,,,,,,"(-0.25, 0.04)",images/min2.png,2,,,0.0632525128312,0.490930871805,[-0.65       -0.10833333],,,,,,,['num_7'],,,,2018_Jun_16_1603,59.6397392392,sequenceLearningTask,001,127,
min1.png,min2.png,min3.png,min4.png,images/allBlank.png,"['num_7', 'num_4', 'num_1', 'num_0']",['num_7'],num_7,[1],'num_7',images/min1.png,"[(0.45, 0.79)]",,,,,0,-1,-1,0,0,1,1,0,,,,,,,,,,,,,"(-0.25, 0.04)",images/min2.png,2,,,0.0611876922194,0.580946871778,[-0.1734375  -0.13611111],,,,,,,['num_7'],,,,2018_Jun_16_1603,59.6397392392,sequenceLearningTask,001,127,
min1.png,min2.png,min3.png,min4.png,images/allBlank.png,"['num_7', 'num_4', 'num_1', 'num_0']",['num_7'],num_7,[1],'num_7',images/min1.png,"[(0.45, 0.79)]",,,,,0,-1,-1,0,0,1,1,0,,,,,,,,,,,,,"(-0.75, 0.04)",images/min1.png,2,,,0.0626363079064,0.693692307686,[-0.23125    -0.13611111],,,,,,,['num_7'],,,,2018_Jun_16_1603,59.6397392392,sequenceLearningTask,001,127,
min1.png,min2.png,min3.png,min4.png,images/allBlank.png,"['num_7', 'num_4', 'num_1', 'num_0']",['num_7'],num_7,[1],'num_7',images/min1.png,"[(0.45, 0.79)]",,,,,0,-1,-1,0,0,1,1,0,,,,,,,,,,,,,"(-0.75, 0.04)",images/min1.png,2,,,0.0645419487264,0.574076307705,[-0.7171875   0.00833333],,,,,,,['num_7'],,,,2018_Jun_16_1603,59.6397392392,sequenceLearningTask,001,127,
min1.png,min2.png,min3.png,min4.png,images/allBlank.png,"['num_7', 'num_4', 'num_1', 'num_0']",['num_1'],num_1,[3],'num_1',images/min3.png,"[(0.45, 0.79)]",,,,,0,-1,-1,0,0,2,2,2,,,,,,,,,,,,,"(-0.25, 0.04)",images/min2.png,3,,,0.0607208206784,0.48868841026,[-0.7203125   0.02777778],,,,,,,['num_1'],,,,2018_Jun_16_1603,59.6397392392,sequenceLearningTask,001,127,
min1.png,min2.png,min3.png,min4.png,images/allBlank.png,"['num_7', 'num_4', 'num_1', 'num_0']",['num_1'],num_1,[3],'num_1',images/min3.png,"[(0.45, 0.79)]",,,,,0,-1,-1,0,0,2,2,2,,,,,,,,,,,,,"(0.75, 0.04)",images/min4.png,3,,,0.0634912820533,0.893237743527,[-0.2390625 -0.05     ],,,,,,,['num_1'],,,,2018_Jun_16_1603,59.6397392392,sequenceLearningTask,001,127,
min1.png,min2.png,min3.png,min4.png,images/allBlank.png,"['num_7', 'num_4', 'num_1', 'num_0']",['num_1'],num_1,[3],'num_1',images/min3.png,"[(0.45, 0.79)]",,,,,0,-1,-1,0,0,2,2,2,,,,,,,,,,,,,"(-0.75, 0.04)",images/min1.png,3,,,0.0631093331613,1.15177107695,[ 0.70625     0.07777778],,,,,,,['num_1'],,,,2018_Jun_16_1603,59.6397392392,sequenceLearningTask,001,127,
min1.png,min2.png,min3.png,min4.png,images/allBlank.png,"['num_7', 'num_4', 'num_1', 'num_0']",['num_1'],num_1,[3],'num_1',images/min3.png,"[(0.45, 0.79)]",,,,,0,-1,-1,0,0,2,2,2,,,,,,,,,,,,,"(-0.75, 0.04)",images/min1.png,3,,,0.0565440000501,0.622012307867,[-0.871875   -0.01666667],,,,,,,['num_1'],,,,2018_Jun_16_1603,59.6397392392,sequenceLearningTask,001,127,
min1.png,min2.png,min3.png,min4.png,images/allBlank.png,"['num_7', 'num_4', 'num_1', 'num_0']",['num_4'],num_4,[2],'num_4',images/min2.png,"[(0.45, 0.79)]",,,,,0,-1,-1,0,0,3,3,1,,,,,,,,,,,,,"(-0.75, 0.04)",images/min1.png,4,,,0.0659835897386,0.589244717965,[-0.7765625  -0.09722222],,,,,,,['num_4'],,,,2018_Jun_16_1603,59.6397392392,sequenceLearningTask,001,127,
min1.png,min2.png,min3.png,min4.png,images/allBlank.png,"['num_7', 'num_4', 'num_1', 'num_0']",['num_4'],num_4,[2],'num_4',images/min2.png,"[(0.45, 0.79)]",,,,,0,-1,-1,0,0,3,3,1,,,,,,,,,,,,,"(-0.25, 0.04)",images/min2.png,4,,,0.0574756923597,0.596569435904,[-0.6625 -0.05  ],,,,,,,['num_4'],,,,2018_Jun_16_1603,59.6397392392,sequenceLearningTask,001,127,
min1.png,min2.png,min3.png,min4.png,images/allBlank.png,"['num_7', 'num_4', 'num_1', 'num_0']",['num_4'],num_4,[2],'num_4',images/min2.png,"[(0.45, 0.79)]",,,,,0,-1,-1,0,0,3,3,1,,,,,,,,,,,,,"(-0.75, 0.04)",images/min1.png,4,,,0.0603269743733,0.994625641033,[-0.2640625   0.13055556],,,,,,,['num_4'],,,,2018_Jun_16_1603,59.6397392392,sequenceLearningTask,001,127,
min1.png,min2.png,min3.png,min4.png,images/allBlank.png,"['num_7', 'num_4', 'num_1', 'num_0']",['num_4'],num_4,[2],'num_4',images/min2.png,"[(0.45, 0.79)]",,,,,0,-1,-1,0,0,3,3,1,,,,,,,,,,,,,"(-0.75, 0.04)",images/min1.png,4,,,0.0621579487342,0.748615384568,[-0.7265625  -0.00833333],,,,,,,['num_4'],,,,2018_Jun_16_1603,59.6397392392,sequenceLearningTask,001,127,
min1.png,min2.png,min3.png,min4.png,images/allBlank.png,"['num_7', 'num_4', 'num_1', 'num_0']",['num_0'],num_0,[4],'num_0',images/min4.png,"[(0.45, 0.79)]",,,,,0,-1,-1,0,1,0,4,3,,,,,,,,,,,,,"(0.75, 0.04)",images/min4.png,5,,,0.0565645128954,0.675970051438,[-0.7453125  -0.00555556],,,,,,,['num_0'],,,,2018_Jun_16_1603,59.6397392392,sequenceLearningTask,001,127,
min1.png,min2.png,min3.png,min4.png,images/allBlank.png,"['num_7', 'num_4', 'num_1', 'num_0']",['num_0'],num_0,[4],'num_0',images/min4.png,"[(0.45, 0.79)]",,,,,0,-1,-1,0,1,0,4,3,,,,,,,,,,,,,"(0.25, 0.04)",images/min3.png,5,,,0.0519171282649,0.557530256454,[ 0.815625   -0.03888889],,,,,,,['num_0'],,,,2018_Jun_16_1603,59.6397392392,sequenceLearningTask,001,127,
min1.png,min2.png,min3.png,min4.png,images/allBlank.png,"['num_7', 'num_4', 'num_1', 'num_0']",['num_0'],num_0,[4],'num_0',images/min4.png,"[(0.45, 0.79)]",,,,,0,-1,-1,0,1,0,4,3,,,,,,,,,,,,,"(-0.25, 0.04)",images/min2.png,5,,,0.063707487192,0.547171282116,[ 0.365625    0.04166667],,,,,,,['num_0'],,,,2018_Jun_16_1603,59.6397392392,sequenceLearningTask,001,127,
min1.png,min2.png,min3.png,min4.png,images/allBlank.png,"['num_7', 'num_4', 'num_1', 'num_0']",['num_0'],num_0,[4],'num_0',images/min4.png,"[(0.45, 0.79)]",,,,,0,-1,-1,0,1,0,4,3,,,,,,,,,,,,,"(-0.25, 0.04)",images/min2.png,5,,,0.0637202051003,0.746290461393,[-0.2328125  -0.01944444],,,,,,,['num_0'],,,,2018_Jun_16_1603,59.6397392392,sequenceLearningTask,001,127,
min1.png,min2.png,min3.png,min4.png,images/allBlank.png,"['num_7', 'num_4', 'num_1', 'num_0']",['num_4'],num_4,[2],'num_4',images/min2.png,"[(0.45, 0.79)]",,,,,0,-1,-1,0,1,1,5,1,,,,,,,,,,,,,"(0.75, 0.04)",images/min4.png,6,,,0.0632020514458,1.04492102563,[-0.225       0.08055556],,,,,,,['num_4'],,,,2018_Jun_16_1603,59.6397392392,sequenceLearningTask,001,127,
min1.png,min2.png,min3.png,min4.png,images/allBlank.png,"['num_7', 'num_4', 'num_1', 'num_0']",['num_4'],num_4,[2],'num_4',images/min2.png,"[(0.45, 0.79)]",,,,,0,-1,-1,0,1,1,5,1,,,,,,,,,,,,,"(0.25, 0.04)",images/min3.png,6,,,0.0627253334969,0.586459076963,[ 0.7046875   0.03333333],,,,,,,['num_4'],,,,2018_Jun_16_1603,59.6397392392,sequenceLearningTask,001,127,
min1.png,min2.png,min3.png,min4.png,images/allBlank.png,"['num_7', 'num_4', 'num_1', 'num_0']",['num_4'],num_4,[2],'num_4',images/min2.png,"[(0.45, 0.79)]",,,,,0,-1,-1,0,1,1,5,1,,,,,,,,,,,,,"(0.75, 0.04)",images/min4.png,6,,,0.0657033845782,0.538391384529,[ 0.1859375   0.01944444],,,,,,,['num_4'],,,,2018_Jun_16_1603,59.6397392392,sequenceLearningTask,001,127,
min1.png,min2.png,min3.png,min4.png,images/allBlank.png,"['num_7', 'num_4', 'num_1', 'num_0']",['num_4'],num_4,[2],'num_4',images/min2.png,"[(0.45, 0.79)]",,,,,0,-1,-1,0,1,1,5,1,,,,,,,,,,,,,"(0.75, 0.04)",images/min4.png,6,,,0.0658547694329,0.630774153862,[ 0.7234375  -0.05555556],,,,,,,['num_4'],,,,2018_Jun_16_1603,59.6397392392,sequenceLearningTask,001,127,
min1.png,min2.png,min3.png,min4.png,images/allBlank.png,"['num_7', 'num_4', 'num_1', 'num_0']",['num_1'],num_1,[3],'num_1',images/min3.png,"[(0.45, 0.79)]",,,,,0,-1,-1,0,1,2,6,2,,,,,,,,,,,,,"(-0.75, 0.04)",images/min1.png,7,,,0.0635536410846,0.978137435857,[ 0.6578125   0.00833333],,,,,,,['num_1'],,,,2018_Jun_16_1603,59.6397392392,sequenceLearningTask,001,127,
min1.png,min2.png,min3.png,min4.png,images/allBlank.png,"['num_7', 'num_4', 'num_1', 'num_0']",['num_1'],num_1,[3],'num_1',images/min3.png,"[(0.45, 0.79)]",,,,,0,-1,-1,0,1,2,6,2,,,,,,,,,,,,,"(-0.75, 0.04)",images/min1.png,7,,,0.0595487179235,0.752896000165,[-0.6640625  -0.05277778],,,,,,,['num_1'],,,,2018_Jun_16_1603,59.6397392392,sequenceLearningTask,001,127,
min1.png,min2.png,min3.png,min4.png,images/allBlank.png,"['num_7', 'num_4', 'num_1', 'num_0']",['num_1'],num_1,[3],'num_1',images/min3.png,"[(0.45, 0.79)]",,,,,0,-1,-1,0,1,2,6,2,,,,,,,,,,,,,"(-0.75, 0.04)",images/min1.png,7,,,0.0631794871297,0.765275897458,[-0.6453125   0.00277778],,,,,,,['num_1'],,,,2018_Jun_16_1603,59.6397392392,sequenceLearningTask,001,127,
min1.png,min2.png,min3.png,min4.png,images/allBlank.png,"['num_7', 'num_4', 'num_1', 'num_0']",['num_1'],num_1,[3],'num_1',images/min3.png,"[(0.45, 0.79)]",,,,,0,-1,-1,0,1,2,6,2,,,,,,,,,,,,,"(-0.25, 0.04)",images/min2.png,7,,,0.0554633846041,0.538546461612,[-0.7421875  -0.04166667],,,,,,,['num_1'],,,,2018_Jun_16_1603,59.6397392392,sequenceLearningTask,001,127,
min1.png,min2.png,min3.png,min4.png,images/allBlank.png,"['num_7', 'num_4', 'num_1', 'num_0']",['num_7'],num_7,[1],'num_7',images/min1.png,"[(0.45, 0.79)]",,,,,0,-1,-1,0,1,3,7,0,,,,,,,,,,,,,"(-0.75, 0.04)",images/min1.png,8,,,0.0614231794607,0.796949743526,[-0.1671875   0.01944444],,,,,,,['num_7'],,,,2018_Jun_16_1603,59.6397392392,sequenceLearningTask,001,127,
min1.png,min2.png,min3.png,min4.png,images/allBlank.png,"['num_7', 'num_4', 'num_1', 'num_0']",['num_7'],num_7,[1],'num_7',images/min1.png,"[(0.45, 0.79)]",,,,,0,-1,-1,0,1,3,7,0,,,,,,,,,,,,,"(-0.25, 0.04)",images/min2.png,8,,,0.0635515896138,0.626709333155,[-0.7515625  -0.04722222],,,,,,,['num_7'],,,,2018_Jun_16_1603,59.6397392392,sequenceLearningTask,001,127,
min1.png,min2.png,min3.png,min4.png,images/allBlank.png,"['num_7', 'num_4', 'num_1', 'num_0']",['num_7'],num_7,[1],'num_7',images/min1.png,"[(0.45, 0.79)]",,,,,0,-1,-1,0,1,3,7,0,,,,,,,,,,,,,"(-0.25, 0.04)",images/min2.png,8,,,0.0610141537618,0.578945230693,[-0.1890625   0.09722222],,,,,,,['num_7'],,,,2018_Jun_16_1603,59.6397392392,sequenceLearningTask,001,127,
min1.png,min2.png,min3.png,min4.png,images/allBlank.png,"['num_7', 'num_4', 'num_1', 'num_0']",['num_7'],num_7,[1],'num_7',images/min1.png,"[(0.45, 0.79)]",,,,,0,-1,-1,0,1,3,7,0,,,,,,,,,,,,,"(0.75, 0.04)",images/min4.png,8,,,0.0614190769847,1.03655302571,[-0.20625     0.03333333],,,,,,,['num_7'],,,,2018_Jun_16_1603,59.6397392392,sequenceLearningTask,001,127,
min1.png,min2.png,min3.png,min4.png,images/allBlank.png,"['num_7', 'num_4', 'num_1', 'num_0']",['num_1'],num_1,[3],'num_1',images/min3.png,"[(0.45, 0.79)]",,,,,0,-1,-1,0,2,0,8,2,,,,,,,,,,,,,"(0.25, 0.04)",images/min3.png,9,,,0.057780923089,0.683939692331,[ 0.7453125  -0.01944444],,,,,,,['num_1'],,,,2018_Jun_16_1603,59.6397392392,sequenceLearningTask,001,127,
min1.png,min2.png,min3.png,min4.png,images/allBlank.png,"['num_7', 'num_4', 'num_1', 'num_0']",['num_1'],num_1,[3],'num_1',images/min3.png,"[(0.45, 0.79)]",,,,,0,-1,-1,0,2,0,8,2,,,,,,,,,,,,,"(0.75, 0.04)",images/min4.png,9,,,0.0663905639667,0.573821948841,[ 0.3015625   0.01944444],,,,,,,['num_1'],,,,2018_Jun_16_1603,59.6397392392,sequenceLearningTask,001,127,
min1.png,min2.png,min3.png,min4.png,images/allBlank.png,"['num_7', 'num_4', 'num_1', 'num_0']",['num_1'],num_1,[3],'num_1',images/min3.png,"[(0.45, 0.79)]",,,,,0,-1,-1,0,2,0,8,2,,,,,,,,,,,,,"(-0.25, 0.04)",images/min2.png,9,,,0.0602461537346,0.668763897382,[ 0.671875    0.01944444],,,,,,,['num_1'],,,,2018_Jun_16_1603,59.6397392392,sequenceLearningTask,001,127,
min1.png,min2.png,min3.png,min4.png,images/allBlank.png,"['num_7', 'num_4', 'num_1', 'num_0']",['num_1'],num_1,[3],'num_1',images/min3.png,"[(0.45, 0.79)]",,,,,0,-1,-1,0,2,0,8,2,,,,,,,,,,,,,"(-0.25, 0.04)",images/min2.png,9,,,0.0639913845807,0.577053128276,[-0.2796875   0.02222222],,,,,,,['num_1'],,,,2018_Jun_16_1603,59.6397392392,sequenceLearningTask,001,127,
min1.png,min2.png,min3.png,min4.png,images/allBlank.png,"['num_7', 'num_4', 'num_1', 'num_0']",['num_4'],num_4,[2],'num_4',images/min2.png,"[(0.45, 0.79)]",,,,,0,-1,-1,0,2,1,9,1,,,,,,,,,,,,,"(0.75, 0.04)",images/min4.png,10,,,0.0606810257304,0.698412718019,[-0.2234375   0.00833333],,,,,,,['num_4'],,,,2018_Jun_16_1603,59.6397392392,sequenceLearningTask,001,127,
min1.png,min2.png,min3.png,min4.png,images/allBlank.png,"['num_7', 'num_4', 'num_1', 'num_0']",['num_4'],num_4,[2],'num_4',images/min2.png,"[(0.45, 0.79)]",,,,,0,-1,-1,0,2,1,9,1,,,,,,,,,,,,,"(-0.75, 0.04)",images/min1.png,10,,,0.0559536409564,0.74043897423,[ 0.7015625  -0.01944444],,,,,,,['num_4'],,,,2018_Jun_16_1603,59.6397392392,sequenceLearningTask,001,127,
min1.png,min2.png,min3.png,min4.png,images/allBlank.png,"['num_7', 'num_4', 'num_1', 'num_0']",['num_4'],num_4,[2],'num_4',images/min2.png,"[(0.45, 0.79)]",,,,,0,-1,-1,0,2,1,9,1,,,,,,,,,,,,,"(0.75, 0.04)",images/min4.png,10,,,0.0690678975079,0.538653948577,[-0.6703125  -0.03055556],,,,,,,['num_4'],,,,2018_Jun_16_1603,59.6397392392,sequenceLearningTask,001,127,
min1.png,min2.png,min3.png,min4.png,images/allBlank.png,"['num_7', 'num_4', 'num_1', 'num_0']",['num_4'],num_4,[2],'num_4',images/min2.png,"[(0.45, 0.79)]",,,,,0,-1,-1,0,2,1,9,1,,,,,,,,,,,,,"(-0.75, 0.04)",images/min1.png,10,,,0.065550358966,0.660190358991,[ 0.6046875   0.00833333],,,,,,,['num_4'],,,,2018_Jun_16_1603,59.6397392392,sequenceLearningTask,001,127,
min1.png,min2.png,min3.png,min4.png,images/allBlank.png,"['num_7', 'num_4', 'num_1', 'num_0']",['num_0'],num_0,[4],'num_0',images/min4.png,"[(0.45, 0.79)]",,,,,0,-1,-1,0,2,2,10,3,,,,,,,,,,,,,"(-0.75, 0.04)",images/min1.png,11,,,0.0688865641132,0.702090256382,[-0.6265625   0.05833333],,,,,,,['num_0'],,,,2018_Jun_16_1603,59.6397392392,sequenceLearningTask,001,127,
min1.png,min2.png,min3.png,min4.png,images/allBlank.png,"['num_7', 'num_4', 'num_1', 'num_0']",['num_0'],num_0,[4],'num_0',images/min4.png,"[(0.45, 0.79)]",,,,,0,-1,-1,0,2,2,10,3,,,,,,,,,,,,,"(0.75, 0.04)",images/min4.png,11,,,0.0631725129206,0.555442871992,[-0.678125    0.01388889],,,,,,,['num_0'],,,,2018_Jun_16_1603,59.6397392392,sequenceLearningTask,001,127,
min1.png,min2.png,min3.png,min4.png,images/allBlank.png,"['num_7', 'num_4', 'num_1', 'num_0']",['num_0'],num_0,[4],'num_0',images/min4.png,"[(0.45, 0.79)]",,,,,0,-1,-1,0,2,2,10,3,,,,,,,,,,,,,"(-0.25, 0.04)",images/min2.png,11,,,0.0637345642317,0.494619076839,[ 0.7265625   0.04166667],,,,,,,['num_0'],,,,2018_Jun_16_1603,59.6397392392,sequenceLearningTask,001,127,
min1.png,min2.png,min3.png,min4.png,images/allBlank.png,"['num_7', 'num_4', 'num_1', 'num_0']",['num_0'],num_0,[4],'num_0',images/min4.png,"[(0.45, 0.79)]",,,,,0,-1,-1,0,2,2,10,3,,,,,,,,,,,,,"(-0.25, 0.04)",images/min2.png,11,,,0.0601091282442,0.514242461417,[-0.2078125   0.02222222],,,,,,,['num_0'],,,,2018_Jun_16_1603,59.6397392392,sequenceLearningTask,001,127,
min1.png,min2.png,min3.png,min4.png,images/allBlank.png,"['num_7', 'num_4', 'num_1', 'num_0']",['num_7'],num_7,[1],'num_7',images/min1.png,"[(0.45, 0.79)]",,,,,0,-1,-1,0,2,3,11,0,,,,,,,,,,,,,"(-0.25, 0.04)",images/min2.png,12,,,0.0520676923916,0.606348307803,[-0.2125      0.04722222],,,,,,,['num_7'],,,,2018_Jun_16_1603,59.6397392392,sequenceLearningTask,001,127,
min1.png,min2.png,min3.png,min4.png,images/allBlank.png,"['num_7', 'num_4', 'num_1', 'num_0']",['num_7'],num_7,[1],'num_7',images/min1.png,"[(0.45, 0.79)]",,,,,0,-1,-1,0,2,3,11,0,,,,,,,,,,,,,"(-0.25, 0.04)",images/min2.png,12,,,0.0590465639252,0.498077948811,[-0.15        0.00555556],,,,,,,['num_7'],,,,2018_Jun_16_1603,59.6397392392,sequenceLearningTask,001,127,
min1.png,min2.png,min3.png,min4.png,images/allBlank.png,"['num_7', 'num_4', 'num_1', 'num_0']",['num_7'],num_7,[1],'num_7',images/min1.png,"[(0.45, 0.79)]",,,,,0,-1,-1,0,2,3,11,0,,,,,,,,,,,,,"(0.75, 0.04)",images/min4.png,12,,,0.0568902562372,0.837365743471,[-0.1546875  -0.04722222],,,,,,,['num_7'],,,,2018_Jun_16_1603,59.6397392392,sequenceLearningTask,001,127,
min1.png,min2.png,min3.png,min4.png,images/allBlank.png,"['num_7', 'num_4', 'num_1', 'num_0']",['num_7'],num_7,[1],'num_7',images/min1.png,"[(0.45, 0.79)]",,,,,0,-1,-1,0,2,3,11,0,,,,,,,,,,,,,"(0.75, 0.04)",images/min4.png,12,,,0.0650953846052,1.26175261522,[ 0.590625    0.06944444],,,,,,,['num_7'],,,,2018_Jun_16_1603,59.6397392392,sequenceLearningTask,001,127,
min1.png,min2.png,min3.png,min4.png,images/allBlank.png,"['num_7', 'num_4', 'num_1', 'num_0']",['num_4'],num_4,[2],'num_4',images/min2.png,"[(0.45, 0.79)]",,,,,0,-1,-1,0,3,0,12,1,,,,,,,,,,,,,"(-0.25, 0.04)",images/min2.png,13,,,0.0737468719017,0.732129230862,[ 0.6828125  -0.00833333],,,,,,,['num_4'],,,,2018_Jun_16_1603,59.6397392392,sequenceLearningTask,001,127,
min1.png,min2.png,min3.png,min4.png,images/allBlank.png,"['num_7', 'num_4', 'num_1', 'num_0']",['num_4'],num_4,[2],'num_4',images/min2.png,"[(0.45, 0.79)]",,,,,0,-1,-1,0,3,0,12,1,,,,,,,,,,,,,"(0.75, 0.04)",images/min4.png,13,,,0.061920410255,0.860025846167,[-0.1921875   0.06944444],,,,,,,['num_4'],,,,2018_Jun_16_1603,59.6397392392,sequenceLearningTask,001,127,
min1.png,min2.png,min3.png,min4.png,images/allBlank.png,"['num_7', 'num_4', 'num_1', 'num_0']",['num_4'],num_4,[2],'num_4',images/min2.png,"[(0.45, 0.79)]",,,,,0,-1,-1,0,3,0,12,1,,,,,,,,,,,,,"(-0.75, 0.04)",images/min1.png,13,,,0.0590014359914,0.838712205179,[ 0.7890625   0.01666667],,,,,,,['num_4'],,,,2018_Jun_16_1603,59.6397392392,sequenceLearningTask,001,127,
min1.png,min2.png,min3.png,min4.png,images/allBlank.png,"['num_7', 'num_4', 'num_1', 'num_0']",['num_4'],num_4,[2],'num_4',images/min2.png,"[(0.45, 0.79)]",,,,,0,-1,-1,0,3,0,12,1,,,,,,,,,,,,,"(-0.25, 0.04)",images/min2.png,13,,,0.0576574357692,0.551587692462,[-0.6875 -0.05  ],,,,,,,['num_4'],,,,2018_Jun_16_1603,59.6397392392,sequenceLearningTask,001,127,
min1.png,min2.png,min3.png,min4.png,images/allBlank.png,"['num_7', 'num_4', 'num_1', 'num_0']",['num_7'],num_7,[1],'num_7',images/min1.png,"[(0.45, 0.79)]",,,,,0,-1,-1,0,3,1,13,0,,,,,,,,,,,,,"(-0.75, 0.04)",images/min1.png,14,,,0.0576586667448,0.682452512905,[-0.21875    -0.16111111],,,,,,,['num_7'],,,,2018_Jun_16_1603,59.6397392392,sequenceLearningTask,001,127,
min1.png,min2.png,min3.png,min4.png,images/allBlank.png,"['num_7', 'num_4', 'num_1', 'num_0']",['num_7'],num_7,[1],'num_7',images/min1.png,"[(0.45, 0.79)]",,,,,0,-1,-1,0,3,1,13,0,,,,,,,,,,,,,"(0.25, 0.04)",images/min3.png,14,,,0.0553522051778,0.839843692258,[-0.7328125  -0.05833333],,,,,,,['num_7'],,,,2018_Jun_16_1603,59.6397392392,sequenceLearningTask,001,127,
min1.png,min2.png,min3.png,min4.png,images/allBlank.png,"['num_7', 'num_4', 'num_1', 'num_0']",['num_7'],num_7,[1],'num_7',images/min1.png,"[(0.45, 0.79)]",,,,,0,-1,-1,0,3,1,13,0,,,,,,,,,,,,,"(-0.25, 0.04)",images/min2.png,14,,,0.0636594872922,1.26610830752,[ 0.21875    -0.05277778],,,,,,,['num_7'],,,,2018_Jun_16_1603,59.6397392392,sequenceLearningTask,001,127,
min1.png,min2.png,min3.png,min4.png,images/allBlank.png,"['num_7', 'num_4', 'num_1', 'num_0']",['num_7'],num_7,[1],'num_7',images/min1.png,"[(0.45, 0.79)]",,,,,0,-1,-1,0,3,1,13,0,,,,,,,,,,,,,"(-0.25, 0.04)",images/min2.png,14,,,0.0617226667237,0.528554256307,[-0.2109375   0.03611111],,,,,,,['num_7'],,,,2018_Jun_16_1603,59.6397392392,sequenceLearningTask,001,127,
min1.png,min2.png,min3.png,min4.png,images/allBlank.png,"['num_7', 'num_4', 'num_1', 'num_0']",['num_0'],num_0,[4],'num_0',images/min4.png,"[(0.45, 0.79)]",,,,,0,-1,-1,0,3,2,14,3,,,,,,,,,,,,,"(-0.25, 0.04)",images/min2.png,15,,,0.0610982563812,0.515353846131,[-0.3078125   0.01388889],,,,,,,['num_0'],,,,2018_Jun_16_1603,59.6397392392,sequenceLearningTask,001,127,
min1.png,min2.png,min3.png,min4.png,images/allBlank.png,"['num_7', 'num_4', 'num_1', 'num_0']",['num_0'],num_0,[4],'num_0',images/min4.png,"[(0.45, 0.79)]",,,,,0,-1,-1,0,3,2,14,3,,,,,,,,,,,,,"(0.75, 0.04)",images/min4.png,15,,,0.0672672819346,0.523974564159,[-0.0921875 -0.075    ],,,,,,,['num_0'],,,,2018_Jun_16_1603,59.6397392392,sequenceLearningTask,001,127,
min1.png,min2.png,min3.png,min4.png,images/allBlank.png,"['num_7', 'num_4', 'num_1', 'num_0']",['num_0'],num_0,[4],'num_0',images/min4.png,"[(0.45, 0.79)]",,,,,0,-1,-1,0,3,2,14,3,,,,,,,,,,,,,"(-0.25, 0.04)",images/min2.png,15,,,0.0565579487011,0.503684512805,[ 0.7265625   0.01388889],,,,,,,['num_0'],,,,2018_Jun_16_1603,59.6397392392,sequenceLearningTask,001,127,
min1.png,min2.png,min3.png,min4.png,images/allBlank.png,"['num_7', 'num_4', 'num_1', 'num_0']",['num_0'],num_0,[4],'num_0',images/min4.png,"[(0.45, 0.79)]",,,,,0,-1,-1,0,3,2,14,3,,,,,,,,,,,,,"(0.75, 0.04)",images/min4.png,15,,,0.0640820513945,0.593059692299,[-0.265625   -0.06944444],,,,,,,['num_0'],,,,2018_Jun_16_1603,59.6397392392,sequenceLearningTask,001,127,
min1.png,min2.png,min3.png,min4.png,images/allBlank.png,"['num_7', 'num_4', 'num_1', 'num_0']",['num_1'],num_1,[3],'num_1',images/min3.png,"[(0.45, 0.79)]",,,,,0,-1,-1,0,3,3,15,2,,,,,,,,,,,,,"(0.25, 0.04)",images/min3.png,16,,,0.0567524102516,0.564611281967,[ 0.7609375  -0.08611111],,,,,,,['num_1'],,,,2018_Jun_16_1603,59.6397392392,sequenceLearningTask,001,127,
min1.png,min2.png,min3.png,min4.png,images/allBlank.png,"['num_7', 'num_4', 'num_1', 'num_0']",['num_1'],num_1,[3],'num_1',images/min3.png,"[(0.45, 0.79)]",,,,,0,-1,-1,0,3,3,15,2,,,,,,,,,,,,,"(0.25, 0.04)",images/min3.png,16,,,0.055456410395,0.485643487191,[ 0.2546875  0.       ],,,,,,,['num_1'],,,,2018_Jun_16_1603,59.6397392392,sequenceLearningTask,001,127,
min1.png,min2.png,min3.png,min4.png,images/allBlank.png,"['num_7', 'num_4', 'num_1', 'num_0']",['num_1'],num_1,[3],'num_1',images/min3.png,"[(0.45, 0.79)]",,,,,0,-1,-1,0,3,3,15,2,,,,,,,,,,,,,"(0.75, 0.04)",images/min4.png,16,,,0.0660898461938,0.554201846244,[ 0.2078125  -0.05833333],,,,,,,['num_1'],,,,2018_Jun_16_1603,59.6397392392,sequenceLearningTask,001,127,
min1.png,min2.png,min3.png,min4.png,images/allBlank.png,"['num_7', 'num_4', 'num_1', 'num_0']",['num_1'],num_1,[3],'num_1',images/min3.png,"[(0.45, 0.79)]",,,,,0,-1,-1,0,3,3,15,2,,,,,,,,,,,,,"(-0.25, 0.04)",images/min2.png,16,,,0.0600324103143,0.598301128251,[ 0.6359375   0.12222222],,,,,,,['num_1'],,,,2018_Jun_16_1603,59.6397392392,sequenceLearningTask,001,127,
min1.png,min2.png,min3.png,min4.png,images/allBlank.png,"['num_7', 'num_4', 'num_1', 'num_0']",['num_4'],num_4,[2],'num_4',images/min2.png,"[(0.45, 0.79)]",,,,,0,-1,-1,0,4,0,16,1,,,,,,,,,,,,,"(-0.75, 0.04)",images/min1.png,17,,,0.0662395898253,0.671761230798,[-0.2921875  -0.00555556],,,,,,,['num_4'],,,,2018_Jun_16_1603,59.6397392392,sequenceLearningTask,001,127,
min1.png,min2.png,min3.png,min4.png,images/allBlank.png,"['num_7', 'num_4', 'num_1', 'num_0']",['num_4'],num_4,[2],'num_4',images/min2.png,"[(0.45, 0.79)]",,,,,0,-1,-1,0,4,0,16,1,,,,,,,,,,,,,"(-0.75, 0.04)",images/min1.png,17,,,0.0763663589023,0.683377230773,[-0.709375   -0.06111111],,,,,,,['num_4'],,,,2018_Jun_16_1603,59.6397392392,sequenceLearningTask,001,127,
min1.png,min2.png,min3.png,min4.png,images/allBlank.png,"['num_7', 'num_4', 'num_1', 'num_0']",['num_4'],num_4,[2],'num_4',images/min2.png,"[(0.45, 0.79)]",,,,,0,-1,-1,0,4,0,16,1,,,,,,,,,,,,,"(0.25, 0.04)",images/min3.png,17,,,0.0645144614391,0.592117333552,[-0.7265625  -0.01388889],,,,,,,['num_4'],,,,2018_Jun_16_1603,59.6397392392,sequenceLearningTask,001,127,
min1.png,min2.png,min3.png,min4.png,images/allBlank.png,"['num_7', 'num_4', 'num_1', 'num_0']",['num_4'],num_4,[2],'num_4',images/min2.png,"[(0.45, 0.79)]",,,,,0,-1,-1,0,4,0,16,1,,,,,,,,,,,,,"(0.25, 0.04)",images/min3.png,17,,,0.0618966154289,0.531326358905,[ 0.234375   -0.08611111],,,,,,,['num_4'],,,,2018_Jun_16_1603,59.6397392392,sequenceLearningTask,001,127,
min1.png,min2.png,min3.png,min4.png,images/allBlank.png,"['num_7', 'num_4', 'num_1', 'num_0']",['num_0'],num_0,[4],'num_0',images/min4.png,"[(0.45, 0.79)]",,,,,0,-1,-1,0,4,1,17,3,,,,,,,,,,,,,"(0.25, 0.04)",images/min3.png,18,,,0.0620533332694,0.478180512786,[ 0.2234375  -0.14722222],,,,,,,['num_0'],,,,2018_Jun_16_1603,59.6397392392,sequenceLearningTask,001,127,
min1.png,min2.png,min3.png,min4.png,images/allBlank.png,"['num_7', 'num_4', 'num_1', 'num_0']",['num_0'],num_0,[4],'num_0',images/min4.png,"[(0.45, 0.79)]",,,,,0,-1,-1,0,4,1,17,3,,,,,,,,,,,,,"(-0.25, 0.04)",images/min2.png,18,,,0.0600402050186,0.546169435838,[ 0.2921875 -0.025    ],,,,,,,['num_0'],,,,2018_Jun_16_1603,59.6397392392,sequenceLearningTask,001,127,
min1.png,min2.png,min3.png,min4.png,images/allBlank.png,"['num_7', 'num_4', 'num_1', 'num_0']",['num_0'],num_0,[4],'num_0',images/min4.png,"[(0.45, 0.79)]",,,,,0,-1,-1,0,4,1,17,3,,,,,,,,,,,,,"(0.25, 0.04)",images/min3.png,18,,,0.0573054361157,0.616213333327,[-0.3234375   0.04722222],,,,,,,['num_0'],,,,2018_Jun_16_1603,59.6397392392,sequenceLearningTask,001,127,
min1.png,min2.png,min3.png,min4.png,images/allBlank.png,"['num_7', 'num_4', 'num_1', 'num_0']",['num_0'],num_0,[4],'num_0',images/min4.png,"[(0.45, 0.79)]",,,,,0,-1,-1,0,4,1,17,3,,,,,,,,,,,,,"(0.75, 0.04)",images/min4.png,18,,,0.126155897509,0.531025230652,[ 0.2203125  -0.01944444],,,,,,,['num_0'],,,,2018_Jun_16_1603,59.6397392392,sequenceLearningTask,001,127,
min1.png,min2.png,min3.png,min4.png,images/allBlank.png,"['num_7', 'num_4', 'num_1', 'num_0']",['num_7'],num_7,[1],'num_7',images/min1.png,"[(0.45, 0.79)]",,,,,0,-1,-1,0,4,2,18,0,,,,,,,,,,,,,"(-0.75, 0.04)",images/min1.png,19,,,0.0588549743406,0.598040205194,[ 0.6109375   0.08333333],,,,,,,['num_7'],,,,2018_Jun_16_1603,59.6397392392,sequenceLearningTask,001,127,
min1.png,min2.png,min3.png,min4.png,images/allBlank.png,"['num_7', 'num_4', 'num_1', 'num_0']",['num_7'],num_7,[1],'num_7',images/min1.png,"[(0.45, 0.79)]",,,,,0,-1,-1,0,4,2,18,0,,,,,,,,,,,,,"(0.25, 0.04)",images/min3.png,19,,,0.055903179571,0.618191589601,[-0.7        -0.08888889],,,,,,,['num_7'],,,,2018_Jun_16_1603,59.6397392392,sequenceLearningTask,001,127,
min1.png,min2.png,min3.png,min4.png,images/allBlank.png,"['num_7', 'num_4', 'num_1', 'num_0']",['num_7'],num_7,[1],'num_7',images/min1.png,"[(0.45, 0.79)]",,,,,0,-1,-1,0,4,2,18,0,,,,,,,,,,,,,"(0.25, 0.04)",images/min3.png,19,,,0.0613132307772,0.598708102712,[ 0.26875    -0.13611111],,,,,,,['num_7'],,,,2018_Jun_16_1603,59.6397392392,sequenceLearningTask,001,127,
min1.png,min2.png,min3.png,min4.png,images/allBlank.png,"['num_7', 'num_4', 'num_1', 'num_0']",['num_7'],num_7,[1],'num_7',images/min1.png,"[(0.45, 0.79)]",,,,,0,-1,-1,0,4,2,18,0,,,,,,,,,,,,,"(0.75, 0.04)",images/min4.png,19,,,0.05675610248,0.600812307792,[ 0.159375   -0.08055556],,,,,,,['num_7'],,,,2018_Jun_16_1603,59.6397392392,sequenceLearningTask,001,127,
min1.png,min2.png,min3.png,min4.png,images/allBlank.png,"['num_7', 'num_4', 'num_1', 'num_0']",['num_1'],num_1,[3],'num_1',images/min3.png,"[(0.45, 0.79)]",,,,,0,-1,-1,0,4,3,19,2,,,,,,,,,,,,,"(0.25, 0.04)",images/min3.png,20,,,0.056410666788,0.601501948899,[ 0.6421875 -0.1      ],,,,,,,['num_1'],,,,2018_Jun_16_1603,59.6397392392,sequenceLearningTask,001,127,
min1.png,min2.png,min3.png,min4.png,images/allBlank.png,"['num_7', 'num_4', 'num_1', 'num_0']",['num_1'],num_1,[3],'num_1',images/min3.png,"[(0.45, 0.79)]",,,,,0,-1,-1,0,4,3,19,2,,,,,,,,,,,,,"(0.75, 0.04)",images/min4.png,20,,,0.0630781538785,0.62811897439,[ 0.13125    -0.06944444],,,,,,,['num_1'],,,,2018_Jun_16_1603,59.6397392392,sequenceLearningTask,001,127,
min1.png,min2.png,min3.png,min4.png,images/allBlank.png,"['num_7', 'num_4', 'num_1', 'num_0']",['num_1'],num_1,[3],'num_1',images/min3.png,"[(0.45, 0.79)]",,,,,0,-1,-1,0,4,3,19,2,,,,,,,,,,,,,"(-0.25, 0.04)",images/min2.png,20,,,0.0556402052753,0.597304205177,[ 0.7015625   0.05833333],,,,,,,['num_1'],,,,2018_Jun_16_1603,59.6397392392,sequenceLearningTask,001,127,
min1.png,min2.png,min3.png,min4.png,images/allBlank.png,"['num_7', 'num_4', 'num_1', 'num_0']",['num_1'],num_1,[3],'num_1',images/min3.png,"[(0.45, 0.79)]",,,,,0,-1,-1,0,4,3,19,2,,,,,,,,,,,,,"(-0.75, 0.04)",images/min1.png,20,,,0.0694482051767,0.638124307618,[-0.2703125  -0.01388889],,,,,,,['num_1'],,,,2018_Jun_16_1603,59.6397392392,sequenceLearningTask,001,127,
min1.png,min2.png,min3.png,min4.png,images/allBlank.png,"['num_7', 'num_4', 'num_1', 'num_0']",['num_4'],num_4,[2],'num_4',images/min2.png,"[(0.45, 0.79)]",,,,,0,-1,-1,0,0,0,0,1,,,,,,,,,,,,,"(0.25, 0.04)",images/min3.png,1,,,0.0306252308656,0.560697846347,[ 0.1484375  -0.09722222],,,,,,,['num_4'],,,,2018_Jun_16_1603,59.6397392392,sequenceLearningTask,001,127,
min1.png,min2.png,min3.png,min4.png,images/allBlank.png,"['num_7', 'num_4', 'num_1', 'num_0']",['num_4'],num_4,[2],'num_4',images/min2.png,"[(0.45, 0.79)]",,,,,0,-1,-1,0,0,0,0,1,,,,,,,,,,,,,"(0.25, 0.04)",images/min3.png,1,,,0.058407794917,0.534498051275,[ 0.2953125  -0.03333333],,,,,,,['num_4'],,,,2018_Jun_16_1603,59.6397392392,sequenceLearningTask,001,127,
min1.png,min2.png,min3.png,min4.png,images/allBlank.png,"['num_7', 'num_4', 'num_1', 'num_0']",['num_4'],num_4,[2],'num_4',images/min2.png,"[(0.45, 0.79)]",,,,,0,-1,-1,0,0,0,0,1,,,,,,,,,,,,,"(0.25, 0.04)",images/min3.png,1,,,0.0556274871342,0.487602461595,[ 0.2625      0.05555556],,,,,,,['num_4'],,,,2018_Jun_16_1603,59.6397392392,sequenceLearningTask,001,127,
min1.png,min2.png,min3.png,min4.png,images/allBlank.png,"['num_7', 'num_4', 'num_1', 'num_0']",['num_4'],num_4,[2],'num_4',images/min2.png,"[(0.45, 0.79)]",,,,,0,-1,-1,0,0,0,0,1,,,,,,,,,,,,,"(-0.25, 0.04)",images/min2.png,1,,,0.0687232820783,0.554877948714,[ 0.2390625   0.04166667],,,,,,,['num_4'],,,,2018_Jun_16_1603,59.6397392392,sequenceLearningTask,001,127,
min1.png,min2.png,min3.png,min4.png,images/allBlank.png,"['num_7', 'num_4', 'num_1', 'num_0']",['num_0'],num_0,[4],'num_0',images/min4.png,"[(0.45, 0.79)]",,,,,0,-1,-1,0,0,1,1,3,,,,,,,,,,,,,"(0.75, 0.04)",images/min4.png,2,,,0.0642830769066,0.541132307611,[-0.1765625 -0.075    ],,,,,,,['num_0'],,,,2018_Jun_16_1603,59.6397392392,sequenceLearningTask,001,127,
min1.png,min2.png,min3.png,min4.png,images/allBlank.png,"['num_7', 'num_4', 'num_1', 'num_0']",['num_0'],num_0,[4],'num_0',images/min4.png,"[(0.45, 0.79)]",,,,,0,-1,-1,0,0,1,1,3,,,,,,,,,,,,,"(-0.75, 0.04)",images/min1.png,2,0.557077743812,1,0.0623716923874,0.605920000002,[ 0.6921875  -0.00833333],,,,,,,['num_0'],,,,2018_Jun_16_1603,59.6397392392,sequenceLearningTask,001,127,
min1.png,min2.png,min3.png,min4.png,images/allBlank.png,"['num_7', 'num_4', 'num_1', 'num_0']",['num_0'],num_0,[4],'num_0',images/min4.png,"[(0.45, 0.79)]",,,,,0,-1,-1,0,0,1,1,3,,,,,,,,,,,,,"(0.75, 0.04)",images/min4.png,2,,,0.0656406152993,0.695670153713,[-0.646875   -0.01388889],,,,,,,['num_0'],,,,2018_Jun_16_1603,59.6397392392,sequenceLearningTask,001,127,
min1.png,min2.png,min3.png,min4.png,images/allBlank.png,"['num_7', 'num_4', 'num_1', 'num_0']",['num_0'],num_0,[4],'num_0',images/min4.png,"[(0.45, 0.79)]",,,,,0,-1,-1,0,0,1,1,3,,,,,,,,,,,,,"(-0.25, 0.04)",images/min2.png,2,,,0.0663667691406,0.49154584622,[ 0.6546875   0.11388889],,,,,,,['num_0'],,,,2018_Jun_16_1603,59.6397392392,sequenceLearningTask,001,127,
min1.png,min2.png,min3.png,min4.png,images/allBlank.png,"['num_7', 'num_4', 'num_1', 'num_0']",['num_7'],num_7,[1],'num_7',images/min1.png,"[(0.45, 0.79)]",,,,,0,-1,-1,0,0,2,2,0,,,,,,,,,,,,,"(0.25, 0.04)",images/min3.png,3,,,0.05921887164,0.507610256318,[-0.14375     0.06388889],,,,,,,['num_7'],,,,2018_Jun_16_1603,59.6397392392,sequenceLearningTask,001,127,
min1.png,min2.png,min3.png,min4.png,images/allBlank.png,"['num_7', 'num_4', 'num_1', 'num_0']",['num_7'],num_7,[1],'num_7',images/min1.png,"[(0.45, 0.79)]",,,,,0,-1,-1,0,0,2,2,0,,,,,,,,,,,,,"(0.75, 0.04)",images/min4.png,3,,,0.0617386666127,0.473652102519,[ 0.2359375   0.08055556],,,,,,,['num_7'],,,,2018_Jun_16_1603,59.6397392392,sequenceLearningTask,001,127,
min1.png,min2.png,min3.png,min4.png,images/allBlank.png,"['num_7', 'num_4', 'num_1', 'num_0']",['num_7'],num_7,[1],'num_7',images/min1.png,"[(0.45, 0.79)]",,,,,0,-1,-1,0,0,2,2,0,,,,,,,,,,,,,"(0.75, 0.04)",images/min4.png,3,,,0.0638445126824,0.66316020512,[ 0.7359375  0.125    ],,,,,,,['num_7'],,,,2018_Jun_16_1603,59.6397392392,sequenceLearningTask,001,127,
min1.png,min2.png,min3.png,min4.png,images/allBlank.png,"['num_7', 'num_4', 'num_1', 'num_0']",['num_7'],num_7,[1],'num_7',images/min1.png,"[(0.45, 0.79)]",,,,,0,-1,-1,0,0,2,2,0,,,,,,,,,,,,,"(0.25, 0.04)",images/min3.png,3,,,0.0620570254978,0.562376205111,[ 0.7421875   0.03611111],,,,,,,['num_7'],,,,2018_Jun_16_1603,59.6397392392,sequenceLearningTask,001,127,
min1.png,min2.png,min3.png,min4.png,images/allBlank.png,"['num_7', 'num_4', 'num_1', 'num_0']",['num_1'],num_1,[3],'num_1',images/min3.png,"[(0.45, 0.79)]",,,,,0,-1,-1,0,0,3,3,2,,,,,,,,,,,,,"(0.25, 0.04)",images/min3.png,4,,,0.0587569230702,0.593799384544,[ 0.26875     0.08611111],,,,,,,['num_1'],,,,2018_Jun_16_1603,59.6397392392,sequenceLearningTask,001,127,
min1.png,min2.png,min3.png,min4.png,images/allBlank.png,"['num_7', 'num_4', 'num_1', 'num_0']",['num_1'],num_1,[3],'num_1',images/min3.png,"[(0.45, 0.79)]",,,,,0,-1,-1,0,0,3,3,2,,,,,,,,,,,,,"(0.75, 0.04)",images/min4.png,4,,,0.0683856410906,0.605327999918,[ 0.321875  0.125   ],,,,,,,['num_1'],,,,2018_Jun_16_1603,59.6397392392,sequenceLearningTask,001,127,
min1.png,min2.png,min3.png,min4.png,images/allBlank.png,"['num_7', 'num_4', 'num_1', 'num_0']",['num_1'],num_1,[3],'num_1',images/min3.png,"[(0.45, 0.79)]",,,,,0,-1,-1,0,0,3,3,2,,,,,,,,,,,,,"(-0.25, 0.04)",images/min2.png,4,,,0.0600578461308,0.601356307743,[ 0.8125      0.08611111],,,,,,,['num_1'],,,,2018_Jun_16_1603,59.6397392392,sequenceLearningTask,001,127,
min1.png,min2.png,min3.png,min4.png,images/allBlank.png,"['num_7', 'num_4', 'num_1', 'num_0']",['num_1'],num_1,[3],'num_1',images/min3.png,"[(0.45, 0.79)]",,,,,0,-1,-1,0,0,3,3,2,,,,,,,,,,,,,"(-0.25, 0.04)",images/min2.png,4,,,0.0604061540216,0.532084512757,[-0.240625  0.025   ],,,,,,,['num_1'],,,,2018_Jun_16_1603,59.6397392392,sequenceLearningTask,001,127,
min1.png,min2.png,min3.png,min4.png,images/allBlank.png,"['num_7', 'num_4', 'num_1', 'num_0']",['num_0'],num_0,[4],'num_0',images/min4.png,"[(0.45, 0.79)]",,,,,0,-1,-1,0,1,0,4,3,,,,,,,,,,,,,"(0.75, 0.04)",images/min4.png,5,,,0.0653029743116,0.674873846117,[-0.3140625  -0.05277778],,,,,,,['num_0'],,,,2018_Jun_16_1603,59.6397392392,sequenceLearningTask,001,127,
min1.png,min2.png,min3.png,min4.png,images/allBlank.png,"['num_7', 'num_4', 'num_1', 'num_0']",['num_0'],num_0,[4],'num_0',images/min4.png,"[(0.45, 0.79)]",,,,,0,-1,-1,0,1,0,4,3,,,,,,,,,,,,,"(0.25, 0.04)",images/min3.png,5,,,0.0567306666635,0.523021128261,[ 0.709375    0.13611111],,,,,,,['num_0'],,,,2018_Jun_16_1603,59.6397392392,sequenceLearningTask,001,127,
min1.png,min2.png,min3.png,min4.png,images/allBlank.png,"['num_7', 'num_4', 'num_1', 'num_0']",['num_0'],num_0,[4],'num_0',images/min4.png,"[(0.45, 0.79)]",,,,,0,-1,-1,0,1,0,4,3,,,,,,,,,,,,,"(-0.75, 0.04)",images/min1.png,5,0.267632820643,1,0.0557230769191,0.907556512859,[ 0.2765625  0.125    ],,,,,,,['num_0'],,,,2018_Jun_16_1603,59.6397392392,sequenceLearningTask,001,127,
min1.png,min2.png,min3.png,min4.png,images/allBlank.png,"['num_7', 'num_4', 'num_1', 'num_0']",['num_0'],num_0,[4],'num_0',images/min4.png,"[(0.45, 0.79)]",,,,,0,-1,-1,0,1,0,4,3,,,,,,,,,,,,,"(-0.25, 0.04)",images/min2.png,5,,,0.0795122049749,0.496245333226,[-0.728125    0.13611111],,,,,,,['num_0'],,,,2018_Jun_16_1603,59.6397392392,sequenceLearningTask,001,127,
min1.png,min2.png,min3.png,min4.png,images/allBlank.png,"['num_7', 'num_4', 'num_1', 'num_0']",['num_1'],num_1,[3],'num_1',images/min3.png,"[(0.45, 0.79)]",,,,,0,-1,-1,0,1,1,5,2,,,,,,,,,,,,,"(-0.75, 0.04)",images/min1.png,6,,,0.0731216410641,1.62204020517,[-0.2203125   0.05277778],,,,,,,['num_1'],,,,2018_Jun_16_1603,59.6397392392,sequenceLearningTask,001,127,
min1.png,min2.png,min3.png,min4.png,images/allBlank.png,"['num_7', 'num_4', 'num_1', 'num_0']",['num_1'],num_1,[3],'num_1',images/min3.png,"[(0.45, 0.79)]",,,,,0,-1,-1,0,1,1,5,2,,,,,,,,,,,,,"(0.25, 0.04)",images/min3.png,6,,,0.0612730258144,1.73890502565,[-0.7515625  -0.03888889],,,,,,,['num_1'],,,,2018_Jun_16_1603,59.6397392392,sequenceLearningTask,001,127,
min1.png,min2.png,min3.png,min4.png,images/allBlank.png,"['num_7', 'num_4', 'num_1', 'num_0']",['num_1'],num_1,[3],'num_1',images/min3.png,"[(0.45, 0.79)]",,,,,0,-1,-1,0,1,1,5,2,,,,,,,,,,,,,"(-0.75, 0.04)",images/min1.png,6,,,0.0664451280609,0.776237538317,[ 0.2984375   0.08055556],,,,,,,['num_1'],,,,2018_Jun_16_1603,59.6397392392,sequenceLearningTask,001,127,
min1.png,min2.png,min3.png,min4.png,images/allBlank.png,"['num_7', 'num_4', 'num_1', 'num_0']",['num_1'],num_1,[3],'num_1',images/min3.png,"[(0.45, 0.79)]",,,,,0,-1,-1,0,1,1,5,2,,,,,,,,,,,,,"(-0.75, 0.04)",images/min1.png,6,,,0.0604713845532,0.658155487152,[-0.6796875   0.04166667],,,,,,,['num_1'],,,,2018_Jun_16_1603,59.6397392392,sequenceLearningTask,001,127,
min1.png,min2.png,min3.png,min4.png,images/allBlank.png,"['num_7', 'num_4', 'num_1', 'num_0']",['num_4'],num_4,[2],'num_4',images/min2.png,"[(0.45, 0.79)]",,,,,0,-1,-1,0,1,2,6,1,,,,,,,,,,,,,"(0.75, 0.04)",images/min4.png,7,,,0.0742461539339,0.716612512711,[-0.6640625  -0.00555556],,,,,,,['num_4'],,,,2018_Jun_16_1603,59.6397392392,sequenceLearningTask,001,127,
min1.png,min2.png,min3.png,min4.png,images/allBlank.png,"['num_7', 'num_4', 'num_1', 'num_0']",['num_4'],num_4,[2],'num_4',images/min2.png,"[(0.45, 0.79)]",,,,,0,-1,-1,0,1,2,6,1,,,,,,,,,,,,,"(-0.25, 0.04)",images/min2.png,7,,,0.0624073846266,0.490189538337,[ 0.6578125   0.00833333],,,,,,,['num_4'],,,,2018_Jun_16_1603,59.6397392392,sequenceLearningTask,001,127,
min1.png,min2.png,min3.png,min4.png,images/allBlank.png,"['num_7', 'num_4', 'num_1', 'num_0']",['num_4'],num_4,[2],'num_4',images/min2.png,"[(0.45, 0.79)]",,,,,0,-1,-1,0,1,2,6,1,,,,,,,,,,,,,"(0.25, 0.04)",images/min3.png,7,,,0.0587101539131,0.607325948775,[-0.1921875   0.06666667],,,,,,,['num_4'],,,,2018_Jun_16_1603,59.6397392392,sequenceLearningTask,001,127,
min1.png,min2.png,min3.png,min4.png,images/allBlank.png,"['num_7', 'num_4', 'num_1', 'num_0']",['num_4'],num_4,[2],'num_4',images/min2.png,"[(0.45, 0.79)]",,,,,0,-1,-1,0,1,2,6,1,,,,,,,,,,,,,"(0.75, 0.04)",images/min4.png,7,,,0.057639794657,0.511026461609,[ 0.2578125   0.03055556],,,,,,,['num_4'],,,,2018_Jun_16_1603,59.6397392392,sequenceLearningTask,001,127,
min1.png,min2.png,min3.png,min4.png,images/allBlank.png,"['num_7', 'num_4', 'num_1', 'num_0']",['num_7'],num_7,[1],'num_7',images/min1.png,"[(0.45, 0.79)]",,,,,0,-1,-1,0,1,3,7,0,,,,,,,,,,,,,"(-0.25, 0.04)",images/min2.png,8,,,0.0765862565022,0.679066256387,[ 0.7046875  -0.03055556],,,,,,,['num_7'],,,,2018_Jun_16_1603,59.6397392392,sequenceLearningTask,001,127,
min1.png,min2.png,min3.png,min4.png,images/allBlank.png,"['num_7', 'num_4', 'num_1', 'num_0']",['num_7'],num_7,[1],'num_7',images/min1.png,"[(0.45, 0.79)]",,,,,0,-1,-1,0,1,3,7,0,,,,,,,,,,,,,"(0.75, 0.04)",images/min4.png,8,,,0.0681152821053,0.707433435833,[-0.2546875   0.01944444],,,,,,,['num_7'],,,,2018_Jun_16_1603,59.6397392392,sequenceLearningTask,001,127,
min1.png,min2.png,min3.png,min4.png,images/allBlank.png,"['num_7', 'num_4', 'num_1', 'num_0']",['num_7'],num_7,[1],'num_7',images/min1.png,"[(0.45, 0.79)]",,,,,0,-1,-1,0,1,3,7,0,,,,,,,,,,,,,"(0.25, 0.04)",images/min3.png,8,,,0.0552270768676,0.520361025585,[ 0.7796875  -0.05277778],,,,,,,['num_7'],,,,2018_Jun_16_1603,59.6397392392,sequenceLearningTask,001,127,
min1.png,min2.png,min3.png,min4.png,images/allBlank.png,"['num_7', 'num_4', 'num_1', 'num_0']",['num_7'],num_7,[1],'num_7',images/min1.png,"[(0.45, 0.79)]",,,,,0,-1,-1,0,1,3,7,0,,,,,,,,,,,,,"(-0.75, 0.04)",images/min1.png,8,,,0.0605714870617,0.693996307673,[ 0.2421875  -0.09166667],,,,,,,['num_7'],,,,2018_Jun_16_1603,59.6397392392,sequenceLearningTask,001,127,
min1.png,min2.png,min3.png,min4.png,images/allBlank.png,"['num_7', 'num_4', 'num_1', 'num_0']",['num_1'],num_1,[3],'num_1',images/min3.png,"[(0.45, 0.79)]",,,,,0,-1,-1,0,2,0,8,2,,,,,,,,,,,,,"(0.25, 0.04)",images/min3.png,9,,,0.0638670767657,0.557428923203,[-0.7078125  -0.06944444],,,,,,,['num_1'],,,,2018_Jun_16_1603,59.6397392392,sequenceLearningTask,001,127,
min1.png,min2.png,min3.png,min4.png,images/allBlank.png,"['num_7', 'num_4', 'num_1', 'num_0']",['num_1'],num_1,[3],'num_1',images/min3.png,"[(0.45, 0.79)]",,,,,0,-1,-1,0,2,0,8,2,,,,,,,,,,,,,"(-0.75, 0.04)",images/min1.png,9,,,0.0680168205872,0.707561025629,[ 0.2953125  -0.01388889],,,,,,,['num_1'],,,,2018_Jun_16_1603,59.6397392392,sequenceLearningTask,001,127,
min1.png,min2.png,min3.png,min4.png,images/allBlank.png,"['num_7', 'num_4', 'num_1', 'num_0']",['num_1'],num_1,[3],'num_1',images/min3.png,"[(0.45, 0.79)]",,,,,0,-1,-1,0,2,0,8,2,,,,,,,,,,,,,"(0.25, 0.04)",images/min3.png,9,,,0.0621349744033,0.493796512717,[-0.5484375   0.02222222],,,,,,,['num_1'],,,,2018_Jun_16_1603,59.6397392392,sequenceLearningTask,001,127,
min1.png,min2.png,min3.png,min4.png,images/allBlank.png,"['num_7', 'num_4', 'num_1', 'num_0']",['num_1'],num_1,[3],'num_1',images/min3.png,"[(0.45, 0.79)]",,,,,0,-1,-1,0,2,0,8,2,,,,,,,,,,,,,"(-0.75, 0.04)",images/min1.png,9,,,0.0577485128306,0.599603692302,[ 0.23125    -0.07222222],,,,,,,['num_1'],,,,2018_Jun_16_1603,59.6397392392,sequenceLearningTask,001,127,
min1.png,min2.png,min3.png,min4.png,images/allBlank.png,"['num_7', 'num_4', 'num_1', 'num_0']",['num_0'],num_0,[4],'num_0',images/min4.png,"[(0.45, 0.79)]",,,,,0,-1,-1,0,2,1,9,3,,,,,,,,,,,,,"(0.75, 0.04)",images/min4.png,10,,,0.0665981536731,0.656385230832,[-0.5640625   0.19722222],,,,,,,['num_0'],,,,2018_Jun_16_1603,59.6397392392,sequenceLearningTask,001,127,
min1.png,min2.png,min3.png,min4.png,images/allBlank.png,"['num_7', 'num_4', 'num_1', 'num_0']",['num_0'],num_0,[4],'num_0',images/min4.png,"[(0.45, 0.79)]",,,,,0,-1,-1,0,2,1,9,3,,,,,,,,,,,,,"(-0.75, 0.04)",images/min1.png,10,1.44455712824,1,0.0627708716784,2.53653415386,[ 0.734375    0.14722222],,,,,,,['num_0'],,,,2018_Jun_16_1603,59.6397392392,sequenceLearningTask,001,127,
min1.png,min2.png,min3.png,min4.png,images/allBlank.png,"['num_7', 'num_4', 'num_1', 'num_0']",['num_0'],num_0,[4],'num_0',images/min4.png,"[(0.45, 0.79)]",,,,,0,-1,-1,0,2,1,9,3,,,,,,,,,,,,,"(0.75, 0.04)",images/min4.png,10,,,0.0674293332268,0.692537025781,[-0.7296875  -0.03611111],,,,,,,['num_0'],,,,2018_Jun_16_1603,59.6397392392,sequenceLearningTask,001,127,
min1.png,min2.png,min3.png,min4.png,images/allBlank.png,"['num_7', 'num_4', 'num_1', 'num_0']",['num_0'],num_0,[4],'num_0',images/min4.png,"[(0.45, 0.79)]",,,,,0,-1,-1,0,2,1,9,3,,,,,,,,,,,,,"(0.25, 0.04)",images/min3.png,10,,,0.0677669744473,0.504869333468,[ 0.6640625   0.03611111],,,,,,,['num_0'],,,,2018_Jun_16_1603,59.6397392392,sequenceLearningTask,001,127,
min1.png,min2.png,min3.png,min4.png,images/allBlank.png,"['num_7', 'num_4', 'num_1', 'num_0']",['num_7'],num_7,[1],'num_7',images/min1.png,"[(0.45, 0.79)]",,,,,0,-1,-1,0,2,2,10,0,,,,,,,,,,,,,"(0.25, 0.04)",images/min3.png,11,,,0.0589062564541,0.542690871982,[ 0.128125  0.125   ],,,,,,,['num_7'],,,,2018_Jun_16_1603,59.6397392392,sequenceLearningTask,001,127,
min1.png,min2.png,min3.png,min4.png,images/allBlank.png,"['num_7', 'num_4', 'num_1', 'num_0']",['num_7'],num_7,[1],'num_7',images/min1.png,"[(0.45, 0.79)]",,,,,0,-1,-1,0,2,2,10,0,,,,,,,,,,,,,"(-0.25, 0.04)",images/min2.png,11,,,0.0699885126669,0.587031384697,[ 0.215625   -0.04166667],,,,,,,['num_7'],,,,2018_Jun_16_1603,59.6397392392,sequenceLearningTask,001,127,
min1.png,min2.png,min3.png,min4.png,images/allBlank.png,"['num_7', 'num_4', 'num_1', 'num_0']",['num_7'],num_7,[1],'num_7',images/min1.png,"[(0.45, 0.79)]",,,,,0,-1,-1,0,2,2,10,0,,,,,,,,,,,,,"(0.75, 0.04)",images/min4.png,11,,,0.0625833845697,1.12651323061,[-0.2953125 -0.075    ],,,,,,,['num_7'],,,,2018_Jun_16_1603,59.6397392392,sequenceLearningTask,001,127,
min1.png,min2.png,min3.png,min4.png,images/allBlank.png,"['num_7', 'num_4', 'num_1', 'num_0']",['num_7'],num_7,[1],'num_7',images/min1.png,"[(0.45, 0.79)]",,,,,0,-1,-1,0,2,2,10,0,,,,,,,,,,,,,"(-0.75, 0.04)",images/min1.png,11,,,0.0584106666502,0.801540512824,[ 0.75625    -0.00277778],,,,,,,['num_7'],,,,2018_Jun_16_1603,59.6397392392,sequenceLearningTask,001,127,
min1.png,min2.png,min3.png,min4.png,images/allBlank.png,"['num_7', 'num_4', 'num_1', 'num_0']",['num_4'],num_4,[2],'num_4',images/min2.png,"[(0.45, 0.79)]",,,,,0,-1,-1,0,2,3,11,1,,,,,,,,,,,,,"(-0.75, 0.04)",images/min1.png,12,,,0.0605837949552,0.781898256391,[-0.7453125   0.07222222],,,,,,,['num_4'],,,,2018_Jun_16_1603,59.6397392392,sequenceLearningTask,001,127,
min1.png,min2.png,min3.png,min4.png,images/allBlank.png,"['num_7', 'num_4', 'num_1', 'num_0']",['num_4'],num_4,[2],'num_4',images/min2.png,"[(0.45, 0.79)]",,,,,0,-1,-1,0,2,3,11,1,,,,,,,,,,,,,"(-0.75, 0.04)",images/min1.png,12,,,0.0646695382893,0.770864820573,[-0.8171875  -0.01388889],,,,,,,['num_4'],,,,2018_Jun_16_1603,59.6397392392,sequenceLearningTask,001,127,
min1.png,min2.png,min3.png,min4.png,images/allBlank.png,"['num_7', 'num_4', 'num_1', 'num_0']",['num_4'],num_4,[2],'num_4',images/min2.png,"[(0.45, 0.79)]",,,,,0,-1,-1,0,2,3,11,1,,,,,,,,,,,,,"(0.75, 0.04)",images/min4.png,12,,,0.0564311794005,0.958743384806,[-0.7765625 -0.125    ],,,,,,,['num_4'],,,,2018_Jun_16_1603,59.6397392392,sequenceLearningTask,001,127,
min1.png,min2.png,min3.png,min4.png,images/allBlank.png,"['num_7', 'num_4', 'num_1', 'num_0']",['num_4'],num_4,[2],'num_4',images/min2.png,"[(0.45, 0.79)]",,,,,0,-1,-1,0,2,3,11,1,,,,,,,,,,,,,"(0.75, 0.04)",images/min4.png,12,,,0.057673435891,0.552259692457,[ 0.8671875   0.05555556],,,,,,,['num_4'],,,,2018_Jun_16_1603,59.6397392392,sequenceLearningTask,001,127,
min1.png,min2.png,min3.png,min4.png,images/allBlank.png,"['num_7', 'num_4', 'num_1', 'num_0']",['num_4'],num_4,[2],'num_4',images/min2.png,"[(0.45, 0.79)]",,,,,0,-1,-1,0,3,0,12,1,,,,,,,,,,,,,"(-0.25, 0.04)",images/min2.png,13,,,0.053332102485,0.619237743551,[ 0.728125    0.09722222],,,,,,,['num_4'],,,,2018_Jun_16_1603,59.6397392392,sequenceLearningTask,001,127,
min1.png,min2.png,min3.png,min4.png,images/allBlank.png,"['num_7', 'num_4', 'num_1', 'num_0']",['num_4'],num_4,[2],'num_4',images/min2.png,"[(0.45, 0.79)]",,,,,0,-1,-1,0,3,0,12,1,,,,,,,,,,,,,"(0.75, 0.04)",images/min4.png,13,,,0.0622547692619,0.73011815385,[-0.3078125  -0.14444444],,,,,,,['num_4'],,,,2018_Jun_16_1603,59.6397392392,sequenceLearningTask,001,127,
min1.png,min2.png,min3.png,min4.png,images/allBlank.png,"['num_7', 'num_4', 'num_1', 'num_0']",['num_4'],num_4,[2],'num_4',images/min2.png,"[(0.45, 0.79)]",,,,,0,-1,-1,0,3,0,12,1,,,,,,,,,,,,,"(0.75, 0.04)",images/min4.png,13,,,0.0610642051324,0.614346666727,[ 0.746875   -0.06388889],,,,,,,['num_4'],,,,2018_Jun_16_1603,59.6397392392,sequenceLearningTask,001,127,
min1.png,min2.png,min3.png,min4.png,images/allBlank.png,"['num_7', 'num_4', 'num_1', 'num_0']",['num_4'],num_4,[2],'num_4',images/min2.png,"[(0.45, 0.79)]",,,,,0,-1,-1,0,3,0,12,1,,,,,,,,,,,,,"(-0.25, 0.04)",images/min2.png,13,,,0.0604820512235,0.675956923049,[ 0.7453125   0.03333333],,,,,,,['num_4'],,,,2018_Jun_16_1603,59.6397392392,sequenceLearningTask,001,127,
min1.png,min2.png,min3.png,min4.png,images/allBlank.png,"['num_7', 'num_4', 'num_1', 'num_0']",['num_1'],num_1,[3],'num_1',images/min3.png,"[(0.45, 0.79)]",,,,,0,-1,-1,0,3,1,13,2,,,,,,,,,,,,,"(-0.25, 0.04)",images/min2.png,14,,,0.0556812307332,0.680379077094,[-0.16875    -0.03055556],,,,,,,['num_1'],,,,2018_Jun_16_1603,59.6397392392,sequenceLearningTask,001,127,
min1.png,min2.png,min3.png,min4.png,images/allBlank.png,"['num_7', 'num_4', 'num_1', 'num_0']",['num_1'],num_1,[3],'num_1',images/min3.png,"[(0.45, 0.79)]",,,,,0,-1,-1,0,3,1,13,2,,,,,,,,,,,,,"(-0.25, 0.04)",images/min2.png,14,,,0.0695577436127,0.610610461561,[-0.2140625  -0.04722222],,,,,,,['num_1'],,,,2018_Jun_16_1603,59.6397392392,sequenceLearningTask,001,127,
min1.png,min2.png,min3.png,min4.png,images/allBlank.png,"['num_7', 'num_4', 'num_1', 'num_0']",['num_1'],num_1,[3],'num_1',images/min3.png,"[(0.45, 0.79)]",,,,,0,-1,-1,0,3,1,13,2,,,,,,,,,,,,,"(-0.25, 0.04)",images/min2.png,14,,,0.0546055384912,0.537936410168,[-0.246875   -0.11388889],,,,,,,['num_1'],,,,2018_Jun_16_1603,59.6397392392,sequenceLearningTask,001,127,
min1.png,min2.png,min3.png,min4.png,images/allBlank.png,"['num_7', 'num_4', 'num_1', 'num_0']",['num_1'],num_1,[3],'num_1',images/min3.png,"[(0.45, 0.79)]",,,,,0,-1,-1,0,3,1,13,2,,,,,,,,,,,,,"(0.25, 0.04)",images/min3.png,14,,,0.0662601024378,0.608034461504,[-0.225      -0.13055556],,,,,,,['num_1'],,,,2018_Jun_16_1603,59.6397392392,sequenceLearningTask,001,127,
min1.png,min2.png,min3.png,min4.png,images/allBlank.png,"['num_7', 'num_4', 'num_1', 'num_0']",['num_0'],num_0,[4],'num_0',images/min4.png,"[(0.45, 0.79)]",,,,,0,-1,-1,0,3,2,14,3,,,,,,,,,,,,,"(0.25, 0.04)",images/min3.png,15,,,0.0663848205004,0.505413743434,[ 0.2984375  -0.05555556],,,,,,,['num_0'],,,,2018_Jun_16_1603,59.6397392392,sequenceLearningTask,001,127,
min1.png,min2.png,min3.png,min4.png,images/allBlank.png,"['num_7', 'num_4', 'num_1', 'num_0']",['num_0'],num_0,[4],'num_0',images/min4.png,"[(0.45, 0.79)]",,,,,0,-1,-1,0,3,2,14,3,,,,,,,,,,,,,"(0.25, 0.04)",images/min3.png,15,,,0.0652077947743,0.509190154029,[ 0.2453125  -0.06944444],,,,,,,['num_0'],,,,2018_Jun_16_1603,59.6397392392,sequenceLearningTask,001,127,
min1.png,min2.png,min3.png,min4.png,images/allBlank.png,"['num_7', 'num_4', 'num_1', 'num_0']",['num_0'],num_0,[4],'num_0',images/min4.png,"[(0.45, 0.79)]",,,,,0,-1,-1,0,3,2,14,3,,,,,,,,,,,,,"(0.75, 0.04)",images/min4.png,15,,,0.0623429743573,0.595417435979,[ 0.2484375  -0.03333333],,,,,,,['num_0'],,,,2018_Jun_16_1603,59.6397392392,sequenceLearningTask,001,127,
min1.png,min2.png,min3.png,min4.png,images/allBlank.png,"['num_7', 'num_4', 'num_1', 'num_0']",['num_0'],num_0,[4],'num_0',images/min4.png,"[(0.45, 0.79)]",,,,,0,-1,-1,0,3,2,14,3,,,,,,,,,,,,,"(-0.25, 0.04)",images/min2.png,15,,,0.0625862563029,0.683414153988,[ 0.753125    0.06944444],,,,,,,['num_0'],,,,2018_Jun_16_1603,59.6397392392,sequenceLearningTask,001,127,
min1.png,min2.png,min3.png,min4.png,images/allBlank.png,"['num_7', 'num_4', 'num_1', 'num_0']",['num_7'],num_7,[1],'num_7',images/min1.png,"[(0.45, 0.79)]",,,,,0,-1,-1,0,3,3,15,0,,,,,,,,,,,,,"(0.25, 0.04)",images/min3.png,16,,,0.0596024615224,0.631564307725,[-0.29375    -0.11111111],,,,,,,['num_7'],,,,2018_Jun_16_1603,59.6397392392,sequenceLearningTask,001,127,
min1.png,min2.png,min3.png,min4.png,images/allBlank.png,"['num_7', 'num_4', 'num_1', 'num_0']",['num_7'],num_7,[1],'num_7',images/min1.png,"[(0.45, 0.79)]",,,,,0,-1,-1,0,3,3,15,0,,,,,,,,,,,,,"(0.75, 0.04)",images/min4.png,16,,,0.0571860512719,0.650646974565,[ 0.1609375  -0.14722222],,,,,,,['num_7'],,,,2018_Jun_16_1603,59.6397392392,sequenceLearningTask,001,127,
min1.png,min2.png,min3.png,min4.png,images/allBlank.png,"['num_7', 'num_4', 'num_1', 'num_0']",['num_7'],num_7,[1],'num_7',images/min1.png,"[(0.45, 0.79)]",,,,,0,-1,-1,0,3,3,15,0,,,,,,,,,,,,,"(-0.25, 0.04)",images/min2.png,16,0.575526563916,1,0.0610941539053,0.650447589578,[ 0.80625  0.025  ],,,,,,,['num_7'],,,,2018_Jun_16_1603,59.6397392392,sequenceLearningTask,001,127,
min1.png,min2.png,min3.png,min4.png,images/allBlank.png,"['num_7', 'num_4', 'num_1', 'num_0']",['num_7'],num_7,[1],'num_7',images/min1.png,"[(0.45, 0.79)]",,,,,0,-1,-1,0,3,3,15,0,,,,,,,,,,,,,"(0.75, 0.04)",images/min4.png,16,,,0.061015794985,0.666750769364,[-0.2140625   0.03333333],,,,,,,['num_7'],,,,2018_Jun_16_1603,59.6397392392,sequenceLearningTask,001,127,
min1.png,min2.png,min3.png,min4.png,images/allBlank.png,"['num_7', 'num_4', 'num_1', 'num_0']",['num_7'],num_7,[1],'num_7',images/min1.png,"[(0.45, 0.79)]",,,,,0,-1,-1,0,4,0,16,0,,,,,,,,,,,,,"(-0.25, 0.04)",images/min2.png,17,,,0.054876307724,0.619293948868,[ 0.728125 -0.025   ],,,,,,,['num_7'],,,,2018_Jun_16_1603,59.6397392392,sequenceLearningTask,001,127,
min1.png,min2.png,min3.png,min4.png,images/allBlank.png,"['num_7', 'num_4', 'num_1', 'num_0']",['num_7'],num_7,[1],'num_7',images/min1.png,"[(0.45, 0.79)]",,,,,0,-1,-1,0,4,0,16,0,,,,,,,,,,,,,"(0.75, 0.04)",images/min4.png,17,,,0.0672045126557,0.65621415386,[-0.2125      0.01944444],,,,,,,['num_7'],,,,2018_Jun_16_1603,59.6397392392,sequenceLearningTask,001,127,
min1.png,min2.png,min3.png,min4.png,images/allBlank.png,"['num_7', 'num_4', 'num_1', 'num_0']",['num_7'],num_7,[1],'num_7',images/min1.png,"[(0.45, 0.79)]",,,,,0,-1,-1,0,4,0,16,0,,,,,,,,,,,,,"(-0.25, 0.04)",images/min2.png,17,0.410047999816,1,0.0591413332149,0.518634666689,[ 0.7421875  -0.04166667],,,,,,,['num_7'],,,,2018_Jun_16_1603,59.6397392392,sequenceLearningTask,001,127,
min1.png,min2.png,min3.png,min4.png,images/allBlank.png,"['num_7', 'num_4', 'num_1', 'num_0']",['num_7'],num_7,[1],'num_7',images/min1.png,"[(0.45, 0.79)]",,,,,0,-1,-1,0,4,0,16,0,,,,,,,,,,,,,"(0.25, 0.04)",images/min3.png,17,,,0.0566670768894,0.840450461488,[-0.203125   -0.10833333],,,,,,,['num_7'],,,,2018_Jun_16_1603,59.6397392392,sequenceLearningTask,001,127,
min1.png,min2.png,min3.png,min4.png,images/allBlank.png,"['num_7', 'num_4', 'num_1', 'num_0']",['num_1'],num_1,[3],'num_1',images/min3.png,"[(0.45, 0.79)]",,,,,0,-1,-1,0,4,1,17,2,,,,,,,,,,,,,"(-0.25, 0.04)",images/min2.png,18,,,0.058094359003,0.645568820415,[ 0.2546875  -0.02777778],,,,,,,['num_1'],,,,2018_Jun_16_1603,59.6397392392,sequenceLearningTask,001,127,
min1.png,min2.png,min3.png,min4.png,images/allBlank.png,"['num_7', 'num_4', 'num_1', 'num_0']",['num_1'],num_1,[3],'num_1',images/min3.png,"[(0.45, 0.79)]",,,,,0,-1,-1,0,4,1,17,2,,,,,,,,,,,,,"(-0.75, 0.04)",images/min1.png,18,,,0.0613497435115,1.25242871791,[-0.221875   -0.04722222],,,,,,,['num_1'],,,,2018_Jun_16_1603,59.6397392392,sequenceLearningTask,001,127,
min1.png,min2.png,min3.png,min4.png,images/allBlank.png,"['num_7', 'num_4', 'num_1', 'num_0']",['num_1'],num_1,[3],'num_1',images/min3.png,"[(0.45, 0.79)]",,,,,0,-1,-1,0,4,1,17,2,,,,,,,,,,,,,"(-0.25, 0.04)",images/min2.png,18,,,0.059689435875,0.716272410238,[-0.7390625  -0.06388889],,,,,,,['num_1'],,,,2018_Jun_16_1603,59.6397392392,sequenceLearningTask,001,127,
min1.png,min2.png,min3.png,min4.png,images/allBlank.png,"['num_7', 'num_4', 'num_1', 'num_0']",['num_1'],num_1,[3],'num_1',images/min3.png,"[(0.45, 0.79)]",,,,,0,-1,-1,0,4,1,17,2,,,,,,,,,,,,,"(0.75, 0.04)",images/min4.png,18,,,0.0564250256866,1.71732964111,[-0.1765625   0.01388889],,,,,,,['num_1'],,,,2018_Jun_16_1603,59.6397392392,sequenceLearningTask,001,127,
min1.png,min2.png,min3.png,min4.png,images/allBlank.png,"['num_7', 'num_4', 'num_1', 'num_0']",['num_0'],num_0,[4],'num_0',images/min4.png,"[(0.45, 0.79)]",,,,,0,-1,-1,0,4,2,18,3,,,,,,,,,,,,,"(0.25, 0.04)",images/min3.png,19,,,0.0587199998554,0.531545435777,[ 0.7796875   0.05555556],,,,,,,['num_0'],,,,2018_Jun_16_1603,59.6397392392,sequenceLearningTask,001,127,
min1.png,min2.png,min3.png,min4.png,images/allBlank.png,"['num_7', 'num_4', 'num_1', 'num_0']",['num_0'],num_0,[4],'num_0',images/min4.png,"[(0.45, 0.79)]",,,,,0,-1,-1,0,4,2,18,3,,,,,,,,,,,,,"(0.25, 0.04)",images/min3.png,19,,,0.0571335384157,0.480048000114,[ 0.2359375  -0.00833333],,,,,,,['num_0'],,,,2018_Jun_16_1603,59.6397392392,sequenceLearningTask,001,127,
min1.png,min2.png,min3.png,min4.png,images/allBlank.png,"['num_7', 'num_4', 'num_1', 'num_0']",['num_0'],num_0,[4],'num_0',images/min4.png,"[(0.45, 0.79)]",,,,,0,-1,-1,0,4,2,18,3,,,,,,,,,,,,,"(-0.75, 0.04)",images/min1.png,19,,,0.0676537435502,0.757556102704,[ 0.30625    -0.10277778],,,,,,,['num_0'],,,,2018_Jun_16_1603,59.6397392392,sequenceLearningTask,001,127,
min1.png,min2.png,min3.png,min4.png,images/allBlank.png,"['num_7', 'num_4', 'num_1', 'num_0']",['num_0'],num_0,[4],'num_0',images/min4.png,"[(0.45, 0.79)]",,,,,0,-1,-1,0,4,2,18,3,,,,,,,,,,,,,"(0.25, 0.04)",images/min3.png,19,,,0.0570059488527,0.685046153842,[-0.7765625  -0.06388889],,,,,,,['num_0'],,,,2018_Jun_16_1603,59.6397392392,sequenceLearningTask,001,127,
min1.png,min2.png,min3.png,min4.png,images/allBlank.png,"['num_7', 'num_4', 'num_1', 'num_0']",['num_4'],num_4,[2],'num_4',images/min2.png,"[(0.45, 0.79)]",,,,,0,-1,-1,0,4,3,19,1,,,,,,,,,,,,,"(0.75, 0.04)",images/min4.png,20,,,0.0641329230275,0.537147897296,[ 0.2453125  -0.01944444],,,,,,,['num_4'],,,,2018_Jun_16_1603,59.6397392392,sequenceLearningTask,001,127,
min1.png,min2.png,min3.png,min4.png,images/allBlank.png,"['num_7', 'num_4', 'num_1', 'num_0']",['num_4'],num_4,[2],'num_4',images/min2.png,"[(0.45, 0.79)]",,,,,0,-1,-1,0,4,3,19,1,,,,,,,,,,,,,"(0.75, 0.04)",images/min4.png,20,,,0.0562149742618,0.497016204987,[ 0.6875     -0.06388889],,,,,,,['num_4'],,,,2018_Jun_16_1603,59.6397392392,sequenceLearningTask,001,127,
min1.png,min2.png,min3.png,min4.png,images/allBlank.png,"['num_7', 'num_4', 'num_1', 'num_0']",['num_4'],num_4,[2],'num_4',images/min2.png,"[(0.45, 0.79)]",,,,,0,-1,-1,0,4,3,19,1,,,,,,,,,,,,,"(-0.75, 0.04)",images/min1.png,20,,,0.0681801023893,0.878587487154,[ 0.703125  0.      ],,,,,,,['num_4'],,,,2018_Jun_16_1603,59.6397392392,sequenceLearningTask,001,127,
min1.png,min2.png,min3.png,min4.png,images/allBlank.png,"['num_7', 'num_4', 'num_1', 'num_0']",['num_4'],num_4,[2],'num_4',images/min2.png,"[(0.45, 0.79)]",,,,,0,-1,-1,0,4,3,19,1,,,,,,,,,,,,,"(-0.25, 0.04)",images/min2.png,20,,,0.0532845128328,0.606479999842,[-0.7734375  -0.01666667],,,,,,,['num_4'],,,,2018_Jun_16_1603,59.6397392392,sequenceLearningTask,001,127,
min1.png,min2.png,min3.png,min4.png,allBlank.png,"['num_7', 'num_4', 'num_1', 'num_0']",['num_4'],num_4,[2],'num_4',images/min2.png,"[(0.45, 0.79)]",,,,,0,0,0,0,4,3,19,1,,,,,,,,,,,,,"(-0.75, -0.04)",images/min1.png,1,1.70886235894,1,0.0382363076787,2.61727671791,[-0.2578125  -0.05555556],,,,,,,['num_4'],,,,2018_Jun_16_1603,59.6397392392,sequenceLearningTask,001,127,
min1.png,min2.png,min3.png,min4.png,allBlank.png,"['num_7', 'num_4', 'num_1', 'num_0']",['num_4'],num_4,[2],'num_4',images/min2.png,"[(0.45, 0.79)]",,,,,0,0,0,0,4,3,19,1,,,,,,,,,,,,,"(0.25, -0.04)",images/min3.png,1,,,0.0642358975019,0.575922871707,[ 0.971875   -0.97777778],,,,,,,['num_4'],,,,2018_Jun_16_1603,59.6397392392,sequenceLearningTask,001,127,
min1.png,min2.png,min3.png,min4.png,allBlank.png,"['num_7', 'num_4', 'num_1', 'num_0']",['num_4'],num_4,[2],'num_4',images/min2.png,"[(0.45, 0.79)]",,,,,0,0,0,0,4,3,19,1,,,,,,,,,,,,,"(-0.25, -0.04)",images/min2.png,1,,,0.0611725128256,0.681352205109,[ 0.2515625  -0.01388889],,,,,,,['num_4'],,,,2018_Jun_16_1603,59.6397392392,sequenceLearningTask,001,127,
min1.png,min2.png,min3.png,min4.png,allBlank.png,"['num_7', 'num_4', 'num_1', 'num_0']",['num_4'],num_4,[2],'num_4',images/min2.png,"[(0.45, 0.79)]",,,,,0,0,0,0,4,3,19,1,,,,,,,,,,,,,"(0.75, -0.04)",images/min4.png,1,,,0.0572188717779,0.546176820528,[-0.1890625  -0.01388889],,,,,,,['num_4'],,,,2018_Jun_16_1603,59.6397392392,sequenceLearningTask,001,127,
min1.png,min2.png,min3.png,min4.png,allBlank.png,"['num_7', 'num_4', 'num_1', 'num_0']",['num_4'],num_4,[2],'num_4',images/min2.png,"[(0.45, 0.79)]",,,,,0,0,0,0,4,3,19,1,,,,,,,,,,,,,"(0.75, -0.04)",images/min4.png,1,,,0.0533173333388,0.583432205254,[ 0.596875 -0.025   ],,,,,,,['num_4'],,,,2018_Jun_16_1603,59.6397392392,sequenceLearningTask,001,127,
min1.png,min2.png,min3.png,min4.png,allBlank.png,"['num_7', 'num_4', 'num_1', 'num_0']",['num_4'],num_4,[2],'num_4',images/min2.png,"[(0.45, 0.79)]",,,,,0,0,0,0,4,3,19,1,,,,,,,,,,,,,"(-0.25, -0.04)",images/min2.png,1,,,0.0626547692809,0.429872410372,[ 0.765625    0.03611111],,,,,,,['num_4'],,,,2018_Jun_16_1603,59.6397392392,sequenceLearningTask,001,127,
min1.png,min2.png,min3.png,min4.png,allBlank.png,"['num_7', 'num_4', 'num_1', 'num_0']",['num_4'],num_4,[2],'num_4',images/min2.png,"[(0.45, 0.79)]",,,,,0,0,0,0,4,3,19,1,,,,,,,,,,,,,"(0.25, -0.04)",images/min3.png,1,,,0.0631675897166,0.427819487173,[-0.2359375   0.21111111],,,,,,,['num_4'],,,,2018_Jun_16_1603,59.6397392392,sequenceLearningTask,001,127,
min1.png,min2.png,min3.png,min4.png,allBlank.png,"['num_7', 'num_4', 'num_1', 'num_0']",['num_4'],num_4,[2],'num_4',images/min2.png,"[(0.45, 0.79)]",,,,,0,0,0,0,4,3,19,1,,,,,,,,,,,,,"(0.75, -0.04)",images/min4.png,1,,,0.0659704615828,0.543162666727,[ 0.2640625   0.15833333],,,,,,,['num_4'],,,,2018_Jun_16_1603,59.6397392392,sequenceLearningTask,001,127,
min1.png,min2.png,min3.png,min4.png,allBlank.png,"['num_7', 'num_4', 'num_1', 'num_0']",['num_4'],num_4,[2],'num_4',images/min2.png,"[(0.45, 0.79)]",,,,,0,1,1,1,4,3,19,1,,,,,,,,,,,,,"(-0.75, -0.04)",images/min1.png,2,,,0.0573046153877,0.685151589802,[ 0.6953125   0.14166667],,,,,,,['num_4'],,,,2018_Jun_16_1603,59.6397392392,sequenceLearningTask,001,127,
min1.png,min2.png,min3.png,min4.png,allBlank.png,"['num_7', 'num_4', 'num_1', 'num_0']",['num_4'],num_4,[2],'num_4',images/min2.png,"[(0.45, 0.79)]",,,,,0,1,1,1,4,3,19,1,,,,,,,,,,,,,"(0.25, -0.04)",images/min3.png,2,,,0.0506605128758,0.43498379481,[-0.6546875  0.15     ],,,,,,,['num_4'],,,,2018_Jun_16_1603,59.6397392392,sequenceLearningTask,001,127,
min1.png,min2.png,min3.png,min4.png,allBlank.png,"['num_7', 'num_4', 'num_1', 'num_0']",['num_4'],num_4,[2],'num_4',images/min2.png,"[(0.45, 0.79)]",,,,,0,1,1,1,4,3,19,1,,,,,,,,,,,,,"(-0.25, -0.04)",images/min2.png,2,,,0.0520258462057,0.00290338462219,[ 0.2546875   0.01388889],1,,,,,,['num_4'],,,,2018_Jun_16_1603,59.6397392392,sequenceLearningTask,001,127,
min1.png,min2.png,min3.png,min4.png,allBlank.png,"['num_7', 'num_4', 'num_1', 'num_0']",['num_4'],num_4,[2],'num_4',images/min2.png,"[(0.45, 0.79)]",,,,,0,1,1,1,4,3,19,1,,,,,,,,,,,,,"(0.75, -0.04)",images/min4.png,2,,,0.0249993845355,0.0289337437134,[-0.1453125   0.11944444],,,,,,,['num_4'],,,,2018_Jun_16_1603,59.6397392392,sequenceLearningTask,001,127,
min1.png,min2.png,min3.png,min4.png,allBlank.png,"['num_7', 'num_4', 'num_1', 'num_0']",['num_4'],num_4,[2],'num_4',images/min2.png,"[(0.45, 0.79)]",,,,,0,1,1,1,4,3,19,1,,,,,,,,,,,,,"(0.75, -0.04)",images/min4.png,2,,,0.0682691282127,0.624164923094,[ 0.6203125   0.08611111],,,,,,,['num_4'],,,,2018_Jun_16_1603,59.6397392392,sequenceLearningTask,001,127,
min1.png,min2.png,min3.png,min4.png,allBlank.png,"['num_7', 'num_4', 'num_1', 'num_0']",['num_4'],num_4,[2],'num_4',images/min2.png,"[(0.45, 0.79)]",,,,,0,1,1,1,4,3,19,1,,,,,,,,,,,,,"(-0.25, -0.04)",images/min2.png,2,,,0.0613924101926,0.664717948763,[ 0.7359375   0.16944444],,,,,,,['num_4'],,,,2018_Jun_16_1603,59.6397392392,sequenceLearningTask,001,127,
min1.png,min2.png,min3.png,min4.png,allBlank.png,"['num_7', 'num_4', 'num_1', 'num_0']",['num_4'],num_4,[2],'num_4',images/min2.png,"[(0.45, 0.79)]",,,,,0,1,1,1,4,3,19,1,,,,,,,,,,,,,"(0.25, -0.04)",images/min3.png,2,,,0.056146871997,0.614655999932,[-0.1390625   0.15555556],,,,,,,['num_4'],,,,2018_Jun_16_1603,59.6397392392,sequenceLearningTask,001,127,
min1.png,min2.png,min3.png,min4.png,allBlank.png,"['num_7', 'num_4', 'num_1', 'num_0']",['num_4'],num_4,[2],'num_4',images/min2.png,"[(0.45, 0.79)]",,,,,0,1,1,1,4,3,19,1,,,,,,,,,,,,,"(0.75, -0.04)",images/min4.png,2,,,0.0625329229515,1.28601805121,[ 0.2296875   0.00277778],,,,,,,['num_4'],,,,2018_Jun_16_1603,59.6397392392,sequenceLearningTask,001,127,
min1.png,min2.png,min3.png,min4.png,allBlank.png,"['num_7', 'num_4', 'num_1', 'num_0']",['num_4'],num_4,[2],'num_4',images/min2.png,"[(0.45, 0.79)]",,,,,0,2,2,2,4,3,19,1,,,,,,,,,,,,,"(-0.75, -0.04)",images/min1.png,3,,,0.0537911795545,1.17275405116,[ 0.6609375  -0.03055556],,,,,,,['num_4'],,,,2018_Jun_16_1603,59.6397392392,sequenceLearningTask,001,127,
min1.png,min2.png,min3.png,min4.png,allBlank.png,"['num_7', 'num_4', 'num_1', 'num_0']",['num_4'],num_4,[2],'num_4',images/min2.png,"[(0.45, 0.79)]",,,,,0,2,2,2,4,3,19,1,,,,,,,,,,,,,"(0.25, -0.04)",images/min3.png,3,0.0802038975526,1,0.0217321026139,0.0802038975526,[-0.684375    0.06944444],,,,,,,['num_4'],,,,2018_Jun_16_1603,59.6397392392,sequenceLearningTask,001,127,
min1.png,min2.png,min3.png,min4.png,allBlank.png,"['num_7', 'num_4', 'num_1', 'num_0']",['num_4'],num_4,[2],'num_4',images/min2.png,"[(0.45, 0.79)]",,,,,0,2,2,2,4,3,19,1,,,,,,,,,,,,,"(-0.25, -0.04)",images/min2.png,3,,,0.0536131281406,0.786563282134,[ 0.0640625  0.375    ],,,,,,,['num_4'],,,,2018_Jun_16_1603,59.6397392392,sequenceLearningTask,001,127,
min1.png,min2.png,min3.png,min4.png,allBlank.png,"['num_7', 'num_4', 'num_1', 'num_0']",['num_4'],num_4,[2],'num_4',images/min2.png,"[(0.45, 0.79)]",,,,,0,2,2,2,4,3,19,1,,,,,,,,,,,,,"(0.75, -0.04)",images/min4.png,3,,,0.0574194870424,0.584925538395,[-0.2234375   0.01111111],,,,,,,['num_4'],,,,2018_Jun_16_1603,59.6397392392,sequenceLearningTask,001,127,
min1.png,min2.png,min3.png,min4.png,allBlank.png,"['num_7', 'num_4', 'num_1', 'num_0']",['num_4'],num_4,[2],'num_4',images/min2.png,"[(0.45, 0.79)]",,,,,0,2,2,2,4,3,19,1,,,,,,,,,,,,,"(0.75, -0.04)",images/min4.png,3,,,0.0598047180101,0.483747282065,[ 0.646875    0.08888889],,,,,,,['num_4'],,,,2018_Jun_16_1603,59.6397392392,sequenceLearningTask,001,127,
min1.png,min2.png,min3.png,min4.png,allBlank.png,"['num_7', 'num_4', 'num_1', 'num_0']",['num_4'],num_4,[2],'num_4',images/min2.png,"[(0.45, 0.79)]",,,,,0,2,2,2,4,3,19,1,,,,,,,,,,,,,"(-0.25, -0.04)",images/min2.png,3,0.358619076898,1,0.0459971283562,0.74719261541,[ 0.6296875  -0.00555556],,,,,,,['num_4'],,,,2018_Jun_16_1603,59.6397392392,sequenceLearningTask,001,127,
min1.png,min2.png,min3.png,min4.png,allBlank.png,"['num_7', 'num_4', 'num_1', 'num_0']",['num_4'],num_4,[2],'num_4',images/min2.png,"[(0.45, 0.79)]",,,,,0,2,2,2,4,3,19,1,,,,,,,,,,,,,"(0.25, -0.04)",images/min3.png,3,,,0.0584689232055,0.365831384668,[-0.234375    0.08055556],,,,,,,['num_4'],,,,2018_Jun_16_1603,59.6397392392,sequenceLearningTask,001,127,
min1.png,min2.png,min3.png,min4.png,allBlank.png,"['num_7', 'num_4', 'num_1', 'num_0']",['num_4'],num_4,[2],'num_4',images/min2.png,"[(0.45, 0.79)]",,,,,0,2,2,2,4,3,19,1,,,,,,,,,,,,,"(0.75, -0.04)",images/min4.png,3,,,0.0610461537726,0.681885948638,[ 0.2296875   0.13611111],,,,,,,['num_4'],,,,2018_Jun_16_1603,59.6397392392,sequenceLearningTask,001,127,
min1.png,min2.png,min3.png,min4.png,allBlank.png,"['num_7', 'num_4', 'num_1', 'num_0']",['num_4'],num_4,[2],'num_4',images/min2.png,"[(0.45, 0.79)]",,,,,0,3,3,3,4,3,19,1,,,,,,,,,,,,,"(-0.75, -0.04)",images/min1.png,4,,,0.0540123076644,0.736061538337,[ 0.6703125  0.075    ],,,,,,,['num_4'],,,,2018_Jun_16_1603,59.6397392392,sequenceLearningTask,001,127,
min1.png,min2.png,min3.png,min4.png,allBlank.png,"['num_7', 'num_4', 'num_1', 'num_0']",['num_4'],num_4,[2],'num_4',images/min2.png,"[(0.45, 0.79)]",,,,,0,3,3,3,4,3,19,1,,,,,,,,,,,,,"(0.25, -0.04)",images/min3.png,4,,,0.0569161025342,0.401159795001,[-0.621875    0.05833333],,,,,,,['num_4'],,,,2018_Jun_16_1603,59.6397392392,sequenceLearningTask,001,127,
min1.png,min2.png,min3.png,min4.png,allBlank.png,"['num_7', 'num_4', 'num_1', 'num_0']",['num_4'],num_4,[2],'num_4',images/min2.png,"[(0.45, 0.79)]",,,,,0,3,3,3,4,3,19,1,,,,,,,,,,,,,"(-0.25, -0.04)",images/min2.png,4,,,0.066942359088,0.587804718176,[ 0.25625     0.11944444],,,,,,,['num_4'],,,,2018_Jun_16_1603,59.6397392392,sequenceLearningTask,001,127,
min1.png,min2.png,min3.png,min4.png,allBlank.png,"['num_7', 'num_4', 'num_1', 'num_0']",['num_4'],num_4,[2],'num_4',images/min2.png,"[(0.45, 0.79)]",,,,,0,3,3,3,4,3,19,1,,,,,,,,,,,,,"(0.75, -0.04)",images/min4.png,4,,,0.0517074873205,0.522903384641,[-0.190625    0.10833333],,,,,,,['num_4'],,,,2018_Jun_16_1603,59.6397392392,sequenceLearningTask,001,127,
min1.png,min2.png,min3.png,min4.png,allBlank.png,"['num_7', 'num_4', 'num_1', 'num_0']",['num_4'],num_4,[2],'num_4',images/min2.png,"[(0.45, 0.79)]",,,,,0,3,3,3,4,3,19,1,,,,,,,,,,,,,"(0.75, -0.04)",images/min4.png,4,,,0.0570847180206,0.702590769157,[ 0.59375     0.09444444],,,,,,,['num_4'],,,,2018_Jun_16_1603,59.6397392392,sequenceLearningTask,001,127,
min1.png,min2.png,min3.png,min4.png,allBlank.png,"['num_7', 'num_4', 'num_1', 'num_0']",['num_4'],num_4,[2],'num_4',images/min2.png,"[(0.45, 0.79)]",,,,,0,3,3,3,4,3,19,1,,,,,,,,,,,,,"(-0.25, -0.04)",images/min2.png,4,0.35097107687,1,0.058339281939,0.786481641,[ 0.7328125   0.04722222],,,,,,,['num_4'],,,,2018_Jun_16_1603,59.6397392392,sequenceLearningTask,001,127,
min1.png,min2.png,min3.png,min4.png,allBlank.png,"['num_7', 'num_4', 'num_1', 'num_0']",['num_4'],num_4,[2],'num_4',images/min2.png,"[(0.45, 0.79)]",,,,,0,3,3,3,4,3,19,1,,,,,,,,,,,,,"(0.25, -0.04)",images/min3.png,4,,,0.0659478972666,0.425126153976,[-0.2265625   0.18055556],,,,,,,['num_4'],,,,2018_Jun_16_1603,59.6397392392,sequenceLearningTask,001,127,
min1.png,min2.png,min3.png,min4.png,allBlank.png,"['num_7', 'num_4', 'num_1', 'num_0']",['num_4'],num_4,[2],'num_4',images/min2.png,"[(0.45, 0.79)]",,,,,0,3,3,3,4,3,19,1,,,,,,,,,,,,,"(0.75, -0.04)",images/min4.png,4,,,0.057519179536,0.536735589849,[ 0.28125     0.14166667],,,,,,,['num_4'],,,,2018_Jun_16_1603,59.6397392392,sequenceLearningTask,001,127,
min1.png,min2.png,min3.png,min4.png,allBlank.png,"['num_7', 'num_4', 'num_1', 'num_0']",['num_4'],num_4,[2],'num_4',images/min2.png,"[(0.45, 0.79)]",,,,,0,4,4,4,4,3,19,1,,,,,,,,,,,,,"(-0.75, -0.04)",images/min1.png,5,0.822195282206,1,0.0693501536734,1.85915200016,[ 0.734375    0.09722222],,,,,,,['num_4'],,,,2018_Jun_16_1603,59.6397392392,sequenceLearningTask,001,127,
min1.png,min2.png,min3.png,min4.png,allBlank.png,"['num_7', 'num_4', 'num_1', 'num_0']",['num_4'],num_4,[2],'num_4',images/min2.png,"[(0.45, 0.79)]",,,,,0,4,4,4,4,3,19,1,,,,,,,,,,,,,"(0.25, -0.04)",images/min3.png,5,,,0.0557764102705,0.635255384492,[-0.7046875   0.07777778],,,,,,,['num_4'],,,,2018_Jun_16_1603,59.6397392392,sequenceLearningTask,001,127,
min1.png,min2.png,min3.png,min4.png,allBlank.png,"['num_7', 'num_4', 'num_1', 'num_0']",['num_4'],num_4,[2],'num_4',images/min2.png,"[(0.45, 0.79)]",,,,,0,4,4,4,4,3,19,1,,,,,,,,,,,,,"(-0.25, -0.04)",images/min2.png,5,,,0.0608709743246,0.682315897662,[ 0.265625    0.11944444],,,,,,,['num_4'],,,,2018_Jun_16_1603,59.6397392392,sequenceLearningTask,001,127,
min1.png,min2.png,min3.png,min4.png,allBlank.png,"['num_7', 'num_4', 'num_1', 'num_0']",['num_4'],num_4,[2],'num_4',images/min2.png,"[(0.45, 0.79)]",,,,,0,4,4,4,4,3,19,1,,,,,,,,,,,,,"(0.75, -0.04)",images/min4.png,5,,,0.0561784615275,0.462840615306,[-0.28125     0.08611111],,,,,,,['num_4'],,,,2018_Jun_16_1603,59.6397392392,sequenceLearningTask,001,127,
min1.png,min2.png,min3.png,min4.png,allBlank.png,"['num_7', 'num_4', 'num_1', 'num_0']",['num_4'],num_4,[2],'num_4',images/min2.png,"[(0.45, 0.79)]",,,,,0,4,4,4,4,3,19,1,,,,,,,,,,,,,"(0.75, -0.04)",images/min4.png,5,,,0.0555134359747,0.63581456407,[ 0.6546875   0.13611111],,,,,,,['num_4'],,,,2018_Jun_16_1603,59.6397392392,sequenceLearningTask,001,127,
min1.png,min2.png,min3.png,min4.png,allBlank.png,"['num_7', 'num_4', 'num_1', 'num_0']",['num_4'],num_4,[2],'num_4',images/min2.png,"[(0.45, 0.79)]",,,,,0,4,4,4,4,3,19,1,,,,,,,,,,,,,"(-0.25, -0.04)",images/min2.png,5,,,0.0670654359274,0.641451076837,[ 0.6671875   0.14722222],,,,,,,['num_4'],,,,2018_Jun_16_1603,59.6397392392,sequenceLearningTask,001,127,
min1.png,min2.png,min3.png,min4.png,allBlank.png,"['num_7', 'num_4', 'num_1', 'num_0']",['num_4'],num_4,[2],'num_4',images/min2.png,"[(0.45, 0.79)]",,,,,0,4,4,4,4,3,19,1,,,,,,,,,,,,,"(0.25, -0.04)",images/min3.png,5,,,0.0228791793343,0.486956717912,[-0.2421875   0.10833333],,,,,,,['num_4'],,,,2018_Jun_16_1603,59.6397392392,sequenceLearningTask,001,127,
min1.png,min2.png,min3.png,min4.png,allBlank.png,"['num_7', 'num_4', 'num_1', 'num_0']",['num_4'],num_4,[2],'num_4',images/min2.png,"[(0.45, 0.79)]",,,,,0,4,4,4,4,3,19,1,,,,,,,,,,,,,"(0.75, -0.04)",images/min4.png,5,,,0.0603897436522,0.483037128113,[ 0.2890625  -0.01388889],,,,,,,['num_4'],,,,2018_Jun_16_1603,59.6397392392,sequenceLearningTask,001,127,
min1.png,min2.png,min3.png,min4.png,allBlank.png,"['num_7', 'num_4', 'num_1', 'num_0']",['num_4'],num_4,[2],'num_4',images/min2.png,"[(0.45, 0.79)]",,,,,0,5,5,5,4,3,19,1,,,,,,,,,,,,,"(-0.75, -0.04)",images/min1.png,6,,,0.0566711795982,0.596643282101,[ 0.7515625  -0.00555556],,,,,,,['num_4'],,,,2018_Jun_16_1603,59.6397392392,sequenceLearningTask,001,127,
min1.png,min2.png,min3.png,min4.png,allBlank.png,"['num_7', 'num_4', 'num_1', 'num_0']",['num_4'],num_4,[2],'num_4',images/min2.png,"[(0.45, 0.79)]",,,,,0,5,5,5,4,3,19,1,,,,,,,,,,,,,"(0.25, -0.04)",images/min3.png,6,,,0.0542695384938,1.89214646141,[-0.6640625   0.13333333],,,,,,,['num_4'],,,,2018_Jun_16_1603,59.6397392392,sequenceLearningTask,001,127,
min1.png,min2.png,min3.png,min4.png,allBlank.png,"['num_7', 'num_4', 'num_1', 'num_0']",['num_4'],num_4,[2],'num_4',images/min2.png,"[(0.45, 0.79)]",,,,,0,5,5,5,4,3,19,1,,,,,,,,,,,,,"(-0.25, -0.04)",images/min2.png,6,,,0.0579146665987,0.517046564026,[ 0.2703125  -0.02777778],,,,,,,['num_4'],,,,2018_Jun_16_1603,59.6397392392,sequenceLearningTask,001,127,
min1.png,min2.png,min3.png,min4.png,allBlank.png,"['num_7', 'num_4', 'num_1', 'num_0']",['num_4'],num_4,[2],'num_4',images/min2.png,"[(0.45, 0.79)]",,,,,0,5,5,5,4,3,19,1,,,,,,,,,,,,,"(0.75, -0.04)",images/min4.png,6,,,0.0561120000202,0.56510523078,[-0.20625     0.15277778],,,,,,,['num_4'],,,,2018_Jun_16_1603,59.6397392392,sequenceLearningTask,001,127,
min1.png,min2.png,min3.png,min4.png,allBlank.png,"['num_7', 'num_4', 'num_1', 'num_0']",['num_4'],num_4,[2],'num_4',images/min2.png,"[(0.45, 0.79)]",,,,,0,5,5,5,4,3,19,1,,,,,,,,,,,,,"(0.75, -0.04)",images/min4.png,6,,,0.0600988718215,0.767364512896,[ 0.7296875   0.01388889],,,,,,,['num_4'],,,,2018_Jun_16_1603,59.6397392392,sequenceLearningTask,001,127,
min1.png,min2.png,min3.png,min4.png,allBlank.png,"['num_7', 'num_4', 'num_1', 'num_0']",['num_4'],num_4,[2],'num_4',images/min2.png,"[(0.45, 0.79)]",,,,,0,5,5,5,4,3,19,1,,,,,,,,,,,,,"(-0.25, -0.04)",images/min2.png,6,,,0.0554153844714,0.488829538459,[ 0.7140625 -0.05     ],,,,,,,['num_4'],,,,2018_Jun_16_1603,59.6397392392,sequenceLearningTask,001,127,
min1.png,min2.png,min3.png,min4.png,allBlank.png,"['num_7', 'num_4', 'num_1', 'num_0']",['num_4'],num_4,[2],'num_4',images/min2.png,"[(0.45, 0.79)]",,,,,0,5,5,5,4,3,19,1,,,,,,,,,,,,,"(0.25, -0.04)",images/min3.png,6,,,0.0595040000044,0.74970051297,[-0.228125    0.03888889],,,,,,,['num_4'],,,,2018_Jun_16_1603,59.6397392392,sequenceLearningTask,001,127,
min1.png,min2.png,min3.png,min4.png,allBlank.png,"['num_7', 'num_4', 'num_1', 'num_0']",['num_4'],num_4,[2],'num_4',images/min2.png,"[(0.45, 0.79)]",,,,,0,5,5,5,4,3,19,1,,,,,,,,,,,,,"(0.75, -0.04)",images/min4.png,6,,,0.0600537436549,0.96738584619,[ 0.3375      0.01388889],,,,,,,['num_4'],,,,2018_Jun_16_1603,59.6397392392,sequenceLearningTask,001,127,
min1.png,min2.png,min3.png,min4.png,allBlank.png,"['num_7', 'num_4', 'num_1', 'num_0']",['num_4'],num_4,[2],'num_4',images/min2.png,"[(0.45, 0.79)]",,,,,0,6,6,6,4,3,19,1,,,,,,,,,,,,,"(-0.75, -0.04)",images/min1.png,7,,,0.0567577434704,2.13560451288,[ 0.6953125  -0.06388889],,,,,,,['num_4'],,,,2018_Jun_16_1603,59.6397392392,sequenceLearningTask,001,127,
min1.png,min2.png,min3.png,min4.png,allBlank.png,"['num_7', 'num_4', 'num_1', 'num_0']",['num_4'],num_4,[2],'num_4',images/min2.png,"[(0.45, 0.79)]",,,,,0,6,6,6,4,3,19,1,,,,,,,,,,,,,"(0.25, -0.04)",images/min3.png,7,,,0.0247401027009,0.953855179483,[-0.6890625   0.21111111],,,,,,,['num_4'],,,,2018_Jun_16_1603,59.6397392392,sequenceLearningTask,001,127,
min1.png,min2.png,min3.png,min4.png,allBlank.png,"['num_7', 'num_4', 'num_1', 'num_0']",['num_4'],num_4,[2],'num_4',images/min2.png,"[(0.45, 0.79)]",,,,,0,6,6,6,4,3,19,1,,,,,,,,,,,,,"(-0.25, -0.04)",images/min2.png,7,,,0.053086358821,1.25510687195,[ 0.296875   -0.01944444],,,,,,,['num_4'],,,,2018_Jun_16_1603,59.6397392392,sequenceLearningTask,001,127,
min1.png,min2.png,min3.png,min4.png,allBlank.png,"['num_7', 'num_4', 'num_1', 'num_0']",['num_4'],num_4,[2],'num_4',images/min2.png,"[(0.45, 0.79)]",,,,,0,6,6,6,4,3,19,1,,,,,,,,,,,,,"(0.75, -0.04)",images/min4.png,7,,,0.0646436922252,1.18292143592,[-0.246875    0.06388889],,,,,,,['num_4'],,,,2018_Jun_16_1603,59.6397392392,sequenceLearningTask,001,127,
min1.png,min2.png,min3.png,min4.png,allBlank.png,"['num_7', 'num_4', 'num_1', 'num_0']",['num_4'],num_4,[2],'num_4',images/min2.png,"[(0.45, 0.79)]",,,,,0,6,6,6,4,3,19,1,,,,,,,,,,,,,"(0.75, -0.04)",images/min4.png,7,,,0.0546892306302,0.620481641032,[ 0.6703125   0.00833333],,,,,,,['num_4'],,,,2018_Jun_16_1603,59.6397392392,sequenceLearningTask,001,127,
min1.png,min2.png,min3.png,min4.png,allBlank.png,"['num_7', 'num_4', 'num_1', 'num_0']",['num_4'],num_4,[2],'num_4',images/min2.png,"[(0.45, 0.79)]",,,,,0,6,6,6,4,3,19,1,,,,,,,,,,,,,"(-0.25, -0.04)",images/min2.png,7,,,0.0567922049668,0.902459077071,[ 0.7421875   0.03333333],,,,,,,['num_4'],,,,2018_Jun_16_1603,59.6397392392,sequenceLearningTask,001,127,
min1.png,min2.png,min3.png,min4.png,allBlank.png,"['num_7', 'num_4', 'num_1', 'num_0']",['num_4'],num_4,[2],'num_4',images/min2.png,"[(0.45, 0.79)]",,,,,0,6,6,6,4,3,19,1,,,,,,,,,,,,,"(0.25, -0.04)",images/min3.png,7,,,0.0584389744326,0.481801025569,[-0.2578125  -0.17777778],,,,,,,['num_4'],,,,2018_Jun_16_1603,59.6397392392,sequenceLearningTask,001,127,
min1.png,min2.png,min3.png,min4.png,allBlank.png,"['num_7', 'num_4', 'num_1', 'num_0']",['num_4'],num_4,[2],'num_4',images/min2.png,"[(0.45, 0.79)]",,,,,0,6,6,6,4,3,19,1,,,,,,,,,,,,,"(0.75, -0.04)",images/min4.png,7,,,0.0621911794879,0.591023999965,[ 0.2625      0.06111111],,,,,,,['num_4'],,,,2018_Jun_16_1603,59.6397392392,sequenceLearningTask,001,127,
min1.png,min2.png,min3.png,min4.png,allBlank.png,"['num_7', 'num_4', 'num_1', 'num_0']",['num_4'],num_4,[2],'num_4',images/min2.png,"[(0.45, 0.79)]",,,,,0,7,7,7,4,3,19,1,,,,,,,,,,,,,"(-0.75, -0.04)",images/min1.png,8,,,0.0547450257,0.71910810261,[ 0.778125   -0.00277778],,,,,,,['num_4'],,,,2018_Jun_16_1603,59.6397392392,sequenceLearningTask,001,127,
min1.png,min2.png,min3.png,min4.png,allBlank.png,"['num_7', 'num_4', 'num_1', 'num_0']",['num_4'],num_4,[2],'num_4',images/min2.png,"[(0.45, 0.79)]",,,,,0,7,7,7,4,3,19,1,,,,,,,,,,,,,"(0.25, -0.04)",images/min3.png,8,,,0.0549866666552,0.671462564263,[-0.7265625  -0.11944444],,,,,,,['num_4'],,,,2018_Jun_16_1603,59.6397392392,sequenceLearningTask,001,127,
