pawPatrol1,pawPatrol2,pawPatrol3,pawPatrol4,blank,allowableKey,correctKey,correctKeyPressNum,posLoc,correctKeyPress,randomPaw,im_size,trials.thisRepN,trials.thisTrialN,trials.thisN,trials.thisIndex,trials_3.thisRepN,trials_3.thisTrialN,trials_3.thisN,trials_3.thisIndex,trials_2.thisRepN,trials_2.thisTrialN,trials_2.thisN,trials_2.thisIndex,trials_questions.thisRepN,trials_questions.thisTrialN,trials_questions.thisN,trials_questions.thisIndex,trials_test.thisRepN,trials_test.thisTrialN,trials_test.thisN,trials_test.thisIndex,trials_recogtest.thisRepN,trials_recogtest.thisTrialN,trials_recogtest.thisN,trials_recogtest.thisIndex,correctLocation,correctImage,repetitionNumber,stimulusPresent.t,responseTimeCorrect,pressLoc,responseTimeIncorrect,trialIncorrect,questionsResponses,AnswerFinished.keys,AnswerFinished.rt,RecordAnswer.keys,RecordAnswer.rt,correctKey,trialCorrect,recallResponse,recallResponseTime,date,frameRate,expName,session,participant,
min1.png,min2.png,min3.png,min4.png,allBlank.png,,,,,,,,,,,,0,0,0,0,,,,,,,,,,,,,,,,,"(-0.75, -0.04)",images/min1.png,1,0.0819183253916,0.721218986087,[-0.04392387 -0.81770833],,,,,,,,,,,,2018_Jun_30_1720,59.9629767473,sequenceLearningTask,001,122,
min1.png,min2.png,min3.png,min4.png,allBlank.png,,,,,,,,,,,,0,0,0,0,,,,,,,,,,,,,,,,,"(0.25, -0.04)",images/min3.png,1,0.0834768888308,0.524750553886,[-0.72767204 -0.19010417],,,,,,,,,,,,2018_Jun_30_1720,59.9629767473,sequenceLearningTask,001,122,
min1.png,min2.png,min3.png,min4.png,allBlank.png,,,,,,,,,,,,0,0,0,0,,,,,,,,,,,,,,,,,"(-0.25, -0.04)",images/min2.png,1,0.0852356574032,0.658040755778,[ 0.32064422 -0.17447917],,,,,,,,,,,,2018_Jun_30_1720,59.9629767473,sequenceLearningTask,001,122,
min1.png,min2.png,min3.png,min4.png,allBlank.png,,,,,,,,,,,,0,0,0,0,,,,,,,,,,,,,,,,,"(0.75, -0.04)",images/min4.png,1,0.0835482734255,0.543955058907,[-0.20937042 -0.16927083],,,,,,,,,,,,2018_Jun_30_1720,59.9629767473,sequenceLearningTask,001,122,
min1.png,min2.png,min3.png,min4.png,allBlank.png,,,,,,,,,,,,0,0,0,0,,,,,,,,,,,,,,,,,"(0.75, -0.04)",images/min4.png,1,0.0529132090742,0.906027935911,[ 0.75549048 -0.11458333],,,,,,,,,,,,2018_Jun_30_1720,59.9629767473,sequenceLearningTask,001,122,
min1.png,min2.png,min3.png,min4.png,allBlank.png,,,,,,,,,,,,0,0,0,0,,,,,,,,,,,,,,,,,"(-0.25, -0.04)",images/min2.png,1,0.0611290005036,0.815971357515,[ 0.68081991 -0.13541667],,,,,,,,,,,,2018_Jun_30_1720,59.9629767473,sequenceLearningTask,001,122,
min1.png,min2.png,min3.png,min4.png,allBlank.png,,,,,,,,,,,,0,0,0,0,,,,,,,,,,,,,,,,,"(0.25, -0.04)",images/min3.png,1,0.0565205921885,0.603494316572,[-0.26647145 -0.10416667],,,,,,,,,,,,2018_Jun_30_1720,59.9629767473,sequenceLearningTask,001,122,
min1.png,min2.png,min3.png,min4.png,allBlank.png,,,,,,,,,,,,0,0,0,0,,,,,,,,,,,,,,,,,"(0.75, -0.04)",images/min4.png,1,0.0573017201386,0.521081222221,[ 0.28696925 -0.15885417],,,,,,,,,,,,2018_Jun_30_1720,59.9629767473,sequenceLearningTask,001,122,
min1.png,min2.png,min3.png,min4.png,allBlank.png,,,,,,,,,,,,0,1,1,1,,,,,,,,,,,,,,,,,"(-0.75, -0.04)",images/min1.png,2,0.0536684908438,0.653136552544,[ 0.69399707 -0.22135417],,,,,,,,,,,,2018_Jun_30_1720,59.9629767473,sequenceLearningTask,001,122,
min1.png,min2.png,min3.png,min4.png,allBlank.png,,,,,,,,,,,,0,1,1,1,,,,,,,,,,,,,,,,,"(0.25, -0.04)",images/min3.png,2,0.0495642872993,0.593702730723,[-0.69985359 -0.3046875 ],,,,,,,,,,,,2018_Jun_30_1720,59.9629767473,sequenceLearningTask,001,122,
min1.png,min2.png,min3.png,min4.png,allBlank.png,,,,,,,,,,,,0,1,1,1,,,,,,,,,,,,,,,,,"(-0.25, -0.04)",images/min2.png,2,0.0542555674911,0.537396702566,[ 0.29282577 -0.1640625 ],,,,,,,,,,,,2018_Jun_30_1720,59.9629767473,sequenceLearningTask,001,122,
min1.png,min2.png,min3.png,min4.png,allBlank.png,,,,,,,,,,,,0,1,1,1,,,,,,,,,,,,,,,,,"(0.75, -0.04)",images/min4.png,2,0.0624024359277,0.682304540533,[-0.26500732 -0.11979167],,,,,,,,,,,,2018_Jun_30_1720,59.9629767473,sequenceLearningTask,001,122,
min1.png,min2.png,min3.png,min4.png,allBlank.png,,,,,,,,,,,,0,1,1,1,,,,,,,,,,,,,,,,,"(0.75, -0.04)",images/min4.png,2,0.0583088991698,0.870894822176,[ 0.75841874 -0.01822917],,,,,,,,,,,,2018_Jun_30_1720,59.9629767473,sequenceLearningTask,001,122,
min1.png,min2.png,min3.png,min4.png,allBlank.png,,,,,,,,,,,,0,1,1,1,,,,,,,,,,,,,,,,,"(-0.25, -0.04)",images/min2.png,2,0.0560730026336,0.553607157432,[ 0.80966325 -0.12239583],,,,,,,,,,,,2018_Jun_30_1720,59.9629767473,sequenceLearningTask,001,122,
min1.png,min2.png,min3.png,min4.png,allBlank.png,,,,,,,,,,,,0,1,1,1,,,,,,,,,,,,,,,,,"(0.25, -0.04)",images/min3.png,2,0.0511819276726,0.541278547258,[-0.23426061 -0.09114583],,,,,,,,,,,,2018_Jun_30_1720,59.9629767473,sequenceLearningTask,001,122,
min1.png,min2.png,min3.png,min4.png,allBlank.png,,,,,,,,,,,,0,1,1,1,,,,,,,,,,,,,,,,,"(0.75, -0.04)",images/min4.png,2,0.0558264385909,0.520147478906,[ 0.25622255 -0.1171875 ],,,,,,,,,,,,2018_Jun_30_1720,59.9629767473,sequenceLearningTask,001,122,
min1.png,min2.png,min3.png,min4.png,allBlank.png,,,,,,,,,,,,0,2,2,2,,,,,,,,,,,,,,,,,"(-0.75, -0.04)",images/min1.png,3,0.0567552588182,0.44891550811,[ 0.69692533 -0.1640625 ],,,,,,,,,,,,2018_Jun_30_1720,59.9629767473,sequenceLearningTask,001,122,
min1.png,min2.png,min3.png,min4.png,allBlank.png,,,,,,,,,,,,0,2,2,2,,,,,,,,,,,,,,,,,"(0.25, -0.04)",images/min3.png,3,0.0607790519716,0.448315713555,[-0.74670571 -0.2578125 ],,,,,,,,,,,,2018_Jun_30_1720,59.9629767473,sequenceLearningTask,001,122,
min1.png,min2.png,min3.png,min4.png,allBlank.png,,,,,,,,,,,,0,2,2,2,,,,,,,,,,,,,,,,,"(-0.25, -0.04)",images/min2.png,3,0.0590141296852,0.618495746283,[ 0.24450952 -0.08333333],,,,,,,,,,,,2018_Jun_30_1720,59.9629767473,sequenceLearningTask,001,122,
min1.png,min2.png,min3.png,min4.png,allBlank.png,,,,,,,,,,,,0,2,2,2,,,,,,,,,,,,,,,,,"(0.75, -0.04)",images/min4.png,3,0.0521205939585,0.505112408195,[-0.26500732 -0.18489583],,,,,,,,,,,,2018_Jun_30_1720,59.9629767473,sequenceLearningTask,001,122,
min1.png,min2.png,min3.png,min4.png,allBlank.png,,,,,,,,,,,,0,2,2,2,,,,,,,,,,,,,,,,,"(0.75, -0.04)",images/min4.png,3,0.051597106969,0.826373814838,[ 0.71888726 -0.125     ],,,,,,,,,,,,2018_Jun_30_1720,59.9629767473,sequenceLearningTask,001,122,
min1.png,min2.png,min3.png,min4.png,allBlank.png,,,,,,,,,,,,0,2,2,2,,,,,,,,,,,,,,,,,"(-0.25, -0.04)",images/min2.png,3,0.0526900297264,0.487526364042,[ 0.7818448 -0.1953125],,,,,,,,,,,,2018_Jun_30_1720,59.9629767473,sequenceLearningTask,001,122,
min1.png,min2.png,min3.png,min4.png,allBlank.png,,,,,,,,,,,,0,2,2,2,,,,,,,,,,,,,,,,,"(0.25, -0.04)",images/min3.png,3,0.0538215163397,0.519080812694,[-0.21083455 -0.13541667],,,,,,,,,,,,2018_Jun_30_1720,59.9629767473,sequenceLearningTask,001,122,
min1.png,min2.png,min3.png,min4.png,allBlank.png,,,,,,,,,,,,0,2,2,2,,,,,,,,,,,,,,,,,"(0.75, -0.04)",images/min4.png,3,0.0488586465362,0.458935196395,[ 0.17862372 -0.07552083],,,,,,,,,,,,2018_Jun_30_1720,59.9629767473,sequenceLearningTask,001,122,
min1.png,min2.png,min3.png,min4.png,allBlank.png,,,,,,,,,,,,0,3,3,3,,,,,,,,,,,,,,,,,"(-0.75, -0.04)",images/min1.png,4,0.0528849012917,0.537080805283,[ 0.72327965 -0.13020833],,,,,,,,,,,,2018_Jun_30_1720,59.9629767473,sequenceLearningTask,001,122,
min1.png,min2.png,min3.png,min4.png,allBlank.png,,,,,,,,,,,,0,3,3,3,,,,,,,,,,,,,,,,,"(0.25, -0.04)",images/min3.png,4,0.049862133339,0.460069554858,[-0.7818448  -0.20052083],,,,,,,,,,,,2018_Jun_30_1720,59.9629767473,sequenceLearningTask,001,122,
min1.png,min2.png,min3.png,min4.png,allBlank.png,,,,,,,,,,,,0,3,3,3,,,,,,,,,,,,,,,,,"(-0.25, -0.04)",images/min2.png,4,0.0505923895398,0.543173520709,[ 0.27525622 -0.1171875 ],,,,,,,,,,,,2018_Jun_30_1720,59.9629767473,sequenceLearningTask,001,122,
min1.png,min2.png,min3.png,min4.png,allBlank.png,,,,,,,,,,,,0,3,3,3,,,,,,,,,,,,,,,,,"(0.75, -0.04)",images/min4.png,4,0.058655565721,0.467655192828,[-0.28257687 -0.2734375 ],,,,,,,,,,,,2018_Jun_30_1720,59.9629767473,sequenceLearningTask,001,122,
min1.png,min2.png,min3.png,min4.png,allBlank.png,,,,,,,,,,,,0,3,3,3,,,,,,,,,,,,,,,,,"(0.75, -0.04)",images/min4.png,4,0.0581726940582,0.666756649502,[ 0.71742313 -0.20052083],,,,,,,,,,,,2018_Jun_30_1720,59.9629767473,sequenceLearningTask,001,122,
min1.png,min2.png,min3.png,min4.png,allBlank.png,,,,,,,,,,,,0,3,3,3,,,,,,,,,,,,,,,,,"(-0.25, -0.04)",images/min2.png,4,0.0545275673503,0.704401351977,[ 0.78330893 -0.0546875 ],,,,,,,,,,,,2018_Jun_30_1720,59.9629767473,sequenceLearningTask,001,122,
min1.png,min2.png,min3.png,min4.png,allBlank.png,,,,,,,,,,,,0,3,3,3,,,,,,,,,,,,,,,,,"(0.25, -0.04)",images/min3.png,4,0.0521476708818,0.610685287975,[-0.23718887 -0.1796875 ],,,,,,,,,,,,2018_Jun_30_1720,59.9629767473,sequenceLearningTask,001,122,
min1.png,min2.png,min3.png,min4.png,allBlank.png,,,,,,,,,,,,0,3,3,3,,,,,,,,,,,,,,,,,"(0.75, -0.04)",images/min4.png,4,0.0570892073447,0.636862508021,[ 0.30746706 -0.0859375 ],,,,,,,,,,,,2018_Jun_30_1720,59.9629767473,sequenceLearningTask,001,122,
min1.png,min2.png,min3.png,min4.png,allBlank.png,,,,,,,,,,,,0,4,4,4,,,,,,,,,,,,,,,,,"(-0.75, -0.04)",images/min1.png,5,0.0551228491822,0.804268388078,[ 0.69692533 -0.1171875 ],,,,,,,,,,,,2018_Jun_30_1720,59.9629767473,sequenceLearningTask,001,122,
min1.png,min2.png,min3.png,min4.png,allBlank.png,,,,,,,,,,,,0,4,4,4,,,,,,,,,,,,,,,,,"(0.25, -0.04)",images/min3.png,5,0.0524213118479,0.588776784134,[-0.72327965 -0.12760417],,,,,,,,,,,,2018_Jun_30_1720,59.9629767473,sequenceLearningTask,001,122,
min1.png,min2.png,min3.png,min4.png,allBlank.png,,,,,,,,,,,,0,4,4,4,,,,,,,,,,,,,,,,,"(-0.25, -0.04)",images/min2.png,5,0.0506695176009,0.727525034803,[ 0.25475842 -0.08072917],,,,,,,,,,,,2018_Jun_30_1720,59.9629767473,sequenceLearningTask,001,122,
min1.png,min2.png,min3.png,min4.png,allBlank.png,,,,,,,,,,,,0,4,4,4,,,,,,,,,,,,,,,,,"(0.75, -0.04)",images/min4.png,5,0.0525349528762,0.50631240767,[-0.34846266 -0.1171875 ],,,,,,,,,,,,2018_Jun_30_1720,59.9629767473,sequenceLearningTask,001,122,
min1.png,min2.png,min3.png,min4.png,allBlank.png,,,,,,,,,,,,0,4,4,4,,,,,,,,,,,,,,,,,"(0.75, -0.04)",images/min4.png,5,0.0913517574081,0.883584458032,[ 0.66178624 -0.06770833],,,,,,,,,,,,2018_Jun_30_1720,59.9629767473,sequenceLearningTask,001,122,
min1.png,min2.png,min3.png,min4.png,allBlank.png,,,,,,,,,,,,0,4,4,4,,,,,,,,,,,,,,,,,"(-0.25, -0.04)",images/min2.png,5,0.0546186442953,0.78877588152,[ 0.66910688 -0.1171875 ],,,,,,,,,,,,2018_Jun_30_1720,59.9629767473,sequenceLearningTask,001,122,
min1.png,min2.png,min3.png,min4.png,allBlank.png,,,,,,,,,,,,0,4,4,4,,,,,,,,,,,,,,,,,"(0.25, -0.04)",images/min3.png,5,0.0533402857836,0.608968365588,[-0.26939971 -0.04166667],,,,,,,,,,,,2018_Jun_30_1720,59.9629767473,sequenceLearningTask,001,122,
min1.png,min2.png,min3.png,min4.png,allBlank.png,,,,,,,,,,,,0,4,4,4,,,,,,,,,,,,,,,,,"(0.75, -0.04)",images/min4.png,5,0.0587175143883,0.632053074078,[ 0.27672035 -0.03645833],,,,,,,,,,,,2018_Jun_30_1720,59.9629767473,sequenceLearningTask,001,122,
min1.png,min2.png,min3.png,min4.png,allBlank.png,,,,,,,,,,,,0,5,5,5,,,,,,,,,,,,,,,,,"(-0.75, -0.04)",images/min1.png,6,0.0492237746948,0.625301487045,[ 0.78916545 -0.02864583],,,,,,,,,,,,2018_Jun_30_1720,59.9629767473,sequenceLearningTask,001,122,
min1.png,min2.png,min3.png,min4.png,allBlank.png,,,,,,,,,,,,0,5,5,5,,,,,,,,,,,,,,,,,"(0.25, -0.04)",images/min3.png,6,0.0510937225772,0.442248844192,[-0.715959   -0.08072917],,,,,,,,,,,,2018_Jun_30_1720,59.9629767473,sequenceLearningTask,001,122,
min1.png,min2.png,min3.png,min4.png,allBlank.png,,,,,,,,,,,,0,5,5,5,,,,,,,,,,,,,,,,,"(-0.25, -0.04)",images/min2.png,6,0.0523002862465,0.644985171268,[ 0.25622255 -0.05729167],,,,,,,,,,,,2018_Jun_30_1720,59.9629767473,sequenceLearningTask,001,122,
min1.png,min2.png,min3.png,min4.png,allBlank.png,,,,,,,,,,,,0,5,5,5,,,,,,,,,,,,,,,,,"(0.75, -0.04)",images/min4.png,6,0.0659909473034,0.427247414482,[-0.29868228 -0.0703125 ],,,,,,,,,,,,2018_Jun_30_1720,59.9629767473,sequenceLearningTask,001,122,
min1.png,min2.png,min3.png,min4.png,allBlank.png,,,,,,,,,,,,0,5,5,5,,,,,,,,,,,,,,,,,"(0.75, -0.04)",images/min4.png,6,0.0542736187344,0.707726478809,[ 0.67349927 -0.0703125 ],,,,,,,,,,,,2018_Jun_30_1720,59.9629767473,sequenceLearningTask,001,122,
min1.png,min2.png,min3.png,min4.png,allBlank.png,,,,,,,,,,,,0,5,5,5,,,,,,,,,,,,,,,,,"(-0.25, -0.04)",images/min2.png,6,0.0549542339286,0.654533064808,[ 0.68228404 -0.1796875 ],,,,,,,,,,,,2018_Jun_30_1720,59.9629767473,sequenceLearningTask,001,122,
min1.png,min2.png,min3.png,min4.png,allBlank.png,,,,,,,,,,,,0,5,5,5,,,,,,,,,,,,,,,,,"(0.25, -0.04)",images/min3.png,6,0.0626153589692,0.422920441837,[-0.21083455 -0.19791667],,,,,,,,,,,,2018_Jun_30_1720,59.9629767473,sequenceLearningTask,001,122,
min1.png,min2.png,min3.png,min4.png,allBlank.png,,,,,,,,,,,,0,5,5,5,,,,,,,,,,,,,,,,,"(0.75, -0.04)",images/min4.png,6,0.0637587429956,0.611181287677,[ 0.22986823 -0.02864583],,,,,,,,,,,,2018_Jun_30_1720,59.9629767473,sequenceLearningTask,001,122,
min1.png,min2.png,min3.png,min4.png,allBlank.png,,,,,,,,,,,,0,6,6,6,,,,,,,,,,,,,,,,,"(-0.75, -0.04)",images/min1.png,7,0.0551564901834,0.71994719177,[ 0.72327965 -0.18229167],,,,,,,,,,,,2018_Jun_30_1720,59.9629767473,sequenceLearningTask,001,122,
min1.png,min2.png,min3.png,min4.png,allBlank.png,,,,,,,,,,,,0,6,6,6,,,,,,,,,,,,,,,,,"(0.25, -0.04)",images/min3.png,7,0.0586215144722,0.551279773819,[-0.74963397 -0.19010417],,,,,,,,,,,,2018_Jun_30_1720,59.9629767473,sequenceLearningTask,001,122,
min1.png,min2.png,min3.png,min4.png,allBlank.png,,,,,,,,,,,,0,6,6,6,,,,,,,,,,,,,,,,,"(-0.25, -0.04)",images/min2.png,7,0.0518120813649,0.606407956337,[ 0.19912152 -0.19010417],,,,,,,,,,,,2018_Jun_30_1720,59.9629767473,sequenceLearningTask,001,122,
min1.png,min2.png,min3.png,min4.png,allBlank.png,,,,,,,,,,,,0,6,6,6,,,,,,,,,,,,,,,,,"(0.75, -0.04)",images/min4.png,7,0.0546699262923,0.520026453305,[-0.2284041 -0.0546875],,,,,,,,,,,,2018_Jun_30_1720,59.9629767473,sequenceLearningTask,001,122,
min1.png,min2.png,min3.png,min4.png,allBlank.png,,,,,,,,,,,,0,6,6,6,,,,,,,,,,,,,,,,,"(0.75, -0.04)",images/min4.png,7,0.0568332074909,0.787045830977,[ 0.73645681 -0.125     ],,,,,,,,,,,,2018_Jun_30_1720,59.9629767473,sequenceLearningTask,001,122,
min1.png,min2.png,min3.png,min4.png,allBlank.png,,,,,,,,,,,,0,6,6,6,,,,,,,,,,,,,,,,,"(-0.25, -0.04)",images/min2.png,7,0.0508631586563,0.670791519689,[ 0.76720351 -0.0390625 ],,,,,,,,,,,,2018_Jun_30_1720,59.9629767473,sequenceLearningTask,001,122,
min1.png,min2.png,min3.png,min4.png,allBlank.png,,,,,,,,,,,,0,6,6,6,,,,,,,,,,,,,,,,,"(0.25, -0.04)",images/min3.png,7,0.0495343386428,0.641933685401,[-0.23279649  0.05989583],,,,,,,,,,,,2018_Jun_30_1720,59.9629767473,sequenceLearningTask,001,122,
min1.png,min2.png,min3.png,min4.png,allBlank.png,,,,,,,,,,,,0,6,6,6,,,,,,,,,,,,,,,,,"(0.75, -0.04)",images/min4.png,7,0.054573105881,0.687515615369,[ 0.23718887 -0.1640625 ],,,,,,,,,,,,2018_Jun_30_1720,59.9629767473,sequenceLearningTask,001,122,
min1.png,min2.png,min3.png,min4.png,allBlank.png,,,,,,,,,,,,0,7,7,7,,,,,,,,,,,,,,,,,"(-0.75, -0.04)",images/min1.png,8,0.0513710557716,0.622506821528,[ 0.81112738 -0.0390625 ],,,,,,,,,,,,2018_Jun_30_1720,59.9629767473,sequenceLearningTask,001,122,
min1.png,min2.png,min3.png,min4.png,allBlank.png,,,,,,,,,,,,0,7,7,7,,,,,,,,,,,,,,,,,"(0.25, -0.04)",images/min3.png,8,0.0618182310136,0.595507448073,[-0.72913616 -0.18489583],,,,,,,,,,,,2018_Jun_30_1720,59.9629767473,sequenceLearningTask,001,122,
min1.png,min2.png,min3.png,min4.png,allBlank.png,,,,,,,,,,,,0,7,7,7,,,,,,,,,,,,,,,,,"(-0.25, -0.04)",images/min2.png,8,0.053935157368,0.653977988055,[ 0.20644217 -0.04427083],,,,,,,,,,,,2018_Jun_30_1720,59.9629767473,sequenceLearningTask,001,122,
min1.png,min2.png,min3.png,min4.png,allBlank.png,,,,,,,,,,,,0,7,7,7,,,,,,,,,,,,,,,,,"(0.75, -0.04)",images/min4.png,8,0.050749927992,0.543989520404,[-0.29868228 -0.30208333],,,,,,,,,,,,2018_Jun_30_1720,59.9629767473,sequenceLearningTask,001,122,
min1.png,min2.png,min3.png,min4.png,allBlank.png,,,,,,,,,,,,0,7,7,7,,,,,,,,,,,,,,,,,"(0.75, -0.04)",images/min4.png,8,0.0517419275129,0.589028271148,[ 0.69253294 -0.0546875 ],,,,,,,,,,,,2018_Jun_30_1720,59.9629767473,sequenceLearningTask,001,122,
min1.png,min2.png,min3.png,min4.png,allBlank.png,,,,,,,,,,,,0,7,7,7,,,,,,,,,,,,,,,,,"(-0.25, -0.04)",images/min2.png,8,0.0556381309871,0.805113926181,[ 0.78770132 -0.0859375 ],,,,,,,,,,,,2018_Jun_30_1720,59.9629767473,sequenceLearningTask,001,122,
min1.png,min2.png,min3.png,min4.png,allBlank.png,,,,,,,,,,,,0,7,7,7,,,,,,,,,,,,,,,,,"(0.25, -0.04)",images/min3.png,8,0.0576783353463,0.736536723445,[-0.19912152 -0.09895833],,,,,,,,,,,,2018_Jun_30_1720,59.9629767473,sequenceLearningTask,001,122,
min1.png,min2.png,min3.png,min4.png,allBlank.png,,,,,,,,,,,,0,7,7,7,,,,,,,,,,,,,,,,,"(0.75, -0.04)",images/min4.png,8,0.0603581290925,0.493151387433,[ 0.27672035 -0.109375  ],,,,,,,,,,,,2018_Jun_30_1720,59.9629767473,sequenceLearningTask,001,122,
min1.png,min2.png,min3.png,min4.png,allBlank.png,,,,,,,,,,,,0,8,8,8,,,,,,,,,,,,,,,,,"(-0.75, -0.04)",images/min1.png,9,0.0584274631692,0.648285272531,[ 0.79062958 -0.05989583],,,,,,,,,,,,2018_Jun_30_1720,59.9629767473,sequenceLearningTask,001,122,
min1.png,min2.png,min3.png,min4.png,allBlank.png,,,,,,,,,,,,0,8,8,8,,,,,,,,,,,,,,,,,"(0.25, -0.04)",images/min3.png,9,0.060206744587,0.451834481326,[-0.74963397  0.01041667],,,,,,,,,,,,2018_Jun_30_1720,59.9629767473,sequenceLearningTask,001,122,
min1.png,min2.png,min3.png,min4.png,allBlank.png,,,,,,,,,,,,0,8,8,8,,,,,,,,,,,,,,,,,"(-0.25, -0.04)",images/min2.png,9,0.0575515660457,0.585882836487,[ 0.26207906 -0.06770833],,,,,,,,,,,,2018_Jun_30_1720,59.9629767473,sequenceLearningTask,001,122,
min1.png,min2.png,min3.png,min4.png,allBlank.png,,,,,,,,,,,,0,8,8,8,,,,,,,,,,,,,,,,,"(0.75, -0.04)",images/min4.png,9,0.0552373105893,0.519790966297,[-0.18740849 -0.17708333],,,,,,,,,,,,2018_Jun_30_1720,59.9629767473,sequenceLearningTask,001,122,
min1.png,min2.png,min3.png,min4.png,allBlank.png,,,,,,,,,,,,0,8,8,8,,,,,,,,,,,,,,,,,"(0.75, -0.04)",images/min4.png,9,0.0555843873881,0.614262722433,[ 0.7510981  -0.13802083],,,,,,,,,,,,2018_Jun_30_1720,59.9629767473,sequenceLearningTask,001,122,
min1.png,min2.png,min3.png,min4.png,allBlank.png,,,,,,,,,,,,0,8,8,8,,,,,,,,,,,,,,,,,"(-0.25, -0.04)",images/min2.png,9,0.0569562843302,0.703259198694,[ 0.76866764 -0.23177083],,,,,,,,,,,,2018_Jun_30_1720,59.9629767473,sequenceLearningTask,001,122,
min1.png,min2.png,min3.png,min4.png,allBlank.png,,,,,,,,,,,,0,8,8,8,,,,,,,,,,,,,,,,,"(0.25, -0.04)",images/min3.png,9,0.0525743374601,0.708120324882,[-0.22986823 -0.1328125 ],,,,,,,,,,,,2018_Jun_30_1720,59.9629767473,sequenceLearningTask,001,122,
min1.png,min2.png,min3.png,min4.png,allBlank.png,,,,,,,,,,,,0,8,8,8,,,,,,,,,,,,,,,,,"(0.75, -0.04)",images/min4.png,9,0.0558198746294,0.723581241677,[ 0.3045388  -0.24739583],,,,,,,,,,,,2018_Jun_30_1720,59.9629767473,sequenceLearningTask,001,122,
min1.png,min2.png,min3.png,min4.png,allBlank.png,,,,,,,,,,,,0,9,9,9,,,,,,,,,,,,,,,,,"(-0.75, -0.04)",images/min1.png,10,0.0587359758792,0.667351521086,[ 0.77013177 -0.30729167],,,,,,,,,,,,2018_Jun_30_1720,59.9629767473,sequenceLearningTask,001,122,
min1.png,min2.png,min3.png,min4.png,allBlank.png,,,,,,,,,,,,0,9,9,9,,,,,,,,,,,,,,,,,"(0.25, -0.04)",images/min3.png,10,0.0514666455565,0.774713118095,[-0.73792094 -0.19791667],,,,,,,,,,,,2018_Jun_30_1720,59.9629767473,sequenceLearningTask,001,122,
min1.png,min2.png,min3.png,min4.png,allBlank.png,,,,,,,,,,,,0,9,9,9,,,,,,,,,,,,,,,,,"(-0.25, -0.04)",images/min2.png,10,0.0547343364451,0.754734869814,[ 0.25768668 -0.1640625 ],,,,,,,,,,,,2018_Jun_30_1720,59.9629767473,sequenceLearningTask,001,122,
min1.png,min2.png,min3.png,min4.png,allBlank.png,,,,,,,,,,,,0,9,9,9,,,,,,,,,,,,,,,,,"(0.75, -0.04)",images/min4.png,10,0.0622600769857,0.46155099012,[-0.3045388 -0.1953125],,,,,,,,,,,,2018_Jun_30_1720,59.9629767473,sequenceLearningTask,001,122,
min1.png,min2.png,min3.png,min4.png,allBlank.png,,,,,,,,,,,,0,9,9,9,,,,,,,,,,,,,,,,,"(0.75, -0.04)",images/min4.png,10,0.0609271544963,2.76017855993,[ 0.78770132 -0.2578125 ],2.2242530362,1,,,,,,,,,,2018_Jun_30_1720,59.9629767473,sequenceLearningTask,001,122,
min1.png,min2.png,min3.png,min4.png,allBlank.png,,,,,,,,,,,,0,9,9,9,,,,,,,,,,,,,,,,,"(-0.25, -0.04)",images/min2.png,10,0.0636943328427,0.644967530272,[ 0.65885798 -0.05208333],,,,,,,,,,,,2018_Jun_30_1720,59.9629767473,sequenceLearningTask,001,122,
min1.png,min2.png,min3.png,min4.png,allBlank.png,,,,,,,,,,,,0,9,9,9,,,,,,,,,,,,,,,,,"(0.25, -0.04)",images/min3.png,10,0.0552922850475,0.656163833337,[-0.1727672  -0.07552083],,,,,,,,,,,,2018_Jun_30_1720,59.9629767473,sequenceLearningTask,001,122,
min1.png,min2.png,min3.png,min4.png,allBlank.png,,,,,,,,,,,,0,9,9,9,,,,,,,,,,,,,,,,,"(0.75, -0.04)",images/min4.png,10,0.0518846965861,0.555969823152,[ 0.27232796 -0.04947917],,,,,,,,,,,,2018_Jun_30_1720,59.9629767473,sequenceLearningTask,001,122,
min1.png,min2.png,min3.png,min4.png,allBlank.png,,,,,,,,,,,,0,0,0,0,,,,,,,,,,,,,,,,,"(-0.75, -0.04)",images/min1.png,1,0.0412385471864,0.708208940225,[ 0.71888726 -0.14322917],,,,,,,,,,,,2018_Jun_30_1720,59.9629767473,sequenceLearningTask,001,122,
min1.png,min2.png,min3.png,min4.png,allBlank.png,,,,,,,,,,,,0,0,0,0,,,,,,,,,,,,,,,,,"(0.25, -0.04)",images/min3.png,1,0.0539433625527,0.589950937429,[-0.71742313 -0.06510417],,,,,,,,,,,,2018_Jun_30_1720,59.9629767473,sequenceLearningTask,001,122,
min1.png,min2.png,min3.png,min4.png,allBlank.png,,,,,,,,,,,,0,0,0,0,,,,,,,,,,,,,,,,,"(-0.25, -0.04)",images/min2.png,1,0.0512557738693,0.842473090277,[ 0.27818448 -0.21614583],,,,,,,,,,,,2018_Jun_30_1720,59.9629767473,sequenceLearningTask,001,122,
min1.png,min2.png,min3.png,min4.png,allBlank.png,,,,,,,,,,,,0,0,0,0,,,,,,,,,,,,,,,,,"(0.75, -0.04)",images/min4.png,1,0.0731425341219,0.586183554376,[-0.19180088 -0.03385417],,,,,,,,,,,,2018_Jun_30_1720,59.9629767473,sequenceLearningTask,001,122,
min1.png,min2.png,min3.png,min4.png,allBlank.png,,,,,,,,,,,,0,0,0,0,,,,,,,,,,,,,,,,,"(0.75, -0.04)",images/min4.png,1,0.0527975168079,0.708488735021,[ 0.73499268 -0.01822917],,,,,,,,,,,,2018_Jun_30_1720,59.9629767473,sequenceLearningTask,001,122,
min1.png,min2.png,min3.png,min4.png,allBlank.png,,,,,,,,,,,,0,0,0,0,,,,,,,,,,,,,,,,,"(-0.25, -0.04)",images/min2.png,1,0.0547868493013,0.618996669073,[ 0.7715959 -0.0546875],,,,,,,,,,,,2018_Jun_30_1720,59.9629767473,sequenceLearningTask,001,122,
min1.png,min2.png,min3.png,min4.png,allBlank.png,,,,,,,,,,,,0,0,0,0,,,,,,,,,,,,,,,,,"(0.25, -0.04)",images/min3.png,1,0.0530350551708,0.456450274331,[-0.23426061 -0.1796875 ],,,,,,,,,,,,2018_Jun_30_1720,59.9629767473,sequenceLearningTask,001,122,
min1.png,min2.png,min3.png,min4.png,allBlank.png,,,,,,,,,,,,0,0,0,0,,,,,,,,,,,,,,,,,"(0.75, -0.04)",images/min4.png,1,0.0636225380003,0.444633663748,[ 0.22108346 -0.22916667],,,,,,,,,,,,2018_Jun_30_1720,59.9629767473,sequenceLearningTask,001,122,
min1.png,min2.png,min3.png,min4.png,allBlank.png,,,,,,,,,,,,0,1,1,1,,,,,,,,,,,,,,,,,"(-0.75, -0.04)",images/min1.png,2,0.052200183738,0.435718795634,[ 0.67057101 -0.08072917],,,,,,,,,,,,2018_Jun_30_1720,59.9629767473,sequenceLearningTask,001,122,
min1.png,min2.png,min3.png,min4.png,allBlank.png,,,,,,,,,,,,0,1,1,1,,,,,,,,,,,,,,,,,"(0.25, -0.04)",images/min3.png,2,0.0548426441383,0.502631998854,[-0.72327965 -0.1640625 ],,,,,,,,,,,,2018_Jun_30_1720,59.9629767473,sequenceLearningTask,001,122,
min1.png,min2.png,min3.png,min4.png,allBlank.png,,,,,,,,,,,,0,1,1,1,,,,,,,,,,,,,,,,,"(-0.25, -0.04)",images/min2.png,2,0.0524516707519,0.606718930532,[ 0.19472914 -0.171875  ],,,,,,,,,,,,2018_Jun_30_1720,59.9629767473,sequenceLearningTask,001,122,
min1.png,min2.png,min3.png,min4.png,allBlank.png,,,,,,,,,,,,0,1,1,1,,,,,,,,,,,,,,,,,"(0.75, -0.04)",images/min4.png,2,0.056233823183,0.418706289725,[-0.26061493 -0.09635417],,,,,,,,,,,,2018_Jun_30_1720,59.9629767473,sequenceLearningTask,001,122,
min1.png,min2.png,min3.png,min4.png,allBlank.png,,,,,,,,,,,,0,1,1,1,,,,,,,,,,,,,,,,,"(0.75, -0.04)",images/min4.png,2,0.0528680807911,0.8434675514,[ 0.71156662 -0.01822917],,,,,,,,,,,,2018_Jun_30_1720,59.9629767473,sequenceLearningTask,001,122,
min1.png,min2.png,min3.png,min4.png,allBlank.png,,,,,,,,,,,,0,1,1,1,,,,,,,,,,,,,,,,,"(-0.25, -0.04)",images/min2.png,2,0.0589850014076,0.788202753523,[ 0.72620791 -0.20833333],,,,,,,,,,,,2018_Jun_30_1720,59.9629767473,sequenceLearningTask,001,122,
min1.png,min2.png,min3.png,min4.png,allBlank.png,,,,,,,,,,,,0,1,1,1,,,,,,,,,,,,,,,,,"(0.25, -0.04)",images/min3.png,2,0.0559445923427,0.638066610089,[-0.27379209 -0.16145833],,,,,,,,,,,,2018_Jun_30_1720,59.9629767473,sequenceLearningTask,001,122,
min1.png,min2.png,min3.png,min4.png,allBlank.png,,,,,,,,,,,,0,1,1,1,,,,,,,,,,,,,,,,,"(0.75, -0.04)",images/min4.png,2,0.0495331077836,0.694910073886,[ 0.23426061 -0.29427083],,,,,,,,,,,,2018_Jun_30_1720,59.9629767473,sequenceLearningTask,001,122,
min1.png,min2.png,min3.png,min4.png,allBlank.png,,,,,,,,,,,,0,2,2,2,,,,,,,,,,,,,,,,,"(-0.75, -0.04)",images/min1.png,3,0.0575757712359,0.481618674239,[ 0.73792094 -0.01041667],,,,,,,,,,,,2018_Jun_30_1720,59.9629767473,sequenceLearningTask,001,122,
min1.png,min2.png,min3.png,min4.png,allBlank.png,,,,,,,,,,,,0,2,2,2,,,,,,,,,,,,,,,,,"(0.25, -0.04)",images/min3.png,3,0.0560303359525,0.604686110979,[-0.74670571 -0.08072917],,,,,,,,,,,,2018_Jun_30_1720,59.9629767473,sequenceLearningTask,001,122,
min1.png,min2.png,min3.png,min4.png,allBlank.png,,,,,,,,,,,,0,2,2,2,,,,,,,,,,,,,,,,,"(-0.25, -0.04)",images/min2.png,3,0.0554572079564,0.668929366511,[ 0.17423133  0.02083333],,,,,,,,,,,,2018_Jun_30_1720,59.9629767473,sequenceLearningTask,001,122,
min1.png,min2.png,min3.png,min4.png,allBlank.png,,,,,,,,,,,,0,2,2,2,,,,,,,,,,,,,,,,,"(0.75, -0.04)",images/min4.png,3,0.0555593619356,0.770231068716,[-0.25475842 -0.10416667],,,,,,,,,,,,2018_Jun_30_1720,59.9629767473,sequenceLearningTask,001,122,
min1.png,min2.png,min3.png,min4.png,allBlank.png,,,,,,,,,,,,0,2,2,2,,,,,,,,,,,,,,,,,"(0.75, -0.04)",images/min4.png,3,0.0550658236025,0.787391676917,[ 0.73499268 -0.09375   ],,,,,,,,,,,,2018_Jun_30_1720,59.9629767473,sequenceLearningTask,001,122,
min1.png,min2.png,min3.png,min4.png,allBlank.png,,,,,,,,,,,,0,2,2,2,,,,,,,,,,,,,,,,,"(-0.25, -0.04)",images/min2.png,3,0.0553423361853,0.704702890362,[ 0.79062958 -0.0546875 ],,,,,,,,,,,,2018_Jun_30_1720,59.9629767473,sequenceLearningTask,001,122,
min1.png,min2.png,min3.png,min4.png,allBlank.png,,,,,,,,,,,,0,2,2,2,,,,,,,,,,,,,,,,,"(0.25, -0.04)",images/min3.png,3,0.051510953228,0.578167147352,[-0.29868228 -0.16927083],,,,,,,,,,,,2018_Jun_30_1720,59.9629767473,sequenceLearningTask,001,122,
min1.png,min2.png,min3.png,min4.png,allBlank.png,,,,,,,,,,,,0,2,2,2,,,,,,,,,,,,,,,,,"(0.75, -0.04)",images/min4.png,3,0.062081615557,0.529065218871,[ 0.16398243 -0.04947917],,,,,,,,,,,,2018_Jun_30_1720,59.9629767473,sequenceLearningTask,001,122,
min1.png,min2.png,min3.png,min4.png,allBlank.png,,,,,,,,,,,,0,3,3,3,,,,,,,,,,,,,,,,,"(-0.75, -0.04)",images/min1.png,4,0.0556508488953,0.635463944403,[ 0.63103953 -0.28385417],,,,,,,,,,,,2018_Jun_30_1720,59.9629767473,sequenceLearningTask,001,122,
min1.png,min2.png,min3.png,min4.png,allBlank.png,,,,,,,,,,,,0,3,3,3,,,,,,,,,,,,,,,,,"(0.25, -0.04)",images/min3.png,4,0.0539597726893,0.606580264051,[-0.70717423 -0.16927083],,,,,,,,,,,,2018_Jun_30_1720,59.9629767473,sequenceLearningTask,001,122,
min1.png,min2.png,min3.png,min4.png,allBlank.png,,,,,,,,,,,,0,3,3,3,,,,,,,,,,,,,,,,,"(-0.25, -0.04)",images/min2.png,4,0.0587113605579,0.666675418732,[ 0.18887262 -0.11979167],,,,,,,,,,,,2018_Jun_30_1720,59.9629767473,sequenceLearningTask,001,122,
min1.png,min2.png,min3.png,min4.png,allBlank.png,,,,,,,,,,,,0,3,3,3,,,,,,,,,,,,,,,,,"(0.75, -0.04)",images/min4.png,4,0.0537895164452,0.55328920891,[-0.24304539 -0.05989583],,,,,,,,,,,,2018_Jun_30_1720,59.9629767473,sequenceLearningTask,001,122,
min1.png,min2.png,min3.png,min4.png,allBlank.png,,,,,,,,,,,,0,3,3,3,,,,,,,,,,,,,,,,,"(0.75, -0.04)",images/min4.png,4,0.0583724888274,0.567102126312,[ 0.73938507 -0.1328125 ],,,,,,,,,,,,2018_Jun_30_1720,59.9629767473,sequenceLearningTask,001,122,
min1.png,min2.png,min3.png,min4.png,allBlank.png,,,,,,,,,,,,0,3,3,3,,,,,,,,,,,,,,,,,"(-0.25, -0.04)",images/min2.png,4,0.0637320764363,0.627600562992,[ 0.64128843 -0.12760417],,,,,,,,,,,,2018_Jun_30_1720,59.9629767473,sequenceLearningTask,001,122,
min1.png,min2.png,min3.png,min4.png,allBlank.png,,,,,,,,,,,,0,3,3,3,,,,,,,,,,,,,,,,,"(0.25, -0.04)",images/min3.png,4,0.0495105437003,0.559478744864,[-0.24304539 -0.13020833],,,,,,,,,,,,2018_Jun_30_1720,59.9629767473,sequenceLearningTask,001,122,
min1.png,min2.png,min3.png,min4.png,allBlank.png,,,,,,,,,,,,0,3,3,3,,,,,,,,,,,,,,,,,"(0.75, -0.04)",images/min4.png,4,0.0516643890878,0.506170458975,[ 0.24011713 -0.05989583],,,,,,,,,,,,2018_Jun_30_1720,59.9629767473,sequenceLearningTask,001,122,
min1.png,min2.png,min3.png,min4.png,allBlank.png,,,,,,,,,,,,0,4,4,4,,,,,,,,,,,,,,,,,"(-0.75, -0.04)",images/min1.png,5,0.0510161842685,0.671673980891,[ 0.65300146 -0.1328125 ],,,,,,,,,,,,2018_Jun_30_1720,59.9629767473,sequenceLearningTask,001,122,
min1.png,min2.png,min3.png,min4.png,allBlank.png,,,,,,,,,,,,0,4,4,4,,,,,,,,,,,,,,,,,"(0.25, -0.04)",images/min3.png,5,0.052253516973,0.504182357341,[-0.72035139 -0.25260417],,,,,,,,,,,,2018_Jun_30_1720,59.9629767473,sequenceLearningTask,001,122,
min1.png,min2.png,min3.png,min4.png,allBlank.png,,,,,,,,,,,,0,4,4,4,,,,,,,,,,,,,,,,,"(-0.25, -0.04)",images/min2.png,5,0.0526826450368,0.689657973475,[ 0.15812592 -0.11197917],,,,,,,,,,,,2018_Jun_30_1720,59.9629767473,sequenceLearningTask,001,122,
min1.png,min2.png,min3.png,min4.png,allBlank.png,,,,,,,,,,,,0,4,4,4,,,,,,,,,,,,,,,,,"(0.75, -0.04)",images/min4.png,5,0.0509997738991,0.457702376414,[-0.28696925 -0.03645833],,,,,,,,,,,,2018_Jun_30_1720,59.9629767473,sequenceLearningTask,001,122,
min1.png,min2.png,min3.png,min4.png,allBlank.png,,,,,,,,,,,,0,4,4,4,,,,,,,,,,,,,,,,,"(0.75, -0.04)",images/min4.png,5,0.0635733072413,0.708577350248,[ 0.65300146 -0.14322917],,,,,,,,,,,,2018_Jun_30_1720,59.9629767473,sequenceLearningTask,001,122,
min1.png,min2.png,min3.png,min4.png,allBlank.png,,,,,,,,,,,,0,4,4,4,,,,,,,,,,,,,,,,,"(-0.25, -0.04)",images/min2.png,5,0.0495445950655,0.67528054351,[ 0.73499268 -0.1328125 ],,,,,,,,,,,,2018_Jun_30_1720,59.9629767473,sequenceLearningTask,001,122,
min1.png,min2.png,min3.png,min4.png,allBlank.png,,,,,,,,,,,,0,4,4,4,,,,,,,,,,,,,,,,,"(0.25, -0.04)",images/min3.png,5,0.0512931070989,0.522762041888,[-0.2284041  -0.15885417],,,,,,,,,,,,2018_Jun_30_1720,59.9629767473,sequenceLearningTask,001,122,
min1.png,min2.png,min3.png,min4.png,allBlank.png,,,,,,,,,,,,0,4,4,4,,,,,,,,,,,,,,,,,"(0.75, -0.04)",images/min4.png,5,0.0533726960421,0.505825433414,[ 0.28111274 -0.24479167],,,,,,,,,,,,2018_Jun_30_1720,59.9629767473,sequenceLearningTask,001,122,
min1.png,min2.png,min3.png,min4.png,allBlank.png,,,,,,,,,,,,0,5,5,5,,,,,,,,,,,,,,,,,"(-0.75, -0.04)",images/min1.png,6,0.0519150556065,0.738456312334,[ 0.62225476 -0.2578125 ],,,,,,,,,,,,2018_Jun_30_1720,59.9629767473,sequenceLearningTask,001,122,
min1.png,min2.png,min3.png,min4.png,allBlank.png,,,,,,,,,,,,0,5,5,5,,,,,,,,,,,,,,,,,"(0.25, -0.04)",images/min3.png,6,0.0541136187967,0.604804264731,[-0.761347   -0.16666667],,,,,,,,,,,,2018_Jun_30_1720,59.9629767473,sequenceLearningTask,001,122,
min1.png,min2.png,min3.png,min4.png,allBlank.png,,,,,,,,,,,,0,5,5,5,,,,,,,,,,,,,,,,,"(-0.25, -0.04)",images/min2.png,6,0.048138236627,0.694826791878,[ 0.25915081 -0.13802083],,,,,,,,,,,,2018_Jun_30_1720,59.9629767473,sequenceLearningTask,001,122,
min1.png,min2.png,min3.png,min4.png,allBlank.png,,,,,,,,,,,,0,5,5,5,,,,,,,,,,,,,,,,,"(0.75, -0.04)",images/min4.png,6,0.0614830517443,0.448151200661,[-0.33382138 -0.0390625 ],,,,,,,,,,,,2018_Jun_30_1720,59.9629767473,sequenceLearningTask,001,122,
min1.png,min2.png,min3.png,min4.png,allBlank.png,,,,,,,,,,,,0,5,5,5,,,,,,,,,,,,,,,,,"(0.75, -0.04)",images/min4.png,6,0.0601287959144,0.630963843782,[ 0.66471449 -0.12239583],,,,,,,,,,,,2018_Jun_30_1720,59.9629767473,sequenceLearningTask,001,122,
min1.png,min2.png,min3.png,min4.png,allBlank.png,,,,,,,,,,,,0,5,5,5,,,,,,,,,,,,,,,,,"(-0.25, -0.04)",images/min2.png,6,0.0514276712202,0.756889945827,[ 0.65885798 -0.19270833],,,,,,,,,,,,2018_Jun_30_1720,59.9629767473,sequenceLearningTask,001,122,
min1.png,min2.png,min3.png,min4.png,allBlank.png,,,,,,,,,,,,0,5,5,5,,,,,,,,,,,,,,,,,"(0.25, -0.04)",images/min3.png,6,0.0548972082324,0.873346103239,[-0.31625183 -0.14322917],,,,,,,,,,,,2018_Jun_30_1720,59.9629767473,sequenceLearningTask,001,122,
min1.png,min2.png,min3.png,min4.png,allBlank.png,,,,,,,,,,,,0,5,5,5,,,,,,,,,,,,,,,,,"(0.75, -0.04)",images/min4.png,6,0.0597045909381,0.66762270045,[ 0.24011713 -0.13541667],,,,,,,,,,,,2018_Jun_30_1720,59.9629767473,sequenceLearningTask,001,122,
min1.png,min2.png,min3.png,min4.png,allBlank.png,,,,,,,,,,,,0,6,6,6,,,,,,,,,,,,,,,,,"(-0.75, -0.04)",images/min1.png,7,0.0571806945372,0.633230099222,[ 0.7510981 -0.15625  ],,,,,,,,,,,,2018_Jun_30_1720,59.9629767473,sequenceLearningTask,001,122,
min1.png,min2.png,min3.png,min4.png,allBlank.png,,,,,,,,,,,,0,6,6,6,,,,,,,,,,,,,,,,,"(0.25, -0.04)",images/min3.png,7,0.0740237644641,0.545985006844,[-0.69399707 -0.15364583],,,,,,,,,,,,2018_Jun_30_1720,59.9629767473,sequenceLearningTask,001,122,
min1.png,min2.png,min3.png,min4.png,allBlank.png,,,,,,,,,,,,0,6,6,6,,,,,,,,,,,,,,,,,"(-0.25, -0.04)",images/min2.png,7,0.0556898232317,0.631705997279,[ 0.21083455 -0.2109375 ],,,,,,,,,,,,2018_Jun_30_1720,59.9629767473,sequenceLearningTask,001,122,
min1.png,min2.png,min3.png,min4.png,allBlank.png,,,,,,,,,,,,0,6,6,6,,,,,,,,,,,,,,,,,"(0.75, -0.04)",images/min4.png,7,0.0551207979443,0.938448845758,[-0.25622255 -0.1328125 ],,,,,,,,,,,,2018_Jun_30_1720,59.9629767473,sequenceLearningTask,001,122,
min1.png,min2.png,min3.png,min4.png,allBlank.png,,,,,,,,,,,,0,6,6,6,,,,,,,,,,,,,,,,,"(0.75, -0.04)",images/min4.png,7,0.0528611064656,0.857335443143,[ 0.75841874 -0.06510417],,,,,,,,,,,,2018_Jun_30_1720,59.9629767473,sequenceLearningTask,001,122,
min1.png,min2.png,min3.png,min4.png,allBlank.png,,,,,,,,,,,,0,6,6,6,,,,,,,,,,,,,,,,,"(-0.25, -0.04)",images/min2.png,7,0.0569628484081,1.14042291674,[ 0.70424597 -0.05989583],,,,,,,,,,,,2018_Jun_30_1720,59.9629767473,sequenceLearningTask,001,122,
min1.png,min2.png,min3.png,min4.png,allBlank.png,,,,,,,,,,,,0,6,6,6,,,,,,,,,,,,,,,,,"(0.25, -0.04)",images/min3.png,7,0.0517296198523,1.09273309016,[-0.22693997 -0.0546875 ],,,,,,,,,,,,2018_Jun_30_1720,59.9629767473,sequenceLearningTask,001,122,
min1.png,min2.png,min3.png,min4.png,allBlank.png,,,,,,,,,,,,0,6,6,6,,,,,,,,,,,,,,,,,"(0.75, -0.04)",images/min4.png,7,0.0531720807776,1.00806768902,[ 0.16983895  0.00520833],,,,,,,,,,,,2018_Jun_30_1720,59.9629767473,sequenceLearningTask,001,122,
min1.png,min2.png,min3.png,min4.png,allBlank.png,,,,,,,,,,,,0,7,7,7,,,,,,,,,,,,,,,,,"(-0.75, -0.04)",images/min1.png,8,0.0541624393081,0.955263197888,[ 0.78623719  0.01302083],,,,,,,,,,,,2018_Jun_30_1720,59.9629767473,sequenceLearningTask,001,122,
min1.png,min2.png,min3.png,min4.png,allBlank.png,,,,,,,,,,,,0,7,7,7,,,,,,,,,,,,,,,,,"(0.25, -0.04)",images/min3.png,8,0.0517571069067,0.940955511411,[ 0.87262079 -0.75260417],,,,,,,,,,,,2018_Jun_30_1720,59.9629767473,sequenceLearningTask,001,122,
min1.png,min2.png,min3.png,min4.png,allBlank.png,,,,,,,,,,,,0,7,7,7,,,,,,,,,,,,,,,,,"(-0.25, -0.04)",images/min2.png,8,0.0558904386126,1.98805087677,[ 0.24011713 -0.01041667],,,,,,,,,,,,2018_Jun_30_1720,59.9629767473,sequenceLearningTask,001,122,
min1.png,min2.png,min3.png,min4.png,allBlank.png,,,,,,,,,,,,0,7,7,7,,,,,,,,,,,,,,,,,"(0.75, -0.04)",images/min4.png,8,0.0563893102808,2.48185785359,[-0.22108346 -0.0390625 ],,,,,,,,,,,,2018_Jun_30_1720,59.9629767473,sequenceLearningTask,001,122,
min1.png,min2.png,min3.png,min4.png,allBlank.png,,,,,,,,,,,,0,7,7,7,,,,,,,,,,,,,,,,,"(0.75, -0.04)",images/min4.png,8,0.0595720781712,1.21980298671,[ 0.68374817 -0.1484375 ],,,,,,,,,,,,2018_Jun_30_1720,59.9629767473,sequenceLearningTask,001,122,
min1.png,min2.png,min3.png,min4.png,allBlank.png,,,,,,,,,,,,0,7,7,7,,,,,,,,,,,,,,,,,"(-0.25, -0.04)",images/min2.png,8,0.0584163863678,1.18612505181,[ 0.72620791 -0.0390625 ],,,,,,,,,,,,2018_Jun_30_1720,59.9629767473,sequenceLearningTask,001,122,
min1.png,min2.png,min3.png,min4.png,allBlank.png,,,,,,,,,,,,0,7,7,7,,,,,,,,,,,,,,,,,"(0.25, -0.04)",images/min3.png,8,0.0630572049413,1.11599461909,[-0.09224012  0.04427083],,,,,,,,,,,,2018_Jun_30_1720,59.9629767473,sequenceLearningTask,001,122,
min1.png,min2.png,min3.png,min4.png,allBlank.png,,,,,,,,,,,,0,7,7,7,,,,,,,,,,,,,,,,,"(0.75, -0.04)",images/min4.png,8,0.0520557735581,2.21817919263,[ 0.21376281  0.0234375 ],,,,,,,,,,,,2018_Jun_30_1720,59.9629767473,sequenceLearningTask,001,122,
min1.png,min2.png,min3.png,min4.png,allBlank.png,,,,,,,,,,,,0,8,8,8,,,,,,,,,,,,,,,,,"(-0.75, -0.04)",images/min1.png,9,0.0535950550111,1.2407108756,[ 0.69985359 -0.12239583],,,,,,,,,,,,2018_Jun_30_1720,59.9629767473,sequenceLearningTask,001,122,
min1.png,min2.png,min3.png,min4.png,allBlank.png,,,,,,,,,,,,0,8,8,8,,,,,,,,,,,,,,,,,"(0.25, -0.04)",images/min3.png,9,0.0564701306866,0.721340011689,[-0.73938507 -0.15625   ],,,,,,,,,,,,2018_Jun_30_1720,59.9629767473,sequenceLearningTask,001,122,
min1.png,min2.png,min3.png,min4.png,allBlank.png,,,,,,,,,,,,0,8,8,8,,,,,,,,,,,,,,,,,"(-0.25, -0.04)",images/min2.png,9,0.0555351567455,1.32370284153,[ 0.27525622 -0.16666667],,,,,,,,,,,,2018_Jun_30_1720,59.9629767473,sequenceLearningTask,001,122,
min1.png,min2.png,min3.png,min4.png,allBlank.png,,,,,,,,,,,,0,8,8,8,,,,,,,,,,,,,,,,,"(0.75, -0.04)",images/min4.png,9,0.0464274680708,1.51783404395,[-0.2284041 -0.21875  ],,,,,,,,,,,,2018_Jun_30_1720,59.9629767473,sequenceLearningTask,001,122,
min1.png,min2.png,min3.png,min4.png,allBlank.png,,,,,,,,,,,,0,8,8,8,,,,,,,,,,,,,,,,,"(0.75, -0.04)",images/min4.png,9,0.0524890040979,0.756761535769,[ 0.69399707 -0.1796875 ],,,,,,,,,,,,2018_Jun_30_1720,59.9629767473,sequenceLearningTask,001,122,
min1.png,min2.png,min3.png,min4.png,allBlank.png,,,,,,,,,,,,0,8,8,8,,,,,,,,,,,,,,,,,"(-0.25, -0.04)",images/min2.png,9,0.0533899267903,0.691697357222,[ 0.72327965 -0.12760417],,,,,,,,,,,,2018_Jun_30_1720,59.9629767473,sequenceLearningTask,001,122,
min1.png,min2.png,min3.png,min4.png,allBlank.png,,,,,,,,,,,,0,8,8,8,,,,,,,,,,,,,,,,,"(0.25, -0.04)",images/min3.png,9,0.0554941311711,0.486174159567,[-0.28696925 -0.2578125 ],,,,,,,,,,,,2018_Jun_30_1720,59.9629767473,sequenceLearningTask,001,122,
min1.png,min2.png,min3.png,min4.png,allBlank.png,,,,,,,,,,,,0,8,8,8,,,,,,,,,,,,,,,,,"(0.75, -0.04)",images/min4.png,9,0.0677493055118,0.576191763626,[ 0.27525622 -0.24739583],,,,,,,,,,,,2018_Jun_30_1720,59.9629767473,sequenceLearningTask,001,122,
min1.png,min2.png,min3.png,min4.png,allBlank.png,,,,,,,,,,,,0,9,9,9,,,,,,,,,,,,,,,,,"(-0.75, -0.04)",images/min1.png,10,0.056095566717,0.701323199435,[ 0.69399707 -0.31770833],,,,,,,,,,,,2018_Jun_30_1720,59.9629767473,sequenceLearningTask,001,122,
min1.png,min2.png,min3.png,min4.png,allBlank.png,,,,,,,,,,,,0,9,9,9,,,,,,,,,,,,,,,,,"(0.25, -0.04)",images/min3.png,10,0.0557029515039,0.554929003119,[-0.69106881 -0.13802083],,,,,,,,,,,,2018_Jun_30_1720,59.9629767473,sequenceLearningTask,001,122,
min1.png,min2.png,min3.png,min4.png,allBlank.png,,,,,,,,,,,,0,9,9,9,,,,,,,,,,,,,,,,,"(-0.25, -0.04)",images/min2.png,10,0.0596172063379,0.683798693819,[ 0.18448023 -0.20833333],,,,,,,,,,,,2018_Jun_30_1720,59.9629767473,sequenceLearningTask,001,122,
min1.png,min2.png,min3.png,min4.png,allBlank.png,,,,,,,,,,,,0,9,9,9,,,,,,,,,,,,,,,,,"(0.75, -0.04)",images/min4.png,10,0.0566272587748,0.61743810575,[-0.27232796 -0.06770833],,,,,,,,,,,,2018_Jun_30_1720,59.9629767473,sequenceLearningTask,001,122,
min1.png,min2.png,min3.png,min4.png,allBlank.png,,,,,,,,,,,,0,9,9,9,,,,,,,,,,,,,,,,,"(0.75, -0.04)",images/min4.png,10,0.0533287986182,0.590851039626,[ 0.69985359 -0.2109375 ],,,,,,,,,,,,2018_Jun_30_1720,59.9629767473,sequenceLearningTask,001,122,
min1.png,min2.png,min3.png,min4.png,allBlank.png,,,,,,,,,,,,0,9,9,9,,,,,,,,,,,,,,,,,"(-0.25, -0.04)",images/min2.png,10,0.0585292067844,0.578545813914,[ 0.7057101 -0.1484375],,,,,,,,,,,,2018_Jun_30_1720,59.9629767473,sequenceLearningTask,001,122,
min1.png,min2.png,min3.png,min4.png,allBlank.png,,,,,,,,,,,,0,9,9,9,,,,,,,,,,,,,,,,,"(0.25, -0.04)",images/min3.png,10,0.0528098244686,0.706437043496,[-0.21669107  0.0625    ],,,,,,,,,,,,2018_Jun_30_1720,59.9629767473,sequenceLearningTask,001,122,
min1.png,min2.png,min3.png,min4.png,allBlank.png,,,,,,,,,,,,0,9,9,9,,,,,,,,,,,,,,,,,"(0.75, -0.04)",images/min4.png,10,0.0582691043383,0.704868633882,[ 0.25622255 -0.05208333],,,,,,,,,,,,2018_Jun_30_1720,59.9629767473,sequenceLearningTask,001,122,
min1.png,min2.png,min3.png,min4.png,images/allBlank.png,"['num_7', 'num_4', 'num_1', 'num_0']",['num_0'],num_0,[4],'num_0',images/min4.png,"[(0.45, 0.79)]",,,,,0,-1,-1,0,0,0,0,3,,,,,,,,,,,,,"(0.75, 0.04)",images/min4.png,1,0.031933935592,0.695055714808,[ 0.07027818 -0.75260417],,,,,,,,['num_0'],,,,2018_Jun_30_1720,59.9629767473,sequenceLearningTask,001,122,
min1.png,min2.png,min3.png,min4.png,images/allBlank.png,"['num_7', 'num_4', 'num_1', 'num_0']",['num_0'],num_0,[4],'num_0',images/min4.png,"[(0.45, 0.79)]",,,,,0,-1,-1,0,0,0,0,3,,,,,,,,,,,,,"(-0.25, 0.04)",images/min2.png,1,0.0630444869166,0.594177397317,[ 0.74084919 -0.02864583],,,,,,,,['num_0'],,,,2018_Jun_30_1720,59.9629767473,sequenceLearningTask,001,122,
min1.png,min2.png,min3.png,min4.png,images/allBlank.png,"['num_7', 'num_4', 'num_1', 'num_0']",['num_0'],num_0,[4],'num_0',images/min4.png,"[(0.45, 0.79)]",,,,,0,-1,-1,0,0,0,0,3,,,,,,,,,,,,,"(-0.25, 0.04)",images/min2.png,1,0.0561156693147,0.603877906105,[-0.20644217 -0.09895833],,,,,,,,['num_0'],,,,2018_Jun_30_1720,59.9629767473,sequenceLearningTask,001,122,
min1.png,min2.png,min3.png,min4.png,images/allBlank.png,"['num_7', 'num_4', 'num_1', 'num_0']",['num_0'],num_0,[4],'num_0',images/min4.png,"[(0.45, 0.79)]",,,,,0,-1,-1,0,0,0,0,3,,,,,,,,,,,,,"(0.75, 0.04)",images/min4.png,1,0.0708557658363,0.6524108093,[-0.19180088 -0.16927083],,,,,,,,['num_0'],,,,2018_Jun_30_1720,59.9629767473,sequenceLearningTask,001,122,
min1.png,min2.png,min3.png,min4.png,images/allBlank.png,"['num_7', 'num_4', 'num_1', 'num_0']",['num_7'],num_7,[1],'num_7',images/min1.png,"[(0.45, 0.79)]",,,,,0,-1,-1,0,0,1,1,0,,,,,,,,,,,,,"(-0.75, 0.04)",images/min1.png,2,0.05565905408,0.661614908022,[ 0.71888726 -0.10677083],,,,,,,,['num_7'],,,,2018_Jun_30_1720,59.9629767473,sequenceLearningTask,001,122,
min1.png,min2.png,min3.png,min4.png,images/allBlank.png,"['num_7', 'num_4', 'num_1', 'num_0']",['num_7'],num_7,[1],'num_7',images/min1.png,"[(0.45, 0.79)]",,,,,0,-1,-1,0,0,1,1,0,,,,,,,,,,,,,"(0.75, 0.04)",images/min4.png,2,0.0545201827772,0.872010719148,[-0.75841874 -0.1640625 ],0.471793037141,1,,,,,,['num_7'],,,,2018_Jun_30_1720,59.9629767473,sequenceLearningTask,001,122,
min1.png,min2.png,min3.png,min4.png,images/allBlank.png,"['num_7', 'num_4', 'num_1', 'num_0']",['num_7'],num_7,[1],'num_7',images/min1.png,"[(0.45, 0.79)]",,,,,0,-1,-1,0,0,1,1,0,,,,,,,,,,,,,"(0.25, 0.04)",images/min3.png,2,0.0545136186993,0.517980505363,[ 0.72620791 -0.05729167],,,,,,,,['num_7'],,,,2018_Jun_30_1720,59.9629767473,sequenceLearningTask,001,122,
min1.png,min2.png,min3.png,min4.png,images/allBlank.png,"['num_7', 'num_4', 'num_1', 'num_0']",['num_7'],num_7,[1],'num_7',images/min1.png,"[(0.45, 0.79)]",,,,,0,-1,-1,0,0,1,1,0,,,,,,,,,,,,,"(-0.25, 0.04)",images/min2.png,2,0.0599162831204,1.11752118263,[ 0.25036603 -0.20572917],0.698110072641,1,,,,,,['num_7'],,,,2018_Jun_30_1720,59.9629767473,sequenceLearningTask,001,122,
min1.png,min2.png,min3.png,min4.png,images/allBlank.png,"['num_7', 'num_4', 'num_1', 'num_0']",['num_4'],num_4,[2],'num_4',images/min2.png,"[(0.45, 0.79)]",,,,,0,-1,-1,0,0,2,2,1,,,,,,,,,,,,,"(-0.75, 0.04)",images/min1.png,3,0.0568574125646,0.694278279203,[-0.22986823 -0.09375   ],,,,,,,,['num_4'],,,,2018_Jun_30_1720,59.9629767473,sequenceLearningTask,001,122,
min1.png,min2.png,min3.png,min4.png,images/allBlank.png,"['num_7', 'num_4', 'num_1', 'num_0']",['num_4'],num_4,[2],'num_4',images/min2.png,"[(0.45, 0.79)]",,,,,0,-1,-1,0,0,2,2,1,,,,,,,,,,,,,"(0.75, 0.04)",images/min4.png,3,0.0653041782789,0.506686971639,[-0.74670571 -0.20052083],,,,,,,,['num_4'],,,,2018_Jun_30_1720,59.9629767473,sequenceLearningTask,001,122,
min1.png,min2.png,min3.png,min4.png,images/allBlank.png,"['num_7', 'num_4', 'num_1', 'num_0']",['num_4'],num_4,[2],'num_4',images/min2.png,"[(0.45, 0.79)]",,,,,0,-1,-1,0,0,2,2,1,,,,,,,,,,,,,"(0.75, 0.04)",images/min4.png,3,0.0621927949833,0.945195919834,[ 0.68814056 -0.26041667],,,,,,,,['num_4'],,,,2018_Jun_30_1720,59.9629767473,sequenceLearningTask,001,122,
min1.png,min2.png,min3.png,min4.png,images/allBlank.png,"['num_7', 'num_4', 'num_1', 'num_0']",['num_4'],num_4,[2],'num_4',images/min2.png,"[(0.45, 0.79)]",,,,,0,-1,-1,0,0,2,2,1,,,,,,,,,,,,,"(0.75, 0.04)",images/min4.png,3,0.0587355656317,0.664712752914,[ 0.81405564  0.05729167],,,,,,,,['num_4'],,,,2018_Jun_30_1720,59.9629767473,sequenceLearningTask,001,122,
min1.png,min2.png,min3.png,min4.png,images/allBlank.png,"['num_7', 'num_4', 'num_1', 'num_0']",['num_1'],num_1,[3],'num_1',images/min3.png,"[(0.45, 0.79)]",,,,,0,-1,-1,0,0,3,3,2,,,,,,,,,,,,,"(0.75, 0.04)",images/min4.png,4,0.0512274660869,0.520474453224,[ 0.73499268 -0.0859375 ],,,,,,,,['num_1'],,,,2018_Jun_30_1720,59.9629767473,sequenceLearningTask,001,122,
min1.png,min2.png,min3.png,min4.png,images/allBlank.png,"['num_7', 'num_4', 'num_1', 'num_0']",['num_1'],num_1,[3],'num_1',images/min3.png,"[(0.45, 0.79)]",,,,,0,-1,-1,0,0,3,3,2,,,,,,,,,,,,,"(0.75, 0.04)",images/min4.png,4,0.0537726959446,0.57191689359,[ 0.72620791 -0.13541667],,,,,,,,['num_1'],,,,2018_Jun_30_1720,59.9629767473,sequenceLearningTask,001,122,
min1.png,min2.png,min3.png,min4.png,images/allBlank.png,"['num_7', 'num_4', 'num_1', 'num_0']",['num_1'],num_1,[3],'num_1',images/min3.png,"[(0.45, 0.79)]",,,,,0,-1,-1,0,0,3,3,2,,,,,,,,,,,,,"(-0.25, 0.04)",images/min2.png,4,0.0595798729919,0.86662610597,[ 0.69399707  0.02864583],,,,,,,,['num_1'],,,,2018_Jun_30_1720,59.9629767473,sequenceLearningTask,001,122,
min1.png,min2.png,min3.png,min4.png,images/allBlank.png,"['num_7', 'num_4', 'num_1', 'num_0']",['num_1'],num_1,[3],'num_1',images/min3.png,"[(0.45, 0.79)]",,,,,0,-1,-1,0,0,3,3,2,,,,,,,,,,,,,"(0.25, 0.04)",images/min3.png,4,0.0557817206718,0.834699965315,[-0.22986823 -0.08333333],,,,,,,,['num_1'],,,,2018_Jun_30_1720,59.9629767473,sequenceLearningTask,001,122,
min1.png,min2.png,min3.png,min4.png,images/allBlank.png,"['num_7', 'num_4', 'num_1', 'num_0']",['num_4'],num_4,[2],'num_4',images/min2.png,"[(0.45, 0.79)]",,,,,0,-1,-1,0,1,0,4,1,,,,,,,,,,,,,"(-0.75, 0.04)",images/min1.png,5,0.0513800815679,0.905849884846,[ 0.28111274  0.00520833],,,,,,,,['num_4'],,,,2018_Jun_30_1720,59.9629767473,sequenceLearningTask,001,122,
min1.png,min2.png,min3.png,min4.png,images/allBlank.png,"['num_7', 'num_4', 'num_1', 'num_0']",['num_4'],num_4,[2],'num_4',images/min2.png,"[(0.45, 0.79)]",,,,,0,-1,-1,0,1,0,4,1,,,,,,,,,,,,,"(-0.75, 0.04)",images/min1.png,5,0.0552849003579,1.02113681182,[-0.76866764 -0.11979167],,,,,,,,['num_4'],,,,2018_Jun_30_1720,59.9629767473,sequenceLearningTask,001,122,
min1.png,min2.png,min3.png,min4.png,images/allBlank.png,"['num_7', 'num_4', 'num_1', 'num_0']",['num_4'],num_4,[2],'num_4',images/min2.png,"[(0.45, 0.79)]",,,,,0,-1,-1,0,1,0,4,1,,,,,,,,,,,,,"(-0.75, 0.04)",images/min1.png,5,0.0616163850063,0.611578005599,[-0.75695461 -0.1796875 ],,,,,,,,['num_4'],,,,2018_Jun_30_1720,59.9629767473,sequenceLearningTask,001,122,
min1.png,min2.png,min3.png,min4.png,images/allBlank.png,"['num_7', 'num_4', 'num_1', 'num_0']",['num_4'],num_4,[2],'num_4',images/min2.png,"[(0.45, 0.79)]",,,,,0,-1,-1,0,1,0,4,1,,,,,,,,,,,,,"(0.75, 0.04)",images/min4.png,5,0.0549304391025,0.585244477843,[-0.8374817 -0.0390625],,,,,,,,['num_4'],,,,2018_Jun_30_1720,59.9629767473,sequenceLearningTask,001,122,
min1.png,min2.png,min3.png,min4.png,images/allBlank.png,"['num_7', 'num_4', 'num_1', 'num_0']",['num_1'],num_1,[3],'num_1',images/min3.png,"[(0.45, 0.79)]",,,,,0,-1,-1,0,1,1,5,2,,,,,,,,,,,,,"(0.25, 0.04)",images/min3.png,6,0.0601439753082,0.662154805264,[ 0.78038067 -0.17447917],,,,,,,,['num_1'],,,,2018_Jun_30_1720,59.9629767473,sequenceLearningTask,001,122,
min1.png,min2.png,min3.png,min4.png,images/allBlank.png,"['num_7', 'num_4', 'num_1', 'num_0']",['num_1'],num_1,[3],'num_1',images/min3.png,"[(0.45, 0.79)]",,,,,0,-1,-1,0,1,1,5,2,,,,,,,,,,,,,"(0.25, 0.04)",images/min3.png,6,0.0566547459457,0.671031929785,[ 0.20937042 -0.2421875 ],,,,,,,,['num_1'],,,,2018_Jun_30_1720,59.9629767473,sequenceLearningTask,001,122,
min1.png,min2.png,min3.png,min4.png,images/allBlank.png,"['num_7', 'num_4', 'num_1', 'num_0']",['num_1'],num_1,[3],'num_1',images/min3.png,"[(0.45, 0.79)]",,,,,0,-1,-1,0,1,1,5,2,,,,,,,,,,,,,"(0.75, 0.04)",images/min4.png,6,0.0612036671955,0.630627433537,[ 0.24597365 -0.08072917],,,,,,,,['num_1'],,,,2018_Jun_30_1720,59.9629767473,sequenceLearningTask,001,122,
min1.png,min2.png,min3.png,min4.png,images/allBlank.png,"['num_7', 'num_4', 'num_1', 'num_0']",['num_1'],num_1,[3],'num_1',images/min3.png,"[(0.45, 0.79)]",,,,,0,-1,-1,0,1,1,5,2,,,,,,,,,,,,,"(0.25, 0.04)",images/min3.png,6,0.0601173086325,0.531908704899,[ 0.73206442 -0.15885417],,,,,,,,['num_1'],,,,2018_Jun_30_1720,59.9629767473,sequenceLearningTask,001,122,
min1.png,min2.png,min3.png,min4.png,images/allBlank.png,"['num_7', 'num_4', 'num_1', 'num_0']",['num_0'],num_0,[4],'num_0',images/min4.png,"[(0.45, 0.79)]",,,,,0,-1,-1,0,1,2,6,3,,,,,,,,,,,,,"(0.25, 0.04)",images/min3.png,7,0.0553144388832,0.786376703065,[ 0.24011713 -0.1796875 ],,,,,,,,['num_0'],,,,2018_Jun_30_1720,59.9629767473,sequenceLearningTask,001,122,
min1.png,min2.png,min3.png,min4.png,images/allBlank.png,"['num_7', 'num_4', 'num_1', 'num_0']",['num_0'],num_0,[4],'num_0',images/min4.png,"[(0.45, 0.79)]",,,,,0,-1,-1,0,1,2,6,3,,,,,,,,,,,,,"(-0.75, 0.04)",images/min1.png,7,0.056163669331,0.888912866008,[ 0.21376281 -0.22135417],,,,,,,,['num_0'],,,,2018_Jun_30_1720,59.9629767473,sequenceLearningTask,001,122,
min1.png,min2.png,min3.png,min4.png,images/allBlank.png,"['num_7', 'num_4', 'num_1', 'num_0']",['num_0'],num_0,[4],'num_0',images/min4.png,"[(0.45, 0.79)]",,,,,0,-1,-1,0,1,2,6,3,,,,,,,,,,,,,"(-0.25, 0.04)",images/min2.png,7,0.0563216179144,0.905214808183,[-0.80819912 -0.2734375 ],,,,,,,,['num_0'],,,,2018_Jun_30_1720,59.9629767473,sequenceLearningTask,001,122,
min1.png,min2.png,min3.png,min4.png,images/allBlank.png,"['num_7', 'num_4', 'num_1', 'num_0']",['num_0'],num_0,[4],'num_0',images/min4.png,"[(0.45, 0.79)]",,,,,0,-1,-1,0,1,2,6,3,,,,,,,,,,,,,"(0.25, 0.04)",images/min3.png,7,0.0600102317985,0.715036014328,[-0.20937042 -0.00520833],,,,,,,,['num_0'],,,,2018_Jun_30_1720,59.9629767473,sequenceLearningTask,001,122,
min1.png,min2.png,min3.png,min4.png,images/allBlank.png,"['num_7', 'num_4', 'num_1', 'num_0']",['num_7'],num_7,[1],'num_7',images/min1.png,"[(0.45, 0.79)]",,,,,0,-1,-1,0,1,3,7,0,,,,,,,,,,,,,"(-0.25, 0.04)",images/min2.png,8,0.0557956694392,0.800741825369,[ 0.2942899  -0.05989583],,,,,,,,['num_7'],,,,2018_Jun_30_1720,59.9629767473,sequenceLearningTask,001,122,
min1.png,min2.png,min3.png,min4.png,images/allBlank.png,"['num_7', 'num_4', 'num_1', 'num_0']",['num_7'],num_7,[1],'num_7',images/min1.png,"[(0.45, 0.79)]",,,,,0,-1,-1,0,1,3,7,0,,,,,,,,,,,,,"(0.25, 0.04)",images/min3.png,8,0.0583413093118,0.819026535843,[-0.21083455 -0.05729167],,,,,,,,['num_7'],,,,2018_Jun_30_1720,59.9629767473,sequenceLearningTask,001,122,
min1.png,min2.png,min3.png,min4.png,images/allBlank.png,"['num_7', 'num_4', 'num_1', 'num_0']",['num_7'],num_7,[1],'num_7',images/min1.png,"[(0.45, 0.79)]",,,,,0,-1,-1,0,1,3,7,0,,,,,,,,,,,,,"(-0.25, 0.04)",images/min2.png,8,0.0644816146232,0.829107352183,[ 0.26354319 -0.13802083],,,,,,,,['num_7'],,,,2018_Jun_30_1720,59.9629767473,sequenceLearningTask,001,122,
min1.png,min2.png,min3.png,min4.png,images/allBlank.png,"['num_7', 'num_4', 'num_1', 'num_0']",['num_7'],num_7,[1],'num_7',images/min1.png,"[(0.45, 0.79)]",,,,,0,-1,-1,0,1,3,7,0,,,,,,,,,,,,,"(-0.75, 0.04)",images/min1.png,8,0.0573095149593,0.851067138021,[-0.14641288 -0.04166667],,,,,,,,['num_7'],,,,2018_Jun_30_1720,59.9629767473,sequenceLearningTask,001,122,
min1.png,min2.png,min3.png,min4.png,images/allBlank.png,"['num_7', 'num_4', 'num_1', 'num_0']",['num_4'],num_4,[2],'num_4',images/min2.png,"[(0.45, 0.79)]",,,,,0,-1,-1,0,2,0,8,1,,,,,,,,,,,,,"(-0.25, 0.04)",images/min2.png,9,0.054640387767,0.755506561836,[-0.74084919 -0.12239583],,,,,,,,['num_4'],,,,2018_Jun_30_1720,59.9629767473,sequenceLearningTask,001,122,
min1.png,min2.png,min3.png,min4.png,images/allBlank.png,"['num_7', 'num_4', 'num_1', 'num_0']",['num_4'],num_4,[2],'num_4',images/min2.png,"[(0.45, 0.79)]",,,,,0,-1,-1,0,2,0,8,1,,,,,,,,,,,,,"(-0.25, 0.04)",images/min2.png,9,0.0579552582931,0.648873169674,[-0.29721816 -0.06770833],,,,,,,,['num_4'],,,,2018_Jun_30_1720,59.9629767473,sequenceLearningTask,001,122,
min1.png,min2.png,min3.png,min4.png,images/allBlank.png,"['num_7', 'num_4', 'num_1', 'num_0']",['num_4'],num_4,[2],'num_4',images/min2.png,"[(0.45, 0.79)]",,,,,0,-1,-1,0,2,0,8,1,,,,,,,,,,,,,"(0.25, 0.04)",images/min3.png,9,0.0604906417429,0.669718289399,[-0.2942899 -0.1171875],,,,,,,,['num_4'],,,,2018_Jun_30_1720,59.9629767473,sequenceLearningTask,001,122,
min1.png,min2.png,min3.png,min4.png,images/allBlank.png,"['num_7', 'num_4', 'num_1', 'num_0']",['num_4'],num_4,[2],'num_4',images/min2.png,"[(0.45, 0.79)]",,,,,0,-1,-1,0,2,0,8,1,,,,,,,,,,,,,"(0.25, 0.04)",images/min3.png,9,0.0584434631746,0.601404881454,[ 0.27964861  0.01822917],,,,,,,,['num_4'],,,,2018_Jun_30_1720,59.9629767473,sequenceLearningTask,001,122,
min1.png,min2.png,min3.png,min4.png,images/allBlank.png,"['num_7', 'num_4', 'num_1', 'num_0']",['num_7'],num_7,[1],'num_7',images/min1.png,"[(0.45, 0.79)]",,,,,0,-1,-1,0,2,1,9,0,,,,,,,,,,,,,"(0.75, 0.04)",images/min4.png,10,0.0671236647759,0.635507021332,[ 0.18155198 -0.1171875 ],,,,,,,,['num_7'],,,,2018_Jun_30_1720,59.9629767473,sequenceLearningTask,001,122,
min1.png,min2.png,min3.png,min4.png,images/allBlank.png,"['num_7', 'num_4', 'num_1', 'num_0']",['num_7'],num_7,[1],'num_7',images/min1.png,"[(0.45, 0.79)]",,,,,0,-1,-1,0,2,1,9,0,,,,,,,,,,,,,"(0.25, 0.04)",images/min3.png,10,0.0516963889822,0.572012073011,[ 0.70131772 -0.125     ],,,,,,,,['num_7'],,,,2018_Jun_30_1720,59.9629767473,sequenceLearningTask,001,122,
min1.png,min2.png,min3.png,min4.png,images/allBlank.png,"['num_7', 'num_4', 'num_1', 'num_0']",['num_7'],num_7,[1],'num_7',images/min1.png,"[(0.45, 0.79)]",,,,,0,-1,-1,0,2,1,9,0,,,,,,,,,,,,,"(-0.75, 0.04)",images/min1.png,10,0.0557620283216,0.788370958646,[ 0.284041   -0.11458333],,,,,,,,['num_7'],,,,2018_Jun_30_1720,59.9629767473,sequenceLearningTask,001,122,
min1.png,min2.png,min3.png,min4.png,images/allBlank.png,"['num_7', 'num_4', 'num_1', 'num_0']",['num_7'],num_7,[1],'num_7',images/min1.png,"[(0.45, 0.79)]",,,,,0,-1,-1,0,2,1,9,0,,,,,,,,,,,,,"(0.75, 0.04)",images/min4.png,10,0.0649029477499,0.621166104102,[-0.7920937  -0.10416667],,,,,,,,['num_7'],,,,2018_Jun_30_1720,59.9629767473,sequenceLearningTask,001,122,
min1.png,min2.png,min3.png,min4.png,images/allBlank.png,"['num_7', 'num_4', 'num_1', 'num_0']",['num_1'],num_1,[3],'num_1',images/min3.png,"[(0.45, 0.79)]",,,,,0,-1,-1,0,2,2,10,2,,,,,,,,,,,,,"(-0.25, 0.04)",images/min2.png,11,0.0620988463052,0.660704549402,[ 0.61346999 -0.13802083],,,,,,,,['num_1'],,,,2018_Jun_30_1720,59.9629767473,sequenceLearningTask,001,122,
min1.png,min2.png,min3.png,min4.png,images/allBlank.png,"['num_7', 'num_4', 'num_1', 'num_0']",['num_1'],num_1,[3],'num_1',images/min3.png,"[(0.45, 0.79)]",,,,,0,-1,-1,0,2,2,10,2,,,,,,,,,,,,,"(-0.25, 0.04)",images/min2.png,11,0.0588947450742,0.615431542392,[-0.22986823 -0.05729167],,,,,,,,['num_1'],,,,2018_Jun_30_1720,59.9629767473,sequenceLearningTask,001,122,
min1.png,min2.png,min3.png,min4.png,images/allBlank.png,"['num_7', 'num_4', 'num_1', 'num_0']",['num_1'],num_1,[3],'num_1',images/min3.png,"[(0.45, 0.79)]",,,,,0,-1,-1,0,2,2,10,2,,,,,,,,,,,,,"(-0.25, 0.04)",images/min2.png,11,0.059171668021,0.681643207557,[-0.27525622 -0.1484375 ],,,,,,,,['num_1'],,,,2018_Jun_30_1720,59.9629767473,sequenceLearningTask,001,122,
min1.png,min2.png,min3.png,min4.png,images/allBlank.png,"['num_7', 'num_4', 'num_1', 'num_0']",['num_1'],num_1,[3],'num_1',images/min3.png,"[(0.45, 0.79)]",,,,,0,-1,-1,0,2,2,10,2,,,,,,,,,,,,,"(0.75, 0.04)",images/min4.png,11,0.055727156694,0.687463102629,[-0.25768668 -0.1328125 ],,,,,,,,['num_1'],,,,2018_Jun_30_1720,59.9629767473,sequenceLearningTask,001,122,
min1.png,min2.png,min3.png,min4.png,images/allBlank.png,"['num_7', 'num_4', 'num_1', 'num_0']",['num_0'],num_0,[4],'num_0',images/min4.png,"[(0.45, 0.79)]",,,,,0,-1,-1,0,2,3,11,3,,,,,,,,,,,,,"(0.75, 0.04)",images/min4.png,12,0.0556373104919,0.633587432327,[ 0.78770132 -0.00260417],,,,,,,,['num_0'],,,,2018_Jun_30_1720,59.9629767473,sequenceLearningTask,001,122,
min1.png,min2.png,min3.png,min4.png,images/allBlank.png,"['num_7', 'num_4', 'num_1', 'num_0']",['num_0'],num_0,[4],'num_0',images/min4.png,"[(0.45, 0.79)]",,,,,0,-1,-1,0,2,3,11,3,,,,,,,,,,,,,"(-0.75, 0.04)",images/min1.png,12,0.0564664383419,0.697771611158,[ 0.761347 -0.234375],,,,,,,,['num_0'],,,,2018_Jun_30_1720,59.9629767473,sequenceLearningTask,001,122,
min1.png,min2.png,min3.png,min4.png,images/allBlank.png,"['num_7', 'num_4', 'num_1', 'num_0']",['num_0'],num_0,[4],'num_0',images/min4.png,"[(0.45, 0.79)]",,,,,0,-1,-1,0,2,3,11,3,,,,,,,,,,,,,"(0.25, 0.04)",images/min3.png,12,0.0578399762744,0.802171978634,[-0.74963397 -0.17447917],,,,,,,,['num_0'],,,,2018_Jun_30_1720,59.9629767473,sequenceLearningTask,001,122,
min1.png,min2.png,min3.png,min4.png,images/allBlank.png,"['num_7', 'num_4', 'num_1', 'num_0']",['num_0'],num_0,[4],'num_0',images/min4.png,"[(0.45, 0.79)]",,,,,0,-1,-1,0,2,3,11,3,,,,,,,,,,,,,"(0.75, 0.04)",images/min4.png,12,0.055747669423,0.770592914545,[ 0.18594436 -0.23958333],,,,,,,,['num_0'],,,,2018_Jun_30_1720,59.9629767473,sequenceLearningTask,001,122,
min1.png,min2.png,min3.png,min4.png,images/allBlank.png,"['num_7', 'num_4', 'num_1', 'num_0']",['num_7'],num_7,[1],'num_7',images/min1.png,"[(0.45, 0.79)]",,,,,0,-1,-1,0,3,0,12,0,,,,,,,,,,,,,"(-0.25, 0.04)",images/min2.png,13,0.0532241832698,0.619770822697,[ 0.69985359 -0.0546875 ],,,,,,,,['num_7'],,,,2018_Jun_30_1720,59.9629767473,sequenceLearningTask,001,122,
min1.png,min2.png,min3.png,min4.png,images/allBlank.png,"['num_7', 'num_4', 'num_1', 'num_0']",['num_7'],num_7,[1],'num_7',images/min1.png,"[(0.45, 0.79)]",,,,,0,-1,-1,0,3,0,12,0,,,,,,,,,,,,,"(0.25, 0.04)",images/min3.png,13,0.0573370021302,0.54858356982,[-0.29136164 -0.0546875 ],,,,,,,,['num_7'],,,,2018_Jun_30_1720,59.9629767473,sequenceLearningTask,001,122,
min1.png,min2.png,min3.png,min4.png,images/allBlank.png,"['num_7', 'num_4', 'num_1', 'num_0']",['num_7'],num_7,[1],'num_7',images/min1.png,"[(0.45, 0.79)]",,,,,0,-1,-1,0,3,0,12,0,,,,,,,,,,,,,"(-0.75, 0.04)",images/min1.png,13,0.0591884885216,0.731351084658,[ 0.27086384  0.04427083],,,,,,,,['num_7'],,,,2018_Jun_30_1720,59.9629767473,sequenceLearningTask,001,122,
min1.png,min2.png,min3.png,min4.png,images/allBlank.png,"['num_7', 'num_4', 'num_1', 'num_0']",['num_7'],num_7,[1],'num_7',images/min1.png,"[(0.45, 0.79)]",,,,,0,-1,-1,0,3,0,12,0,,,,,,,,,,,,,"(0.25, 0.04)",images/min3.png,13,0.0551720799413,0.664646701771,[-0.81112738 -0.10416667],,,,,,,,['num_7'],,,,2018_Jun_30_1720,59.9629767473,sequenceLearningTask,001,122,
min1.png,min2.png,min3.png,min4.png,images/allBlank.png,"['num_7', 'num_4', 'num_1', 'num_0']",['num_0'],num_0,[4],'num_0',images/min4.png,"[(0.45, 0.79)]",,,,,0,-1,-1,0,3,1,13,3,,,,,,,,,,,,,"(-0.75, 0.04)",images/min1.png,14,0.0546215160284,0.732842365978,[ 0.21376281 -0.06510417],,,,,,,,['num_0'],,,,2018_Jun_30_1720,59.9629767473,sequenceLearningTask,001,122,
min1.png,min2.png,min3.png,min4.png,images/allBlank.png,"['num_7', 'num_4', 'num_1', 'num_0']",['num_0'],num_0,[4],'num_0',images/min4.png,"[(0.45, 0.79)]",,,,,0,-1,-1,0,3,1,13,3,,,,,,,,,,,,,"(0.25, 0.04)",images/min3.png,14,0.0572947456967,0.649722400121,[-0.79941435 -0.26302083],,,,,,,,['num_0'],,,,2018_Jun_30_1720,59.9629767473,sequenceLearningTask,001,122,
min1.png,min2.png,min3.png,min4.png,images/allBlank.png,"['num_7', 'num_4', 'num_1', 'num_0']",['num_0'],num_0,[4],'num_0',images/min4.png,"[(0.45, 0.79)]",,,,,0,-1,-1,0,3,1,13,3,,,,,,,,,,,,,"(0.75, 0.04)",images/min4.png,14,0.0611954621272,0.576425199397,[ 0.17130307 -0.3046875 ],,,,,,,,['num_0'],,,,2018_Jun_30_1720,59.9629767473,sequenceLearningTask,001,122,
min1.png,min2.png,min3.png,min4.png,images/allBlank.png,"['num_7', 'num_4', 'num_1', 'num_0']",['num_0'],num_0,[4],'num_0',images/min4.png,"[(0.45, 0.79)]",,,,,0,-1,-1,0,3,1,13,3,,,,,,,,,,,,,"(0.25, 0.04)",images/min3.png,14,0.0674067416694,0.556170438533,[ 0.82137628 -0.26822917],,,,,,,,['num_0'],,,,2018_Jun_30_1720,59.9629767473,sequenceLearningTask,001,122,
min1.png,min2.png,min3.png,min4.png,images/allBlank.png,"['num_7', 'num_4', 'num_1', 'num_0']",['num_1'],num_1,[3],'num_1',images/min3.png,"[(0.45, 0.79)]",,,,,0,-1,-1,0,3,2,14,2,,,,,,,,,,,,,"(0.25, 0.04)",images/min3.png,15,0.0625714615453,0.551792183891,[ 0.25768668 -0.24739583],,,,,,,,['num_1'],,,,2018_Jun_30_1720,59.9629767473,sequenceLearningTask,001,122,
min1.png,min2.png,min3.png,min4.png,images/allBlank.png,"['num_7', 'num_4', 'num_1', 'num_0']",['num_1'],num_1,[3],'num_1',images/min3.png,"[(0.45, 0.79)]",,,,,0,-1,-1,0,3,2,14,2,,,,,,,,,,,,,"(0.25, 0.04)",images/min3.png,15,0.0522711580852,0.607436468708,[ 0.24597365 -0.10416667],,,,,,,,['num_1'],,,,2018_Jun_30_1720,59.9629767473,sequenceLearningTask,001,122,
min1.png,min2.png,min3.png,min4.png,images/allBlank.png,"['num_7', 'num_4', 'num_1', 'num_0']",['num_1'],num_1,[3],'num_1',images/min3.png,"[(0.45, 0.79)]",,,,,0,-1,-1,0,3,2,14,2,,,,,,,,,,,,,"(0.75, 0.04)",images/min4.png,15,0.0616188464919,0.729150470113,[ 0.22401171 -0.234375  ],,,,,,,,['num_1'],,,,2018_Jun_30_1720,59.9629767473,sequenceLearningTask,001,122,
min1.png,min2.png,min3.png,min4.png,images/allBlank.png,"['num_7', 'num_4', 'num_1', 'num_0']",['num_1'],num_1,[3],'num_1',images/min3.png,"[(0.45, 0.79)]",,,,,0,-1,-1,0,3,2,14,2,,,,,,,,,,,,,"(-0.75, 0.04)",images/min1.png,15,0.0578703351784,0.665040547727,[ 0.70278184 -0.05729167],,,,,,,,['num_1'],,,,2018_Jun_30_1720,59.9629767473,sequenceLearningTask,001,122,
min1.png,min2.png,min3.png,min4.png,images/allBlank.png,"['num_7', 'num_4', 'num_1', 'num_0']",['num_4'],num_4,[2],'num_4',images/min2.png,"[(0.45, 0.79)]",,,,,0,-1,-1,0,3,3,15,1,,,,,,,,,,,,,"(0.25, 0.04)",images/min3.png,16,0.0536061318126,0.702732019359,[-0.7818448  -0.20052083],,,,,,,,['num_4'],,,,2018_Jun_30_1720,59.9629767473,sequenceLearningTask,001,122,
min1.png,min2.png,min3.png,min4.png,images/allBlank.png,"['num_7', 'num_4', 'num_1', 'num_0']",['num_4'],num_4,[2],'num_4',images/min2.png,"[(0.45, 0.79)]",,,,,0,-1,-1,0,3,3,15,1,,,,,,,,,,,,,"(0.75, 0.04)",images/min4.png,16,0.0568799766479,0.620626206975,[ 0.284041  -0.0859375],,,,,,,,['num_4'],,,,2018_Jun_30_1720,59.9629767473,sequenceLearningTask,001,122,
min1.png,min2.png,min3.png,min4.png,images/allBlank.png,"['num_7', 'num_4', 'num_1', 'num_0']",['num_4'],num_4,[2],'num_4',images/min2.png,"[(0.45, 0.79)]",,,,,0,-1,-1,0,3,3,15,1,,,,,,,,,,,,,"(-0.25, 0.04)",images/min2.png,16,0.0547322852071,0.738614671398,[ 0.74963397 -0.14583333],,,,,,,,['num_4'],,,,2018_Jun_30_1720,59.9629767473,sequenceLearningTask,001,122,
min1.png,min2.png,min3.png,min4.png,images/allBlank.png,"['num_7', 'num_4', 'num_1', 'num_0']",['num_4'],num_4,[2],'num_4',images/min2.png,"[(0.45, 0.79)]",,,,,0,-1,-1,0,3,3,15,1,,,,,,,,,,,,,"(-0.75, 0.04)",images/min1.png,16,0.0558075668523,0.801061825245,[-0.31185944  0.06770833],,,,,,,,['num_4'],,,,2018_Jun_30_1720,59.9629767473,sequenceLearningTask,001,122,
min1.png,min2.png,min3.png,min4.png,images/allBlank.png,"['num_7', 'num_4', 'num_1', 'num_0']",['num_7'],num_7,[1],'num_7',images/min1.png,"[(0.45, 0.79)]",,,,,0,-1,-1,0,4,0,16,0,,,,,,,,,,,,,"(-0.75, 0.04)",images/min1.png,17,0.0579043864273,0.729492623825,[-0.7920937  -0.00260417],,,,,,,,['num_7'],,,,2018_Jun_30_1720,59.9629767473,sequenceLearningTask,001,122,
min1.png,min2.png,min3.png,min4.png,images/allBlank.png,"['num_7', 'num_4', 'num_1', 'num_0']",['num_7'],num_7,[1],'num_7',images/min1.png,"[(0.45, 0.79)]",,,,,0,-1,-1,0,4,0,16,0,,,,,,,,,,,,,"(-0.75, 0.04)",images/min1.png,17,0.0594572064001,0.602375547751,[-0.64275256 -0.2265625 ],,,,,,,,['num_7'],,,,2018_Jun_30_1720,59.9629767473,sequenceLearningTask,001,122,
min1.png,min2.png,min3.png,min4.png,images/allBlank.png,"['num_7', 'num_4', 'num_1', 'num_0']",['num_7'],num_7,[1],'num_7',images/min1.png,"[(0.45, 0.79)]",,,,,0,-1,-1,0,4,0,16,0,,,,,,,,,,,,,"(-0.25, 0.04)",images/min2.png,17,0.0584931041813,0.63339338114,[-0.73792094  0.01302083],,,,,,,,['num_7'],,,,2018_Jun_30_1720,59.9629767473,sequenceLearningTask,001,122,
min1.png,min2.png,min3.png,min4.png,images/allBlank.png,"['num_7', 'num_4', 'num_1', 'num_0']",['num_7'],num_7,[1],'num_7',images/min1.png,"[(0.45, 0.79)]",,,,,0,-1,-1,0,4,0,16,0,,,,,,,,,,,,,"(0.75, 0.04)",images/min4.png,17,0.0654957679799,0.576311968733,[-0.26354319  0.01302083],,,,,,,,['num_7'],,,,2018_Jun_30_1720,59.9629767473,sequenceLearningTask,001,122,
min1.png,min2.png,min3.png,min4.png,images/allBlank.png,"['num_7', 'num_4', 'num_1', 'num_0']",['num_4'],num_4,[2],'num_4',images/min2.png,"[(0.45, 0.79)]",,,,,0,-1,-1,0,4,1,17,1,,,,,,,,,,,,,"(0.25, 0.04)",images/min3.png,18,0.0543064392405,0.668374700123,[ 0.69106881  0.06510417],,,,,,,,['num_4'],,,,2018_Jun_30_1720,59.9629767473,sequenceLearningTask,001,122,
min1.png,min2.png,min3.png,min4.png,images/allBlank.png,"['num_7', 'num_4', 'num_1', 'num_0']",['num_4'],num_4,[2],'num_4',images/min2.png,"[(0.45, 0.79)]",,,,,0,-1,-1,0,4,1,17,1,,,,,,,,,,,,,"(0.75, 0.04)",images/min4.png,18,0.056126335985,0.718827192322,[ 0.2489019  -0.04427083],,,,,,,,['num_4'],,,,2018_Jun_30_1720,59.9629767473,sequenceLearningTask,001,122,
min1.png,min2.png,min3.png,min4.png,images/allBlank.png,"['num_7', 'num_4', 'num_1', 'num_0']",['num_4'],num_4,[2],'num_4',images/min2.png,"[(0.45, 0.79)]",,,,,0,-1,-1,0,4,1,17,1,,,,,,,,,,,,,"(0.75, 0.04)",images/min4.png,18,0.0550879774382,0.536579882377,[ 0.74084919 -0.07291667],,,,,,,,['num_4'],,,,2018_Jun_30_1720,59.9629767473,sequenceLearningTask,001,122,
min1.png,min2.png,min3.png,min4.png,images/allBlank.png,"['num_7', 'num_4', 'num_1', 'num_0']",['num_4'],num_4,[2],'num_4',images/min2.png,"[(0.45, 0.79)]",,,,,0,-1,-1,0,4,1,17,1,,,,,,,,,,,,,"(0.25, 0.04)",images/min3.png,18,0.0593476679642,0.566630331683,[ 0.72327965 -0.08333333],,,,,,,,['num_4'],,,,2018_Jun_30_1720,59.9629767473,sequenceLearningTask,001,122,
min1.png,min2.png,min3.png,min4.png,images/allBlank.png,"['num_7', 'num_4', 'num_1', 'num_0']",['num_0'],num_0,[4],'num_0',images/min4.png,"[(0.45, 0.79)]",,,,,0,-1,-1,0,4,2,18,3,,,,,,,,,,,,,"(-0.25, 0.04)",images/min2.png,19,0.0582403864246,0.616234003566,[ 0.25329429 -0.05729167],,,,,,,,['num_0'],,,,2018_Jun_30_1720,59.9629767473,sequenceLearningTask,001,122,
min1.png,min2.png,min3.png,min4.png,images/allBlank.png,"['num_7', 'num_4', 'num_1', 'num_0']",['num_0'],num_0,[4],'num_0',images/min4.png,"[(0.45, 0.79)]",,,,,0,-1,-1,0,4,2,18,3,,,,,,,,,,,,,"(0.25, 0.04)",images/min3.png,19,0.0608820262132,0.596838319208,[-0.2181552 -0.1328125],,,,,,,,['num_0'],,,,2018_Jun_30_1720,59.9629767473,sequenceLearningTask,001,122,
min1.png,min2.png,min3.png,min4.png,images/allBlank.png,"['num_7', 'num_4', 'num_1', 'num_0']",['num_0'],num_0,[4],'num_0',images/min4.png,"[(0.45, 0.79)]",,,,,0,-1,-1,0,4,2,18,3,,,,,,,,,,,,,"(-0.25, 0.04)",images/min2.png,19,0.0580368993105,0.768285223166,[ 0.26500732 -0.22916667],,,,,,,,['num_0'],,,,2018_Jun_30_1720,59.9629767473,sequenceLearningTask,001,122,
min1.png,min2.png,min3.png,min4.png,images/allBlank.png,"['num_7', 'num_4', 'num_1', 'num_0']",['num_0'],num_0,[4],'num_0',images/min4.png,"[(0.45, 0.79)]",,,,,0,-1,-1,0,4,2,18,3,,,,,,,,,,,,,"(-0.25, 0.04)",images/min2.png,19,0.0574883866357,0.97014483274,[-0.21961933 -0.04427083],,,,,,,,['num_0'],,,,2018_Jun_30_1720,59.9629767473,sequenceLearningTask,001,122,
min1.png,min2.png,min3.png,min4.png,images/allBlank.png,"['num_7', 'num_4', 'num_1', 'num_0']",['num_1'],num_1,[3],'num_1',images/min3.png,"[(0.45, 0.79)]",,,,,0,-1,-1,0,4,3,19,2,,,,,,,,,,,,,"(0.25, 0.04)",images/min3.png,20,0.0562440794893,1.8211459195,[-0.23133236 -0.1328125 ],,,,,,,,['num_1'],,,,2018_Jun_30_1720,59.9629767473,sequenceLearningTask,001,122,
min1.png,min2.png,min3.png,min4.png,images/allBlank.png,"['num_7', 'num_4', 'num_1', 'num_0']",['num_1'],num_1,[3],'num_1',images/min3.png,"[(0.45, 0.79)]",,,,,0,-1,-1,0,4,3,19,2,,,,,,,,,,,,,"(-0.75, 0.04)",images/min1.png,20,0.0684266386088,0.74199682381,[ 0.17862372 -0.18229167],,,,,,,,['num_1'],,,,2018_Jun_30_1720,59.9629767473,sequenceLearningTask,001,122,
min1.png,min2.png,min3.png,min4.png,images/allBlank.png,"['num_7', 'num_4', 'num_1', 'num_0']",['num_1'],num_1,[3],'num_1',images/min3.png,"[(0.45, 0.79)]",,,,,0,-1,-1,0,4,3,19,2,,,,,,,,,,,,,"(0.25, 0.04)",images/min3.png,20,0.0568631561473,0.669329776778,[-0.74670571 -0.171875  ],,,,,,,,['num_1'],,,,2018_Jun_30_1720,59.9629767473,sequenceLearningTask,001,122,
min1.png,min2.png,min3.png,min4.png,images/allBlank.png,"['num_7', 'num_4', 'num_1', 'num_0']",['num_1'],num_1,[3],'num_1',images/min3.png,"[(0.45, 0.79)]",,,,,0,-1,-1,0,4,3,19,2,,,,,,,,,,,,,"(0.25, 0.04)",images/min3.png,20,0.0629333074903,0.593473397545,[ 0.21522694 -0.0703125 ],,,,,,,,['num_1'],,,,2018_Jun_30_1720,59.9629767473,sequenceLearningTask,001,122,
min1.png,min2.png,min3.png,min4.png,allBlank.png,"['num_7', 'num_4', 'num_1', 'num_0']",['num_1'],num_1,[3],'num_1',images/min3.png,"[(0.45, 0.79)]",,,,,0,0,0,0,4,3,19,2,,,,,,,,,,,,,"(-0.75, -0.04)",images/min1.png,1,0.0438092127442,0.856487443438,[ 0.34846266 -0.10677083],,,,,,,,['num_1'],,,,2018_Jun_30_1720,59.9629767473,sequenceLearningTask,001,122,
min1.png,min2.png,min3.png,min4.png,allBlank.png,"['num_7', 'num_4', 'num_1', 'num_0']",['num_1'],num_1,[3],'num_1',images/min3.png,"[(0.45, 0.79)]",,,,,0,0,0,0,4,3,19,2,,,,,,,,,,,,,"(0.25, -0.04)",images/min3.png,1,0.0527441834565,0.472433857503,[-0.78770132 -0.09114583],,,,,,,,['num_1'],,,,2018_Jun_30_1720,59.9629767473,sequenceLearningTask,001,122,
min1.png,min2.png,min3.png,min4.png,allBlank.png,"['num_7', 'num_4', 'num_1', 'num_0']",['num_1'],num_1,[3],'num_1',images/min3.png,"[(0.45, 0.79)]",,,,,0,0,0,0,4,3,19,2,,,,,,,,,,,,,"(-0.25, -0.04)",images/min2.png,1,0.0535581317963,0.569736381643,[ 0.3045388  -0.12760417],,,,,,,,['num_1'],,,,2018_Jun_30_1720,59.9629767473,sequenceLearningTask,001,122,
min1.png,min2.png,min3.png,min4.png,allBlank.png,"['num_7', 'num_4', 'num_1', 'num_0']",['num_1'],num_1,[3],'num_1',images/min3.png,"[(0.45, 0.79)]",,,,,0,0,0,0,4,3,19,2,,,,,,,,,,,,,"(0.75, -0.04)",images/min4.png,1,0.0509603894316,0.47274975467,[-0.2284041 -0.1953125],,,,,,,,['num_1'],,,,2018_Jun_30_1720,59.9629767473,sequenceLearningTask,001,122,
min1.png,min2.png,min3.png,min4.png,allBlank.png,"['num_7', 'num_4', 'num_1', 'num_0']",['num_1'],num_1,[3],'num_1',images/min3.png,"[(0.45, 0.79)]",,,,,0,0,0,0,4,3,19,2,,,,,,,,,,,,,"(0.75, -0.04)",images/min4.png,1,0.0525476707844,0.657151320134,[ 0.72474378 -0.05729167],,,,,,,,['num_1'],,,,2018_Jun_30_1720,59.9629767473,sequenceLearningTask,001,122,
min1.png,min2.png,min3.png,min4.png,allBlank.png,"['num_7', 'num_4', 'num_1', 'num_0']",['num_1'],num_1,[3],'num_1',images/min3.png,"[(0.45, 0.79)]",,,,,0,0,0,0,4,3,19,2,,,,,,,,,,,,,"(-0.25, -0.04)",images/min2.png,1,0.0611708466895,0.62793246028,[ 0.68814056 -0.07552083],,,,,,,,['num_1'],,,,2018_Jun_30_1720,59.9629767473,sequenceLearningTask,001,122,
min1.png,min2.png,min3.png,min4.png,allBlank.png,"['num_7', 'num_4', 'num_1', 'num_0']",['num_1'],num_1,[3],'num_1',images/min3.png,"[(0.45, 0.79)]",,,,,0,0,0,0,4,3,19,2,,,,,,,,,,,,,"(0.25, -0.04)",images/min3.png,1,0.0544266443467,0.520219273749,[-0.3045388  -0.05989583],,,,,,,,['num_1'],,,,2018_Jun_30_1720,59.9629767473,sequenceLearningTask,001,122,
min1.png,min2.png,min3.png,min4.png,allBlank.png,"['num_7', 'num_4', 'num_1', 'num_0']",['num_1'],num_1,[3],'num_1',images/min3.png,"[(0.45, 0.79)]",,,,,0,0,0,0,4,3,19,2,,,,,,,,,,,,,"(0.75, -0.04)",images/min4.png,1,0.0528906448744,0.689334691619,[ 0.26354319 -0.32552083],,,,,,,,['num_1'],,,,2018_Jun_30_1720,59.9629767473,sequenceLearningTask,001,122,
min1.png,min2.png,min3.png,min4.png,allBlank.png,"['num_7', 'num_4', 'num_1', 'num_0']",['num_1'],num_1,[3],'num_1',images/min3.png,"[(0.45, 0.79)]",,,,,0,1,1,1,4,3,19,2,,,,,,,,,,,,,"(-0.75, -0.04)",images/min1.png,2,0.0521127991378,0.554145823931,[ 0.7510981  -0.12239583],,,,,,,,['num_1'],,,,2018_Jun_30_1720,59.9629767473,sequenceLearningTask,001,122,
min1.png,min2.png,min3.png,min4.png,allBlank.png,"['num_7', 'num_4', 'num_1', 'num_0']",['num_1'],num_1,[3],'num_1',images/min3.png,"[(0.45, 0.79)]",,,,,0,1,1,1,4,3,19,2,,,,,,,,,,,,,"(0.25, -0.04)",images/min3.png,2,0.0588918732246,0.686256128713,[-0.7818448 -0.1328125],,,,,,,,['num_1'],,,,2018_Jun_30_1720,59.9629767473,sequenceLearningTask,001,122,
min1.png,min2.png,min3.png,min4.png,allBlank.png,"['num_7', 'num_4', 'num_1', 'num_0']",['num_1'],num_1,[3],'num_1',images/min3.png,"[(0.45, 0.79)]",,,,,0,1,1,1,4,3,19,2,,,,,,,,,,,,,"(-0.25, -0.04)",images/min2.png,2,0.0551507466007,0.58595463133,[ 0.23133236 -0.1953125 ],,,,,,,,['num_1'],,,,2018_Jun_30_1720,59.9629767473,sequenceLearningTask,001,122,
min1.png,min2.png,min3.png,min4.png,allBlank.png,"['num_7', 'num_4', 'num_1', 'num_0']",['num_1'],num_1,[3],'num_1',images/min3.png,"[(0.45, 0.79)]",,,,,0,1,1,1,4,3,19,2,,,,,,,,,,,,,"(0.75, -0.04)",images/min4.png,2,0.0605464366963,0.764537942829,[-0.22693997 -0.13541667],,,,,,,,['num_1'],,,,2018_Jun_30_1720,59.9629767473,sequenceLearningTask,001,122,
min1.png,min2.png,min3.png,min4.png,allBlank.png,"['num_7', 'num_4', 'num_1', 'num_0']",['num_1'],num_1,[3],'num_1',images/min3.png,"[(0.45, 0.79)]",,,,,0,1,1,1,4,3,19,2,,,,,,,,,,,,,"(0.75, -0.04)",images/min4.png,2,0.0547704390483,0.686921564396,[ 0.70131772 -0.1484375 ],,,,,,,,['num_1'],,,,2018_Jun_30_1720,59.9629767473,sequenceLearningTask,001,122,
min1.png,min2.png,min3.png,min4.png,allBlank.png,"['num_7', 'num_4', 'num_1', 'num_0']",['num_1'],num_1,[3],'num_1',images/min3.png,"[(0.45, 0.79)]",,,,,0,1,1,1,4,3,19,2,,,,,,,,,,,,,"(-0.25, -0.04)",images/min2.png,2,0.0515774147352,0.757202971377,[ 0.68814056 -0.265625  ],,,,,,,,['num_1'],,,,2018_Jun_30_1720,59.9629767473,sequenceLearningTask,001,122,
min1.png,min2.png,min3.png,min4.png,allBlank.png,"['num_7', 'num_4', 'num_1', 'num_0']",['num_1'],num_1,[3],'num_1',images/min3.png,"[(0.45, 0.79)]",,,,,0,1,1,1,4,3,19,2,,,,,,,,,,,,,"(0.25, -0.04)",images/min3.png,2,0.0570892073447,0.70187171211,[-0.25768668 -0.234375  ],,,,,,,,['num_1'],,,,2018_Jun_30_1720,59.9629767473,sequenceLearningTask,001,122,
min1.png,min2.png,min3.png,min4.png,allBlank.png,"['num_7', 'num_4', 'num_1', 'num_0']",['num_1'],num_1,[3],'num_1',images/min3.png,"[(0.45, 0.79)]",,,,,0,1,1,1,4,3,19,2,,,,,,,,,,,,,"(0.75, -0.04)",images/min4.png,2,0.059851052356,0.816021819017,[ 0.24011713 -0.09114583],,,,,,,,['num_1'],,,,2018_Jun_30_1720,59.9629767473,sequenceLearningTask,001,122,
min1.png,min2.png,min3.png,min4.png,allBlank.png,"['num_7', 'num_4', 'num_1', 'num_0']",['num_1'],num_1,[3],'num_1',images/min3.png,"[(0.45, 0.79)]",,,,,0,2,2,2,4,3,19,2,,,,,,,,,,,,,"(-0.75, -0.04)",images/min1.png,3,0.0542978238082,1.02255917015,[ 0.72474378 -0.13020833],,,,,,,,['num_1'],,,,2018_Jun_30_1720,59.9629767473,sequenceLearningTask,001,122,
min1.png,min2.png,min3.png,min4.png,allBlank.png,"['num_7', 'num_4', 'num_1', 'num_0']",['num_1'],num_1,[3],'num_1',images/min3.png,"[(0.45, 0.79)]",,,,,0,2,2,2,4,3,19,2,,,,,,,,,,,,,"(0.25, -0.04)",images/min3.png,3,0.0575511557981,0.687360948767,[-0.71303075 -0.01302083],,,,,,,,['num_1'],,,,2018_Jun_30_1720,59.9629767473,sequenceLearningTask,001,122,
min1.png,min2.png,min3.png,min4.png,allBlank.png,"['num_7', 'num_4', 'num_1', 'num_0']",['num_1'],num_1,[3],'num_1',images/min3.png,"[(0.45, 0.79)]",,,,,0,2,2,2,4,3,19,2,,,,,,,,,,,,,"(-0.25, -0.04)",images/min2.png,3,0.0530801834539,1.35856272466,[ 0.25768668 -0.23697917],,,,,,,,['num_1'],,,,2018_Jun_30_1720,59.9629767473,sequenceLearningTask,001,122,
min1.png,min2.png,min3.png,min4.png,allBlank.png,"['num_7', 'num_4', 'num_1', 'num_0']",['num_1'],num_1,[3],'num_1',images/min3.png,"[(0.45, 0.79)]",,,,,0,2,2,2,4,3,19,2,,,,,,,,,,,,,"(0.75, -0.04)",images/min4.png,3,0.0638563840184,1.08427688852,[-0.19619327 -0.25260417],,,,,,,,['num_1'],,,,2018_Jun_30_1720,59.9629767473,sequenceLearningTask,001,122,
min1.png,min2.png,min3.png,min4.png,allBlank.png,"['num_7', 'num_4', 'num_1', 'num_0']",['num_1'],num_1,[3],'num_1',images/min3.png,"[(0.45, 0.79)]",,,,,0,2,2,2,4,3,19,2,,,,,,,,,,,,,"(0.75, -0.04)",images/min4.png,3,0.0547392595327,0.800204389612,[ 0.77745242 -0.046875  ],,,,,,,,['num_1'],,,,2018_Jun_30_1720,59.9629767473,sequenceLearningTask,001,122,
min1.png,min2.png,min3.png,min4.png,allBlank.png,"['num_7', 'num_4', 'num_1', 'num_0']",['num_1'],num_1,[3],'num_1',images/min3.png,"[(0.45, 0.79)]",,,,,0,2,2,2,4,3,19,2,,,,,,,,,,,,,"(-0.25, -0.04)",images/min2.png,3,0.0564385409234,1.03641598509,[ 0.715959   -0.04427083],,,,,,,,['num_1'],,,,2018_Jun_30_1720,59.9629767473,sequenceLearningTask,001,122,
min1.png,min2.png,min3.png,min4.png,allBlank.png,"['num_7', 'num_4', 'num_1', 'num_0']",['num_1'],num_1,[3],'num_1',images/min3.png,"[(0.45, 0.79)]",,,,,0,2,2,2,4,3,19,2,,,,,,,,,,,,,"(0.25, -0.04)",images/min3.png,3,0.0632089996943,0.781194346142,[-0.23133236  0.04166667],,,,,,,,['num_1'],,,,2018_Jun_30_1720,59.9629767473,sequenceLearningTask,001,122,
min1.png,min2.png,min3.png,min4.png,allBlank.png,"['num_7', 'num_4', 'num_1', 'num_0']",['num_1'],num_1,[3],'num_1',images/min3.png,"[(0.45, 0.79)]",,,,,0,2,2,2,4,3,19,2,,,,,,,,,,,,,"(0.75, -0.04)",images/min4.png,3,0.0549337210832,0.698302072473,[ 0.21961933 -0.13802083],,,,,,,,['num_1'],,,,2018_Jun_30_1720,59.9629767473,sequenceLearningTask,001,122,
min1.png,min2.png,min3.png,min4.png,allBlank.png,"['num_7', 'num_4', 'num_1', 'num_0']",['num_1'],num_1,[3],'num_1',images/min3.png,"[(0.45, 0.79)]",,,,,0,3,3,3,4,3,19,2,,,,,,,,,,,,,"(-0.75, -0.04)",images/min1.png,4,0.0542334136553,0.836457092664,[ 0.63836018  0.0234375 ],,,,,,,,['num_1'],,,,2018_Jun_30_1720,59.9629767473,sequenceLearningTask,001,122,
min1.png,min2.png,min3.png,min4.png,allBlank.png,"['num_7', 'num_4', 'num_1', 'num_0']",['num_1'],num_1,[3],'num_1',images/min3.png,"[(0.45, 0.79)]",,,,,0,3,3,3,4,3,19,2,,,,,,,,,,,,,"(0.25, -0.04)",images/min3.png,4,0.0518949530087,0.621494309162,[-0.78477306 -0.25260417],,,,,,,,['num_1'],,,,2018_Jun_30_1720,59.9629767473,sequenceLearningTask,001,122,
min1.png,min2.png,min3.png,min4.png,allBlank.png,"['num_7', 'num_4', 'num_1', 'num_0']",['num_1'],num_1,[3],'num_1',images/min3.png,"[(0.45, 0.79)]",,,,,0,3,3,3,4,3,19,2,,,,,,,,,,,,,"(-0.25, -0.04)",images/min2.png,4,0.0518769017654,0.857287443127,[ 0.25915081 -0.00520833],,,,,,,,['num_1'],,,,2018_Jun_30_1720,59.9629767473,sequenceLearningTask,001,122,
min1.png,min2.png,min3.png,min4.png,allBlank.png,"['num_7', 'num_4', 'num_1', 'num_0']",['num_1'],num_1,[3],'num_1',images/min3.png,"[(0.45, 0.79)]",,,,,0,3,3,3,4,3,19,2,,,,,,,,,,,,,"(0.75, -0.04)",images/min4.png,4,0.0533123883652,0.841344885645,[-0.21229868 -0.00260417],,,,,,,,['num_1'],,,,2018_Jun_30_1720,59.9629767473,sequenceLearningTask,001,122,
min1.png,min2.png,min3.png,min4.png,allBlank.png,"['num_7', 'num_4', 'num_1', 'num_0']",['num_1'],num_1,[3],'num_1',images/min3.png,"[(0.45, 0.79)]",,,,,0,3,3,3,4,3,19,2,,,,,,,,,,,,,"(0.75, -0.04)",images/min4.png,4,0.0543856186559,0.689298999263,[ 0.72327965 -0.2109375 ],,,,,,,,['num_1'],,,,2018_Jun_30_1720,59.9629767473,sequenceLearningTask,001,122,
min1.png,min2.png,min3.png,min4.png,allBlank.png,"['num_7', 'num_4', 'num_1', 'num_0']",['num_1'],num_1,[3],'num_1',images/min3.png,"[(0.45, 0.79)]",,,,,0,3,3,3,4,3,19,2,,,,,,,,,,,,,"(-0.25, -0.04)",images/min2.png,4,0.0461324938806,0.580231556902,[ 0.73206442 -0.359375  ],,,,,,,,['num_1'],,,,2018_Jun_30_1720,59.9629767473,sequenceLearningTask,001,122,
min1.png,min2.png,min3.png,min4.png,allBlank.png,"['num_7', 'num_4', 'num_1', 'num_0']",['num_1'],num_1,[3],'num_1',images/min3.png,"[(0.45, 0.79)]",,,,,0,3,3,3,4,3,19,2,,,,,,,,,,,,,"(0.25, -0.04)",images/min3.png,4,0.0565895152977,0.585689605796,[-0.19472914 -0.43489583],,,,,,,,['num_1'],,,,2018_Jun_30_1720,59.9629767473,sequenceLearningTask,001,122,
min1.png,min2.png,min3.png,min4.png,allBlank.png,"['num_7', 'num_4', 'num_1', 'num_0']",['num_1'],num_1,[3],'num_1',images/min3.png,"[(0.45, 0.79)]",,,,,0,3,3,3,4,3,19,2,,,,,,,,,,,,,"(0.75, -0.04)",images/min4.png,4,0.054142746958,0.47071529401,[ 0.2489019 -0.4609375],,,,,,,,['num_1'],,,,2018_Jun_30_1720,59.9629767473,sequenceLearningTask,001,122,
min1.png,min2.png,min3.png,min4.png,allBlank.png,"['num_7', 'num_4', 'num_1', 'num_0']",['num_1'],num_1,[3],'num_1',images/min3.png,"[(0.45, 0.79)]",,,,,0,4,4,4,4,3,19,2,,,,,,,,,,,,,"(-0.75, -0.04)",images/min1.png,5,0.0552980286302,0.664152753074,[ 0.79355783 -0.1953125 ],,,,,,,,['num_1'],,,,2018_Jun_30_1720,59.9629767473,sequenceLearningTask,001,122,
min1.png,min2.png,min3.png,min4.png,allBlank.png,"['num_7', 'num_4', 'num_1', 'num_0']",['num_1'],num_1,[3],'num_1',images/min3.png,"[(0.45, 0.79)]",,,,,0,4,4,4,4,3,19,2,,,,,,,,,,,,,"(0.25, -0.04)",images/min3.png,5,0.0547486954601,1.13779645623,[-0.64860908 -0.19270833],0.566067049745,1,,,,,,['num_1'],,,,2018_Jun_30_1720,59.9629767473,sequenceLearningTask,001,122,
min1.png,min2.png,min3.png,min4.png,allBlank.png,"['num_7', 'num_4', 'num_1', 'num_0']",['num_1'],num_1,[3],'num_1',images/min3.png,"[(0.45, 0.79)]",,,,,0,4,4,4,4,3,19,2,,,,,,,,,,,,,"(-0.25, -0.04)",images/min2.png,5,0.0514691070421,0.693673971808,[ 0.27818448 -0.23958333],,,,,,,,['num_1'],,,,2018_Jun_30_1720,59.9629767473,sequenceLearningTask,001,122,
min1.png,min2.png,min3.png,min4.png,allBlank.png,"['num_7', 'num_4', 'num_1', 'num_0']",['num_1'],num_1,[3],'num_1',images/min3.png,"[(0.45, 0.79)]",,,,,0,4,4,4,4,3,19,2,,,,,,,,,,,,,"(0.75, -0.04)",images/min4.png,5,0.0580684889574,0.567436485086,[-0.27818448 -0.13020833],,,,,,,,['num_1'],,,,2018_Jun_30_1720,59.9629767473,sequenceLearningTask,001,122,
min1.png,min2.png,min3.png,min4.png,allBlank.png,"['num_7', 'num_4', 'num_1', 'num_0']",['num_1'],num_1,[3],'num_1',images/min3.png,"[(0.45, 0.79)]",,,,,0,4,4,4,4,3,19,2,,,,,,,,,,,,,"(0.75, -0.04)",images/min4.png,5,0.0551884901943,1.15661039727,[ 0.68374817 -0.27083333],,,,,,,,['num_1'],,,,2018_Jun_30_1720,59.9629767473,sequenceLearningTask,001,122,
min1.png,min2.png,min3.png,min4.png,allBlank.png,"['num_7', 'num_4', 'num_1', 'num_0']",['num_1'],num_1,[3],'num_1',images/min3.png,"[(0.45, 0.79)]",,,,,0,4,4,4,4,3,19,2,,,,,,,,,,,,,"(-0.25, -0.04)",images/min2.png,5,0.0521033633268,0.623465180164,[ 0.58565154 -0.27604167],,,,,,,,['num_1'],,,,2018_Jun_30_1720,59.9629767473,sequenceLearningTask,001,122,
min1.png,min2.png,min3.png,min4.png,allBlank.png,"['num_7', 'num_4', 'num_1', 'num_0']",['num_1'],num_1,[3],'num_1',images/min3.png,"[(0.45, 0.79)]",,,,,0,4,4,4,4,3,19,2,,,,,,,,,,,,,"(0.25, -0.04)",images/min3.png,5,0.0575421302347,0.820746329962,[-0.24304539 -0.06510417],,,,,,,,['num_1'],,,,2018_Jun_30_1720,59.9629767473,sequenceLearningTask,001,122,
min1.png,min2.png,min3.png,min4.png,allBlank.png,"['num_7', 'num_4', 'num_1', 'num_0']",['num_1'],num_1,[3],'num_1',images/min3.png,"[(0.45, 0.79)]",,,,,0,4,4,4,4,3,19,2,,,,,,,,,,,,,"(0.75, -0.04)",images/min4.png,5,0.0555396695854,1.25840153499,[ 0.28989751 -0.16927083],,,,,,,,['num_1'],,,,2018_Jun_30_1720,59.9629767473,sequenceLearningTask,001,122,
min1.png,min2.png,min3.png,min4.png,allBlank.png,"['num_7', 'num_4', 'num_1', 'num_0']",['num_1'],num_1,[3],'num_1',images/min3.png,"[(0.45, 0.79)]",,,,,0,5,5,5,4,3,19,2,,,,,,,,,,,,,"(-0.75, -0.04)",images/min1.png,6,0.0497710563941,0.6757814663,[ 0.77452416 -0.07552083],,,,,,,,['num_1'],,,,2018_Jun_30_1720,59.9629767473,sequenceLearningTask,001,122,
min1.png,min2.png,min3.png,min4.png,allBlank.png,"['num_7', 'num_4', 'num_1', 'num_0']",['num_1'],num_1,[3],'num_1',images/min3.png,"[(0.45, 0.79)]",,,,,0,5,5,5,4,3,19,2,,,,,,,,,,,,,"(0.25, -0.04)",images/min3.png,6,0.0531417217571,1.32475966157,[-0.72620791 -0.1484375 ],,,,,,,,['num_1'],,,,2018_Jun_30_1720,59.9629767473,sequenceLearningTask,001,122,
min1.png,min2.png,min3.png,min4.png,allBlank.png,"['num_7', 'num_4', 'num_1', 'num_0']",['num_1'],num_1,[3],'num_1',images/min3.png,"[(0.45, 0.79)]",,,,,0,5,5,5,4,3,19,2,,,,,,,,,,,,,"(-0.25, -0.04)",images/min2.png,6,0.0575696174055,2.14418127423,[ 0.24011713 -0.15885417],,,,,,,,['num_1'],,,,2018_Jun_30_1720,59.9629767473,sequenceLearningTask,001,122,
min1.png,min2.png,min3.png,min4.png,allBlank.png,"['num_7', 'num_4', 'num_1', 'num_0']",['num_1'],num_1,[3],'num_1',images/min3.png,"[(0.45, 0.79)]",,,,,0,5,5,5,4,3,19,2,,,,,,,,,,,,,"(0.75, -0.04)",images/min4.png,6,0.0512336200336,0.959105657763,[-0.29868228 -0.0703125 ],,,,,,,,['num_1'],,,,2018_Jun_30_1720,59.9629767473,sequenceLearningTask,001,122,
min1.png,min2.png,min3.png,min4.png,allBlank.png,"['num_7', 'num_4', 'num_1', 'num_0']",['num_1'],num_1,[3],'num_1',images/min3.png,"[(0.45, 0.79)]",,,,,0,5,5,5,4,3,19,2,,,,,,,,,,,,,"(0.75, -0.04)",images/min4.png,6,0.058982539922,0.80205136328,[ 0.76427526 -0.17447917],,,,,,,,['num_1'],,,,2018_Jun_30_1720,59.9629767473,sequenceLearningTask,001,122,
min1.png,min2.png,min3.png,min4.png,allBlank.png,"['num_7', 'num_4', 'num_1', 'num_0']",['num_1'],num_1,[3],'num_1',images/min3.png,"[(0.45, 0.79)]",,,,,0,5,5,5,4,3,19,2,,,,,,,,,,,,,"(-0.25, -0.04)",images/min2.png,6,0.0569813100155,1.05607833597,[ 0.69106881 -0.12760417],,,,,,,,['num_1'],,,,2018_Jun_30_1720,59.9629767473,sequenceLearningTask,001,122,
min1.png,min2.png,min3.png,min4.png,allBlank.png,"['num_7', 'num_4', 'num_1', 'num_0']",['num_1'],num_1,[3],'num_1',images/min3.png,"[(0.45, 0.79)]",,,,,0,5,5,5,4,3,19,2,,,,,,,,,,,,,"(0.25, -0.04)",images/min3.png,6,0.0503097230103,0.677483209292,[-0.33528551 -0.18229167],,,,,,,,['num_1'],,,,2018_Jun_30_1720,59.9629767473,sequenceLearningTask,001,122,
min1.png,min2.png,min3.png,min4.png,allBlank.png,"['num_7', 'num_4', 'num_1', 'num_0']",['num_1'],num_1,[3],'num_1',images/min3.png,"[(0.45, 0.79)]",,,,,0,5,5,5,4,3,19,2,,,,,,,,,,,,,"(0.75, -0.04)",images/min4.png,6,0.0548167979578,0.688113768934,[ 0.22693997 -0.17708333],,,,,,,,['num_1'],,,,2018_Jun_30_1720,59.9629767473,sequenceLearningTask,001,122,
min1.png,min2.png,min3.png,min4.png,allBlank.png,"['num_7', 'num_4', 'num_1', 'num_0']",['num_1'],num_1,[3],'num_1',images/min3.png,"[(0.45, 0.79)]",,,,,0,6,6,6,4,3,19,2,,,,,,,,,,,,,"(-0.75, -0.04)",images/min1.png,7,0.0508114662953,0.520279991673,[ 0.73206442 -0.05208333],,,,,,,,['num_1'],,,,2018_Jun_30_1720,59.9629767473,sequenceLearningTask,001,122,
min1.png,min2.png,min3.png,min4.png,allBlank.png,"['num_7', 'num_4', 'num_1', 'num_0']",['num_1'],num_1,[3],'num_1',images/min3.png,"[(0.45, 0.79)]",,,,,0,6,6,6,4,3,19,2,,,,,,,,,,,,,"(0.25, -0.04)",images/min3.png,7,0.0537632600171,0.536277523497,[-0.70424597 -0.04427083],,,,,,,,['num_1'],,,,2018_Jun_30_1720,59.9629767473,sequenceLearningTask,001,122,
min1.png,min2.png,min3.png,min4.png,allBlank.png,"['num_7', 'num_4', 'num_1', 'num_0']",['num_1'],num_1,[3],'num_1',images/min3.png,"[(0.45, 0.79)]",,,,,0,6,6,6,4,3,19,2,,,,,,,,,,,,,"(-0.25, -0.04)",images/min2.png,7,0.0519778248854,0.622926103417,[ 0.27232796 -0.1796875 ],,,,,,,,['num_1'],,,,2018_Jun_30_1720,59.9629767473,sequenceLearningTask,001,122,
min1.png,min2.png,min3.png,min4.png,allBlank.png,"['num_7', 'num_4', 'num_1', 'num_0']",['num_1'],num_1,[3],'num_1',images/min3.png,"[(0.45, 0.79)]",,,,,0,6,6,6,4,3,19,2,,,,,,,,,,,,,"(0.75, -0.04)",images/min4.png,7,0.0572315662866,0.635156662553,[-0.30014641 -0.14322917],,,,,,,,['num_1'],,,,2018_Jun_30_1720,59.9629767473,sequenceLearningTask,001,122,
min1.png,min2.png,min3.png,min4.png,allBlank.png,"['num_7', 'num_4', 'num_1', 'num_0']",['num_1'],num_1,[3],'num_1',images/min3.png,"[(0.45, 0.79)]",,,,,0,6,6,6,4,3,19,2,,,,,,,,,,,,,"(0.75, -0.04)",images/min4.png,7,0.0531146449503,0.591375757474,[ 0.73499268 -0.11197917],,,,,,,,['num_1'],,,,2018_Jun_30_1720,59.9629767473,sequenceLearningTask,001,122,
min1.png,min2.png,min3.png,min4.png,allBlank.png,"['num_7', 'num_4', 'num_1', 'num_0']",['num_1'],num_1,[3],'num_1',images/min3.png,"[(0.45, 0.79)]",,,,,0,6,6,6,4,3,19,2,,,,,,,,,,,,,"(-0.25, -0.04)",images/min2.png,7,0.0544910546159,0.992759387591,[ 0.6852123  -0.09635417],,,,,,,,['num_1'],,,,2018_Jun_30_1720,59.9629767473,sequenceLearningTask,001,122,
min1.png,min2.png,min3.png,min4.png,allBlank.png,"['num_7', 'num_4', 'num_1', 'num_0']",['num_1'],num_1,[3],'num_1',images/min3.png,"[(0.45, 0.79)]",,,,,0,6,6,6,4,3,19,2,,,,,,,,,,,,,"(0.25, -0.04)",images/min3.png,7,0.0668409982463,1.71205591306,[-0.29282577 -0.3125    ],,,,,,,,['num_1'],,,,2018_Jun_30_1720,59.9629767473,sequenceLearningTask,001,122,
min1.png,min2.png,min3.png,min4.png,allBlank.png,"['num_7', 'num_4', 'num_1', 'num_0']",['num_1'],num_1,[3],'num_1',images/min3.png,"[(0.45, 0.79)]",,,,,0,6,6,6,4,3,19,2,,,,,,,,,,,,,"(0.75, -0.04)",images/min4.png,7,0.0548143364722,1.17331192887,[ 0.28843338 -0.1953125 ],,,,,,,,['num_1'],,,,2018_Jun_30_1720,59.9629767473,sequenceLearningTask,001,122,
min1.png,min2.png,min3.png,min4.png,allBlank.png,"['num_7', 'num_4', 'num_1', 'num_0']",['num_1'],num_1,[3],'num_1',images/min3.png,"[(0.45, 0.79)]",,,,,0,7,7,7,4,3,19,2,,,,,,,,,,,,,"(-0.75, -0.04)",images/min1.png,8,0.0654674603138,0.773795374902,[ 0.70863836 -0.0703125 ],,,,,,,,['num_1'],,,,2018_Jun_30_1720,59.9629767473,sequenceLearningTask,001,122,
min1.png,min2.png,min3.png,min4.png,allBlank.png,"['num_7', 'num_4', 'num_1', 'num_0']",['num_1'],num_1,[3],'num_1',images/min3.png,"[(0.45, 0.79)]",,,,,0,7,7,7,4,3,19,2,,,,,,,,,,,,,"(0.25, -0.04)",images/min3.png,8,0.0529017219087,0.723074575188,[-0.72474378 -0.0703125 ],,,,,,,,['num_1'],,,,2018_Jun_30_1720,59.9629767473,sequenceLearningTask,001,122,
min1.png,min2.png,min3.png,min4.png,allBlank.png,"['num_7', 'num_4', 'num_1', 'num_0']",['num_1'],num_1,[3],'num_1',images/min3.png,"[(0.45, 0.79)]",,,,,0,7,7,7,4,3,19,2,,,,,,,,,,,,,"(-0.25, -0.04)",images/min2.png,8,0.0620750513626,0.879948357004,[ 0.23133236 -0.18489583],,,,,,,,['num_1'],,,,2018_Jun_30_1720,59.9629767473,sequenceLearningTask,001,122,
min1.png,min2.png,min3.png,min4.png,allBlank.png,"['num_7', 'num_4', 'num_1', 'num_0']",['num_1'],num_1,[3],'num_1',images/min3.png,"[(0.45, 0.79)]",,,,,0,7,7,7,4,3,19,2,,,,,,,,,,,,,"(0.75, -0.04)",images/min4.png,8,0.0506215177011,0.61024057027,[-0.28111274 -0.125     ],,,,,,,,['num_1'],,,,2018_Jun_30_1720,59.9629767473,sequenceLearningTask,001,122,
min1.png,min2.png,min3.png,min4.png,allBlank.png,"['num_7', 'num_4', 'num_1', 'num_0']",['num_1'],num_1,[3],'num_1',images/min3.png,"[(0.45, 0.79)]",,,,,0,7,7,7,4,3,19,2,,,,,,,,,,,,,"(0.75, -0.04)",images/min4.png,8,0.0552820286248,0.6189581051,[ 0.71888726 -0.08072917],,,,,,,,['num_1'],,,,2018_Jun_30_1720,59.9629767473,sequenceLearningTask,001,122,
min1.png,min2.png,min3.png,min4.png,allBlank.png,"['num_7', 'num_4', 'num_1', 'num_0']",['num_1'],num_1,[3],'num_1',images/min3.png,"[(0.45, 0.79)]",,,,,0,7,7,7,4,3,19,2,,,,,,,,,,,,,"(-0.25, -0.04)",images/min2.png,8,0.0528602859704,0.574238533736,[ 0.69985359 -0.125     ],,,,,,,,['num_1'],,,,2018_Jun_30_1720,59.9629767473,sequenceLearningTask,001,122,
min1.png,min2.png,min3.png,min4.png,allBlank.png,"['num_7', 'num_4', 'num_1', 'num_0']",['num_1'],num_1,[3],'num_1',images/min3.png,"[(0.45, 0.79)]",,,,,0,7,7,7,4,3,19,2,,,,,,,,,,,,,"(0.25, -0.04)",images/min3.png,8,0.0526666451478,0.471219498897,[-0.26061493  0.0078125 ],,,,,,,,['num_1'],,,,2018_Jun_30_1720,59.9629767473,sequenceLearningTask,001,122,
min1.png,min2.png,min3.png,min4.png,allBlank.png,"['num_7', 'num_4', 'num_1', 'num_0']",['num_1'],num_1,[3],'num_1',images/min3.png,"[(0.45, 0.79)]",,,,,0,7,7,7,4,3,19,2,,,,,,,,,,,,,"(0.75, -0.04)",images/min4.png,8,0.0508721843362,0.419194494723,[ 0.27818448 -0.2109375 ],,,,,,,,['num_1'],,,,2018_Jun_30_1720,59.9629767473,sequenceLearningTask,001,122,
min1.png,min2.png,min3.png,min4.png,allBlank.png,"['num_7', 'num_4', 'num_1', 'num_0']",['num_1'],num_1,[3],'num_1',images/min3.png,"[(0.45, 0.79)]",,,,,0,8,8,8,4,3,19,2,,,,,,,,,,,,,"(-0.75, -0.04)",images/min1.png,9,0.0515581327491,0.554454746889,[ 0.79355783 -0.17708333],,,,,,,,['num_1'],,,,2018_Jun_30_1720,59.9629767473,sequenceLearningTask,001,122,
min1.png,min2.png,min3.png,min4.png,allBlank.png,"['num_7', 'num_4', 'num_1', 'num_0']",['num_1'],num_1,[3],'num_1',images/min3.png,"[(0.45, 0.79)]",,,,,0,8,8,8,4,3,19,2,,,,,,,,,,,,,"(0.25, -0.04)",images/min3.png,9,0.051251671277,0.876813178766,[-0.72035139 -0.1640625 ],,,,,,,,['num_1'],,,,2018_Jun_30_1720,59.9629767473,sequenceLearningTask,001,122,
min1.png,min2.png,min3.png,min4.png,allBlank.png,"['num_7', 'num_4', 'num_1', 'num_0']",['num_1'],num_1,[3],'num_1',images/min3.png,"[(0.45, 0.79)]",,,,,0,8,8,8,4,3,19,2,,,,,,,,,,,,,"(-0.25, -0.04)",images/min2.png,9,0.0602715651039,0.580146633787,[ 0.23133236 -0.23177083],,,,,,,,['num_1'],,,,2018_Jun_30_1720,59.9629767473,sequenceLearningTask,001,122,
min1.png,min2.png,min3.png,min4.png,allBlank.png,"['num_7', 'num_4', 'num_1', 'num_0']",['num_1'],num_1,[3],'num_1',images/min3.png,"[(0.45, 0.79)]",,,,,0,8,8,8,4,3,19,2,,,,,,,,,,,,,"(0.75, -0.04)",images/min4.png,9,0.057583155809,0.483846775838,[-0.238653   -0.25520833],,,,,,,,['num_1'],,,,2018_Jun_30_1720,59.9629767473,sequenceLearningTask,001,122,
min1.png,min2.png,min3.png,min4.png,allBlank.png,"['num_7', 'num_4', 'num_1', 'num_0']",['num_1'],num_1,[3],'num_1',images/min3.png,"[(0.45, 0.79)]",,,,,0,8,8,8,4,3,19,2,,,,,,,,,,,,,"(0.75, -0.04)",images/min4.png,9,0.0496725949924,1.11424528656,[ 0.72620791 -0.24479167],,,,,,,,['num_1'],,,,2018_Jun_30_1720,59.9629767473,sequenceLearningTask,001,122,
min1.png,min2.png,min3.png,min4.png,allBlank.png,"['num_7', 'num_4', 'num_1', 'num_0']",['num_1'],num_1,[3],'num_1',images/min3.png,"[(0.45, 0.79)]",,,,,0,8,8,8,4,3,19,2,,,,,,,,,,,,,"(-0.25, -0.04)",images/min2.png,9,0.0596418216592,0.884811944794,[ 0.73352855 -0.265625  ],,,,,,,,['num_1'],,,,2018_Jun_30_1720,59.9629767473,sequenceLearningTask,001,122,
min1.png,min2.png,min3.png,min4.png,allBlank.png,"['num_7', 'num_4', 'num_1', 'num_0']",['num_1'],num_1,[3],'num_1',images/min3.png,"[(0.45, 0.79)]",,,,,0,8,8,8,4,3,19,2,,,,,,,,,,,,,"(0.25, -0.04)",images/min3.png,9,0.0603610009421,0.748135487898,[-0.25329429 -0.30989583],,,,,,,,['num_1'],,,,2018_Jun_30_1720,59.9629767473,sequenceLearningTask,001,122,
min1.png,min2.png,min3.png,min4.png,allBlank.png,"['num_7', 'num_4', 'num_1', 'num_0']",['num_1'],num_1,[3],'num_1',images/min3.png,"[(0.45, 0.79)]",,,,,0,8,8,8,4,3,19,2,,,,,,,,,,,,,"(0.75, -0.04)",images/min4.png,9,0.0539519778686,0.687920127995,[ 0.17862372 -0.11197917],,,,,,,,['num_1'],,,,2018_Jun_30_1720,59.9629767473,sequenceLearningTask,001,122,
min1.png,min2.png,min3.png,min4.png,allBlank.png,"['num_7', 'num_4', 'num_1', 'num_0']",['num_1'],num_1,[3],'num_1',images/min3.png,"[(0.45, 0.79)]",,,,,0,9,9,9,4,3,19,2,,,,,,,,,,,,,"(-0.75, -0.04)",images/min1.png,10,0.0477476726519,0.659149678308,[ 0.78477306 -0.125     ],,,,,,,,['num_1'],,,,2018_Jun_30_1720,59.9629767473,sequenceLearningTask,001,122,
min1.png,min2.png,min3.png,min4.png,allBlank.png,"['num_7', 'num_4', 'num_1', 'num_0']",['num_1'],num_1,[3],'num_1',images/min3.png,"[(0.45, 0.79)]",,,,,0,9,9,9,4,3,19,2,,,,,,,,,,,,,"(0.25, -0.04)",images/min3.png,10,0.059398129466,0.883872047649,[-0.74231332 -0.16666667],,,,,,,,['num_1'],,,,2018_Jun_30_1720,59.9629767473,sequenceLearningTask,001,122,
min1.png,min2.png,min3.png,min4.png,allBlank.png,"['num_7', 'num_4', 'num_1', 'num_0']",['num_1'],num_1,[3],'num_1',images/min3.png,"[(0.45, 0.79)]",,,,,0,9,9,9,4,3,19,2,,,,,,,,,,,,,"(-0.25, -0.04)",images/min2.png,10,0.0531331064412,0.688957666047,[ 0.20204978 -0.07552083],,,,,,,,['num_1'],,,,2018_Jun_30_1720,59.9629767473,sequenceLearningTask,001,122,
min1.png,min2.png,min3.png,min4.png,allBlank.png,"['num_7', 'num_4', 'num_1', 'num_0']",['num_1'],num_1,[3],'num_1',images/min3.png,"[(0.45, 0.79)]",,,,,0,9,9,9,4,3,19,2,,,,,,,,,,,,,"(0.75, -0.04)",images/min4.png,10,0.0511199790053,0.656402192195,[-0.27232796 -0.1484375 ],,,,,,,,['num_1'],,,,2018_Jun_30_1720,59.9629767473,sequenceLearningTask,001,122,
min1.png,min2.png,min3.png,min4.png,allBlank.png,"['num_7', 'num_4', 'num_1', 'num_0']",['num_1'],num_1,[3],'num_1',images/min3.png,"[(0.45, 0.79)]",,,,,0,9,9,9,4,3,19,2,,,,,,,,,,,,,"(0.75, -0.04)",images/min4.png,10,0.0558297206881,0.887453584699,[ 0.75841874 -0.15885417],,,,,,,,['num_1'],,,,2018_Jun_30_1720,59.9629767473,sequenceLearningTask,001,122,
min1.png,min2.png,min3.png,min4.png,allBlank.png,"['num_7', 'num_4', 'num_1', 'num_0']",['num_1'],num_1,[3],'num_1',images/min3.png,"[(0.45, 0.79)]",,,,,0,9,9,9,4,3,19,2,,,,,,,,,,,,,"(-0.25, -0.04)",images/min2.png,10,0.0493218258489,0.709791298606,[ 0.76427526 -0.16927083],,,,,,,,['num_1'],,,,2018_Jun_30_1720,59.9629767473,sequenceLearningTask,001,122,
min1.png,min2.png,min3.png,min4.png,allBlank.png,"['num_7', 'num_4', 'num_1', 'num_0']",['num_1'],num_1,[3],'num_1',images/min3.png,"[(0.45, 0.79)]",,,,,0,9,9,9,4,3,19,2,,,,,,,,,,,,,"(0.25, -0.04)",images/min3.png,10,0.0601685907459,0.463868117309,[-0.22254758 -0.1796875 ],,,,,,,,['num_1'],,,,2018_Jun_30_1720,59.9629767473,sequenceLearningTask,001,122,
min1.png,min2.png,min3.png,min4.png,allBlank.png,"['num_7', 'num_4', 'num_1', 'num_0']",['num_1'],num_1,[3],'num_1',images/min3.png,"[(0.45, 0.79)]",,,,,0,9,9,9,4,3,19,2,,,,,,,,,,,,,"(0.75, -0.04)",images/min4.png,10,0.0514063378796,0.4240773645,[ 0.26939971 -0.10677083],,,,,,,,['num_1'],,,,2018_Jun_30_1720,59.9629767473,sequenceLearningTask,001,122,
min1.png,min2.png,min3.png,min4.png,allBlank.png,"['num_7', 'num_4', 'num_1', 'num_0']",['num_1'],num_1,[3],'num_1',images/min3.png,"[(0.45, 0.79)]",,,,,0,9,9,9,4,3,19,2,0,-1,-1,0,,,,,,,,,,,,,,,,,,,,,,['num_1'],,,,2018_Jun_30_1720,59.9629767473,sequenceLearningTask,001,122,
min1.png,min2.png,min3.png,min4.png,allBlank.png,"['num_7', 'num_4', 'num_1', 'num_0']",['num_1'],num_1,[3],'num_1',images/min3.png,"[(0.45, 0.79)]",,,,,0,9,9,9,4,3,19,2,0,-1,-1,0,,,,,,,,,,,,,,,,,['1'],,,,,['num_1'],,,,2018_Jun_30_1720,59.9629767473,sequenceLearningTask,001,122,
min1.png,min2.png,min3.png,min4.png,allBlank.png,"['num_7', 'num_4', 'num_1', 'num_0']",['num_1'],num_1,[3],'num_1',images/min3.png,"[(0.45, 0.79)]",,,,,0,9,9,9,4,3,19,2,0,-1,-1,0,,,,,,,,,,,,,,,,,['2'],,,,,['num_1'],,,,2018_Jun_30_1720,59.9629767473,sequenceLearningTask,001,122,
min1.png,min2.png,min3.png,min4.png,allBlank.png,"['num_7', 'num_4', 'num_1', 'num_0']",['num_1'],num_1,[3],'num_1',images/min3.png,"[(0.45, 0.79)]",,,,,0,9,9,9,4,3,19,2,0,-1,-1,0,,,,,,,,,,,,,,,,,['1'],,,,,['num_1'],,,,2018_Jun_30_1720,59.9629767473,sequenceLearningTask,001,122,
min1.png,min2.png,min3.png,min4.png,allBlank.png,"['num_7', 'num_4', 'num_1', 'num_0']",['num_1'],num_1,[3],'num_1',images/min3.png,"[(0.45, 0.79)]",,,,,0,9,9,9,4,3,19,2,0,-1,-1,0,,,,,,,,,,,,,,,,,['1'],,,,,['num_1'],,,,2018_Jun_30_1720,59.9629767473,sequenceLearningTask,001,122,
min1.png,min2.png,min3.png,min4.png,allBlank.png,"['num_7', 'num_4', 'num_1', 'num_0']",['num_1'],num_1,[3],'num_1',images/min3.png,"[(0.45, 0.79)]",0,0,0,0,0,9,9,9,4,3,19,2,0,-1,-1,0,,,,,,,,,,,,,,,,,,return,10.6951607405,piqano,"[4.133071945398115, 5.13901532755699, 6.028732295962982, 7.8852250727359205, 8.453637557453476, 9.026491066091694]",['num_1'],,,,2018_Jun_30_1720,59.9629767473,sequenceLearningTask,001,122,
min1.png,min2.png,min3.png,min4.png,allBlank.png,"['num_7', 'num_4', 'num_1', 'num_0']",['num_1'],num_1,[3],'num_1',images/min3.png,"[(0.45, 0.79)]",,,,,0,9,9,9,4,3,19,2,0,-1,-1,0,0,0,0,0,,,,,,,1,,,,,,,,,,,['num_1'],1,['3'],8.67411541578,2018_Jun_30_1720,59.9629767473,sequenceLearningTask,001,122,
