pawPatrol1,pawPatrol2,pawPatrol3,pawPatrol4,blank,allowableKey,correctKey,correctKeyPressNum,posLoc,correctKeyPress,randomPaw,im_size,trials.thisRepN,trials.thisTrialN,trials.thisN,trials.thisIndex,trials_3.thisRepN,trials_3.thisTrialN,trials_3.thisN,trials_3.thisIndex,trials_2.thisRepN,trials_2.thisTrialN,trials_2.thisN,trials_2.thisIndex,trials_questions.thisRepN,trials_questions.thisTrialN,trials_questions.thisN,trials_questions.thisIndex,trials_test.thisRepN,trials_test.thisTrialN,trials_test.thisN,trials_test.thisIndex,trials_recogtest.thisRepN,trials_recogtest.thisTrialN,trials_recogtest.thisN,trials_recogtest.thisIndex,correctLocation,correctImage,repetitionNumber,stimulusPresent.t,responseTimeCorrect,pressLoc,responseTimeIncorrect,trialIncorrect,questionsResponses,AnswerFinished.keys,AnswerFinished.rt,RecordAnswer.keys,RecordAnswer.rt,correctKey,trialCorrect,recallResponse,recallResponseTime,date,frameRate,expName,session,participant,
min1.png,min2.png,min3.png,min4.png,allBlank.png,,,,,,,,,,,,0,0,0,0,,,,,,,,,,,,,,,,,"(-0.75, -0.04)",images/min1.png,1,0.0768971992657,0.835572580225,[ 0.72181552 -0.1328125 ],,,,,,,,,,,,2018_Jul_07_1218,59.8765131963,sequenceLearningTask,001,128,
min1.png,min2.png,min3.png,min4.png,allBlank.png,,,,,,,,,,,,0,0,0,0,,,,,,,,,,,,,,,,,"(0.25, -0.04)",images/min3.png,1,0.0713640733156,0.666397265042,[-0.81991215 -0.14322917],,,,,,,,,,,,2018_Jul_07_1218,59.8765131963,sequenceLearningTask,001,128,
min1.png,min2.png,min3.png,min4.png,allBlank.png,,,,,,,,,,,,0,0,0,0,,,,,,,,,,,,,,,,,"(-0.25, -0.04)",images/min2.png,1,0.0629008973483,0.725101651158,[ 0.25622255 -0.05208333],,,,,,,,,,,,2018_Jul_07_1218,59.8765131963,sequenceLearningTask,001,128,
min1.png,min2.png,min3.png,min4.png,allBlank.png,,,,,,,,,,,,0,0,0,0,,,,,,,,,,,,,,,,,"(0.75, -0.04)",images/min4.png,1,0.0637173071736,0.573683456983,[-0.16544656 -0.1328125 ],,,,,,,,,,,,2018_Jul_07_1218,59.8765131963,sequenceLearningTask,001,128,
min1.png,min2.png,min3.png,min4.png,allBlank.png,,,,,,,,,,,,0,0,0,0,,,,,,,,,,,,,,,,,"(0.75, -0.04)",images/min4.png,1,0.052008594037,0.63497779076,[ 0.75549048 -0.11979167],,,,,,,,,,,,2018_Jul_07_1218,59.8765131963,sequenceLearningTask,001,128,
min1.png,min2.png,min3.png,min4.png,allBlank.png,,,,,,,,,,,,0,0,0,0,,,,,,,,,,,,,,,,,"(-0.25, -0.04)",images/min2.png,1,0.0628967947559,0.523413118557,[ 0.70424597 -0.12239583],,,,,,,,,,,,2018_Jul_07_1218,59.8765131963,sequenceLearningTask,001,128,
min1.png,min2.png,min3.png,min4.png,allBlank.png,,,,,,,,,,,,0,0,0,0,,,,,,,,,,,,,,,,,"(0.25, -0.04)",images/min3.png,1,0.0462744425749,0.624550718116,[-0.27232796 -0.25520833],,,,,,,,,,,,2018_Jul_07_1218,59.8765131963,sequenceLearningTask,001,128,
min1.png,min2.png,min3.png,min4.png,allBlank.png,,,,,,,,,,,,0,0,0,0,,,,,,,,,,,,,,,,,"(0.75, -0.04)",images/min4.png,1,0.0540475676535,0.683976745117,[ 0.18155198 -0.04947917],,,,,,,,,,,,2018_Jul_07_1218,59.8765131963,sequenceLearningTask,001,128,
min1.png,min2.png,min3.png,min4.png,allBlank.png,,,,,,,,,,,,0,1,1,1,,,,,,,,,,,,,,,,,"(-0.75, -0.04)",images/min1.png,2,0.0387745482149,0.563672794378,[ 0.76720351 -0.203125  ],,,,,,,,,,,,2018_Jul_07_1218,59.8765131963,sequenceLearningTask,001,128,
min1.png,min2.png,min3.png,min4.png,allBlank.png,,,,,,,,,,,,0,1,1,1,,,,,,,,,,,,,,,,,"(0.25, -0.04)",images/min3.png,2,0.0506506458623,0.536805523443,[-0.74377745 -0.11979167],,,,,,,,,,,,2018_Jul_07_1218,59.8765131963,sequenceLearningTask,001,128,
min1.png,min2.png,min3.png,min4.png,allBlank.png,,,,,,,,,,,,0,1,1,1,,,,,,,,,,,,,,,,,"(-0.25, -0.04)",images/min2.png,2,0.0577488994459,0.478181957616,[ 0.21961933 -0.0859375 ],,,,,,,,,,,,2018_Jul_07_1218,59.8765131963,sequenceLearningTask,001,128,
min1.png,min2.png,min3.png,min4.png,allBlank.png,,,,,,,,,,,,0,1,1,1,,,,,,,,,,,,,,,,,"(0.75, -0.04)",images/min4.png,2,0.0558227463625,0.564970434876,[-0.36749634  0.0078125 ],,,,,,,,,,,,2018_Jul_07_1218,59.8765131963,sequenceLearningTask,001,128,
min1.png,min2.png,min3.png,min4.png,allBlank.png,,,,,,,,,,,,0,1,1,1,,,,,,,,,,,,,,,,,"(0.75, -0.04)",images/min4.png,2,0.0520348504651,0.652557680965,[ 0.69985359 -0.18489583],,,,,,,,,,,,2018_Jul_07_1218,59.8765131963,sequenceLearningTask,001,128,
min1.png,min2.png,min3.png,min4.png,allBlank.png,,,,,,,,,,,,0,1,1,1,,,,,,,,,,,,,,,,,"(-0.25, -0.04)",images/min2.png,2,0.0556746438378,0.48106646922,[ 0.72035139 -0.125     ],,,,,,,,,,,,2018_Jul_07_1218,59.8765131963,sequenceLearningTask,001,128,
min1.png,min2.png,min3.png,min4.png,allBlank.png,,,,,,,,,,,,0,1,1,1,,,,,,,,,,,,,,,,,"(0.25, -0.04)",images/min3.png,2,0.0466243911069,0.758071483811,[-0.30307467 -0.0390625 ],,,,,,,,,,,,2018_Jul_07_1218,59.8765131963,sequenceLearningTask,001,128,
min1.png,min2.png,min3.png,min4.png,allBlank.png,,,,,,,,,,,,0,1,1,1,,,,,,,,,,,,,,,,,"(0.75, -0.04)",images/min4.png,2,0.0510170047637,0.753726049676,[ 0.1727672   0.00260417],,,,,,,,,,,,2018_Jul_07_1218,59.8765131963,sequenceLearningTask,001,128,
min1.png,min2.png,min3.png,min4.png,allBlank.png,,,,,,,,,,,,0,2,2,2,,,,,,,,,,,,,,,,,"(-0.75, -0.04)",images/min1.png,3,0.0507060304517,0.836768477224,[ 0.73060029 -0.20052083],,,,,,,,,,,,2018_Jul_07_1218,59.8765131963,sequenceLearningTask,001,128,
min1.png,min2.png,min3.png,min4.png,allBlank.png,,,,,,,,,,,,0,2,2,2,,,,,,,,,,,,,,,,,"(0.25, -0.04)",images/min3.png,3,0.0637550507672,0.656865781872,[-0.84626647 -0.21354167],,,,,,,,,,,,2018_Jul_07_1218,59.8765131963,sequenceLearningTask,001,128,
min1.png,min2.png,min3.png,min4.png,allBlank.png,,,,,,,,,,,,0,2,2,2,,,,,,,,,,,,,,,,,"(-0.25, -0.04)",images/min2.png,3,0.0580988478614,0.696507201414,[ 0.20644217  0.01041667],,,,,,,,,,,,2018_Jul_07_1218,59.8765131963,sequenceLearningTask,001,128,
min1.png,min2.png,min3.png,min4.png,allBlank.png,,,,,,,,,,,,0,2,2,2,,,,,,,,,,,,,,,,,"(0.75, -0.04)",images/min4.png,3,0.0572935149539,0.562989307451,[-0.37774524 -0.21354167],,,,,,,,,,,,2018_Jul_07_1218,59.8765131963,sequenceLearningTask,001,128,
min1.png,min2.png,min3.png,min4.png,allBlank.png,,,,,,,,,,,,0,2,2,2,,,,,,,,,,,,,,,,,"(0.75, -0.04)",images/min4.png,3,0.0506707484601,0.636590508046,[ 0.72035139 -0.00520833],,,,,,,,,,,,2018_Jul_07_1218,59.8765131963,sequenceLearningTask,001,128,
min1.png,min2.png,min3.png,min4.png,allBlank.png,,,,,,,,,,,,0,2,2,2,,,,,,,,,,,,,,,,,"(-0.25, -0.04)",images/min2.png,3,0.0553616184043,1.40287655266,[ 0.70131772 -0.02864583],,,,,,,,,,,,2018_Jul_07_1218,59.8765131963,sequenceLearningTask,001,128,
min1.png,min2.png,min3.png,min4.png,allBlank.png,,,,,,,,,,,,0,2,2,2,,,,,,,,,,,,,,,,,"(0.25, -0.04)",images/min3.png,3,0.0575158738066,0.763454045751,[-0.29868228 -0.22395833],,,,,,,,,,,,2018_Jul_07_1218,59.8765131963,sequenceLearningTask,001,128,
min1.png,min2.png,min3.png,min4.png,allBlank.png,,,,,,,,,,,,0,2,2,2,,,,,,,,,,,,,,,,,"(0.75, -0.04)",images/min4.png,3,0.0623171026818,0.725225138362,[ 0.2284041 -0.1328125],,,,,,,,,,,,2018_Jul_07_1218,59.8765131963,sequenceLearningTask,001,128,
min1.png,min2.png,min3.png,min4.png,allBlank.png,,,,,,,,,,,,0,3,3,3,,,,,,,,,,,,,,,,,"(-0.75, -0.04)",images/min1.png,4,0.0475482882466,0.638064968982,[ 0.7057101  -0.17447917],,,,,,,,,,,,2018_Jul_07_1218,59.8765131963,sequenceLearningTask,001,128,
min1.png,min2.png,min3.png,min4.png,allBlank.png,,,,,,,,,,,,0,3,3,3,,,,,,,,,,,,,,,,,"(0.25, -0.04)",images/min3.png,4,0.0525964912958,0.886125585181,[-0.75549048 -0.26822917],,,,,,,,,,,,2018_Jul_07_1218,59.8765131963,sequenceLearningTask,001,128,
min1.png,min2.png,min3.png,min4.png,allBlank.png,,,,,,,,,,,,0,3,3,3,,,,,,,,,,,,,,,,,"(-0.25, -0.04)",images/min2.png,4,0.0451503404183,1.59680590895,[ 0.15080527 -0.15364583],,,,,,,,,,,,2018_Jul_07_1218,59.8765131963,sequenceLearningTask,001,128,
min1.png,min2.png,min3.png,min4.png,allBlank.png,,,,,,,,,,,,0,3,3,3,,,,,,,,,,,,,,,,,"(0.75, -0.04)",images/min4.png,4,0.043673007749,1.66492936818,[-0.34260615 -0.1640625 ],,,,,,,,,,,,2018_Jul_07_1218,59.8765131963,sequenceLearningTask,001,128,
min1.png,min2.png,min3.png,min4.png,allBlank.png,,,,,,,,,,,,0,3,3,3,,,,,,,,,,,,,,,,,"(0.75, -0.04)",images/min4.png,4,0.0527852090308,0.751739178784,[ 0.63250366 -0.19010417],,,,,,,,,,,,2018_Jul_07_1218,59.8765131963,sequenceLearningTask,001,128,
min1.png,min2.png,min3.png,min4.png,allBlank.png,,,,,,,,,,,,0,3,3,3,,,,,,,,,,,,,,,,,"(-0.25, -0.04)",images/min2.png,4,0.0571564893471,0.663168958621,[ 0.65446559 -0.13020833],,,,,,,,,,,,2018_Jul_07_1218,59.8765131963,sequenceLearningTask,001,128,
min1.png,min2.png,min3.png,min4.png,allBlank.png,,,,,,,,,,,,0,3,3,3,,,,,,,,,,,,,,,,,"(0.25, -0.04)",images/min3.png,4,0.0543737212429,0.599611651385,[-0.27525622 -0.0078125 ],,,,,,,,,,,,2018_Jul_07_1218,59.8765131963,sequenceLearningTask,001,128,
min1.png,min2.png,min3.png,min4.png,allBlank.png,,,,,,,,,,,,0,3,3,3,,,,,,,,,,,,,,,,,"(0.75, -0.04)",images/min4.png,4,0.0524278760422,0.818949817913,[ 0.24304539 -0.09635417],,,,,,,,,,,,2018_Jul_07_1218,59.8765131963,sequenceLearningTask,001,128,
min1.png,min2.png,min3.png,min4.png,allBlank.png,,,,,,,,,,,,0,4,4,4,,,,,,,,,,,,,,,,,"(-0.75, -0.04)",images/min1.png,5,0.0561091052368,0.479132111068,[ 0.74084919 -0.08854167],,,,,,,,,,,,2018_Jul_07_1218,59.8765131963,sequenceLearningTask,001,128,
min1.png,min2.png,min3.png,min4.png,allBlank.png,,,,,,,,,,,,0,4,4,4,,,,,,,,,,,,,,,,,"(0.25, -0.04)",images/min3.png,5,0.0462276734179,0.708272529999,[-0.80966325 -0.07552083],,,,,,,,,,,,2018_Jul_07_1218,59.8765131963,sequenceLearningTask,001,128,
min1.png,min2.png,min3.png,min4.png,allBlank.png,,,,,,,,,,,,0,4,4,4,,,,,,,,,,,,,,,,,"(-0.25, -0.04)",images/min2.png,5,0.0546239776304,0.699615712976,[ 0.26354319 -0.05989583],,,,,,,,,,,,2018_Jul_07_1218,59.8765131963,sequenceLearningTask,001,128,
min1.png,min2.png,min3.png,min4.png,allBlank.png,,,,,,,,,,,,0,4,4,4,,,,,,,,,,,,,,,,,"(0.75, -0.04)",images/min4.png,5,0.0574264379684,0.578997095698,[-0.28989751  0.08072917],,,,,,,,,,,,2018_Jul_07_1218,59.8765131963,sequenceLearningTask,001,128,
min1.png,min2.png,min3.png,min4.png,allBlank.png,,,,,,,,,,,,0,4,4,4,,,,,,,,,,,,,,,,,"(0.75, -0.04)",images/min4.png,5,0.0495975180529,0.620894104242,[ 0.63689605 -0.1171875 ],,,,,,,,,,,,2018_Jul_07_1218,59.8765131963,sequenceLearningTask,001,128,
min1.png,min2.png,min3.png,min4.png,allBlank.png,,,,,,,,,,,,0,4,4,4,,,,,,,,,,,,,,,,,"(-0.25, -0.04)",images/min2.png,5,0.0637677686755,0.740585542284,[ 0.55051245 -0.16927083],,,,,,,,,,,,2018_Jul_07_1218,59.8765131963,sequenceLearningTask,001,128,
min1.png,min2.png,min3.png,min4.png,allBlank.png,,,,,,,,,,,,0,4,4,4,,,,,,,,,,,,,,,,,"(0.25, -0.04)",images/min3.png,5,0.0519306453643,0.652982296189,[-0.35431918 -0.21875   ],,,,,,,,,,,,2018_Jul_07_1218,59.8765131963,sequenceLearningTask,001,128,
min1.png,min2.png,min3.png,min4.png,allBlank.png,,,,,,,,,,,,0,4,4,4,,,,,,,,,,,,,,,,,"(0.75, -0.04)",images/min4.png,5,0.0552422337933,0.599353600293,[ 0.18448023 -0.0390625 ],,,,,,,,,,,,2018_Jul_07_1218,59.8765131963,sequenceLearningTask,001,128,
min1.png,min2.png,min3.png,min4.png,allBlank.png,,,,,,,,,,,,0,5,5,5,,,,,,,,,,,,,,,,,"(-0.75, -0.04)",images/min1.png,6,0.0617242824519,0.958343401668,[ 0.69838946 -0.11197917],,,,,,,,,,,,2018_Jul_07_1218,59.8765131963,sequenceLearningTask,001,128,
min1.png,min2.png,min3.png,min4.png,allBlank.png,,,,,,,,,,,,0,5,5,5,,,,,,,,,,,,,,,,,"(0.25, -0.04)",images/min3.png,6,0.0474293138832,0.824747559149,[-0.67203514 -0.04166667],,,,,,,,,,,,2018_Jul_07_1218,59.8765131963,sequenceLearningTask,001,128,
min1.png,min2.png,min3.png,min4.png,allBlank.png,,,,,,,,,,,,0,5,5,5,,,,,,,,,,,,,,,,,"(-0.25, -0.04)",images/min2.png,6,0.053083055187,0.517575582489,[ 0.27818448 -0.1328125 ],,,,,,,,,,,,2018_Jul_07_1218,59.8765131963,sequenceLearningTask,001,128,
min1.png,min2.png,min3.png,min4.png,allBlank.png,,,,,,,,,,,,0,5,5,5,,,,,,,,,,,,,,,,,"(0.75, -0.04)",images/min4.png,6,0.0488455183804,1.14122783951,[-0.30161054 -0.28645833],,,,,,,,,,,,2018_Jul_07_1218,59.8765131963,sequenceLearningTask,001,128,
min1.png,min2.png,min3.png,min4.png,allBlank.png,,,,,,,,,,,,0,5,5,5,,,,,,,,,,,,,,,,,"(0.75, -0.04)",images/min4.png,6,0.0552405926865,0.598483446753,[ 0.70278184 -0.19270833],,,,,,,,,,,,2018_Jul_07_1218,59.8765131963,sequenceLearningTask,001,128,
min1.png,min2.png,min3.png,min4.png,allBlank.png,,,,,,,,,,,,0,5,5,5,,,,,,,,,,,,,,,,,"(-0.25, -0.04)",images/min2.png,6,0.054066439392,0.817633715807,[ 0.79941435  0.00260417],,,,,,,,,,,,2018_Jul_07_1218,59.8765131963,sequenceLearningTask,001,128,
min1.png,min2.png,min3.png,min4.png,allBlank.png,,,,,,,,,,,,0,5,5,5,,,,,,,,,,,,,,,,,"(0.25, -0.04)",images/min3.png,6,0.058116078726,0.814144486445,[-0.33089312 -0.15625   ],,,,,,,,,,,,2018_Jul_07_1218,59.8765131963,sequenceLearningTask,001,128,
min1.png,min2.png,min3.png,min4.png,allBlank.png,,,,,,,,,,,,0,5,5,5,,,,,,,,,,,,,,,,,"(0.75, -0.04)",images/min4.png,6,0.0508734149626,0.770191273768,[ 0.2181552 -0.171875 ],,,,,,,,,,,,2018_Jul_07_1218,59.8765131963,sequenceLearningTask,001,128,
min1.png,min2.png,min3.png,min4.png,allBlank.png,,,,,,,,,,,,0,6,6,6,,,,,,,,,,,,,,,,,"(-0.75, -0.04)",images/min1.png,7,0.0581968991319,0.963031399879,[ 0.66617862 -0.24479167],,,,,,,,,,,,2018_Jul_07_1218,59.8765131963,sequenceLearningTask,001,128,
min1.png,min2.png,min3.png,min4.png,allBlank.png,,,,,,,,,,,,0,6,6,6,,,,,,,,,,,,,,,,,"(0.25, -0.04)",images/min3.png,7,0.0545997724403,0.919206187013,[-0.79062958 -0.20572917],,,,,,,,,,,,2018_Jul_07_1218,59.8765131963,sequenceLearningTask,001,128,
min1.png,min2.png,min3.png,min4.png,allBlank.png,,,,,,,,,,,,0,6,6,6,,,,,,,,,,,,,,,,,"(-0.25, -0.04)",images/min2.png,7,0.0551232594298,0.917015008396,[ 0.22693997 -0.2265625 ],,,,,,,,,,,,2018_Jul_07_1218,59.8765131963,sequenceLearningTask,001,128,
min1.png,min2.png,min3.png,min4.png,allBlank.png,,,,,,,,,,,,0,6,6,6,,,,,,,,,,,,,,,,,"(0.75, -0.04)",images/min4.png,7,0.0550165928435,1.28581239562,[-0.25036603 -0.2109375 ],,,,,,,,,,,,2018_Jul_07_1218,59.8765131963,sequenceLearningTask,001,128,
min1.png,min2.png,min3.png,min4.png,allBlank.png,,,,,,,,,,,,0,6,6,6,,,,,,,,,,,,,,,,,"(0.75, -0.04)",images/min4.png,7,0.0545952596003,1.16879828973,[ 0.63396779 -0.25      ],,,,,,,,,,,,2018_Jul_07_1218,59.8765131963,sequenceLearningTask,001,128,
min1.png,min2.png,min3.png,min4.png,allBlank.png,,,,,,,,,,,,0,6,6,6,,,,,,,,,,,,,,,,,"(-0.25, -0.04)",images/min2.png,7,0.0429993668804,0.761439687572,[ 0.74670571  0.0234375 ],,,,,,,,,,,,2018_Jul_07_1218,59.8765131963,sequenceLearningTask,001,128,
min1.png,min2.png,min3.png,min4.png,allBlank.png,,,,,,,,,,,,0,6,6,6,,,,,,,,,,,,,,,,,"(0.25, -0.04)",images/min3.png,7,0.0569850023603,0.696838278207,[-0.3147877  -0.15364583],,,,,,,,,,,,2018_Jul_07_1218,59.8765131963,sequenceLearningTask,001,128,
min1.png,min2.png,min3.png,min4.png,allBlank.png,,,,,,,,,,,,0,6,6,6,,,,,,,,,,,,,,,,,"(0.75, -0.04)",images/min4.png,7,0.0621743334923,0.72496257443,[ 0.10541728 -0.17708333],,,,,,,,,,,,2018_Jul_07_1218,59.8765131963,sequenceLearningTask,001,128,
min1.png,min2.png,min3.png,min4.png,allBlank.png,,,,,,,,,,,,0,7,7,7,,,,,,,,,,,,,,,,,"(-0.75, -0.04)",images/min1.png,8,0.05140346603,0.584597093519,[ 0.70863836 -0.27604167],,,,,,,,,,,,2018_Jul_07_1218,59.8765131963,sequenceLearningTask,001,128,
min1.png,min2.png,min3.png,min4.png,allBlank.png,,,,,,,,,,,,0,7,7,7,,,,,,,,,,,,,,,,,"(0.25, -0.04)",images/min3.png,8,0.0486190569354,0.672601160011,[-0.84187408 -0.328125  ],,,,,,,,,,,,2018_Jul_07_1218,59.8765131963,sequenceLearningTask,001,128,
min1.png,min2.png,min3.png,min4.png,allBlank.png,,,,,,,,,,,,0,7,7,7,,,,,,,,,,,,,,,,,"(-0.25, -0.04)",images/min2.png,8,0.0541534136282,0.616358721512,[ 0.18301611 -0.40885417],,,,,,,,,,,,2018_Jul_07_1218,59.8765131963,sequenceLearningTask,001,128,
min1.png,min2.png,min3.png,min4.png,allBlank.png,,,,,,,,,,,,0,7,7,7,,,,,,,,,,,,,,,,,"(0.75, -0.04)",images/min4.png,8,0.0532385421684,0.650595425395,[-0.28989751 -0.27083333],,,,,,,,,,,,2018_Jul_07_1218,59.8765131963,sequenceLearningTask,001,128,
min1.png,min2.png,min3.png,min4.png,allBlank.png,,,,,,,,,,,,0,7,7,7,,,,,,,,,,,,,,,,,"(0.75, -0.04)",images/min4.png,8,0.0602030522423,0.677650183556,[ 0.52855051 -0.1953125 ],,,,,,,,,,,,2018_Jul_07_1218,59.8765131963,sequenceLearningTask,001,128,
min1.png,min2.png,min3.png,min4.png,allBlank.png,,,,,,,,,,,,0,7,7,7,,,,,,,,,,,,,,,,,"(-0.25, -0.04)",images/min2.png,8,0.0546268493636,0.76932686381,[ 0.67057101 -0.140625  ],,,,,,,,,,,,2018_Jul_07_1218,59.8765131963,sequenceLearningTask,001,128,
min1.png,min2.png,min3.png,min4.png,allBlank.png,,,,,,,,,,,,0,7,7,7,,,,,,,,,,,,,,,,,"(0.25, -0.04)",images/min3.png,8,0.0533197729383,0.652818603907,[-0.33382138 -0.29427083],,,,,,,,,,,,2018_Jul_07_1218,59.8765131963,sequenceLearningTask,001,128,
min1.png,min2.png,min3.png,min4.png,allBlank.png,,,,,,,,,,,,0,7,7,7,,,,,,,,,,,,,,,,,"(0.75, -0.04)",images/min4.png,8,0.0546740288846,0.716612218879,[ 0.16691069 -0.2890625 ],,,,,,,,,,,,2018_Jul_07_1218,59.8765131963,sequenceLearningTask,001,128,
min1.png,min2.png,min3.png,min4.png,allBlank.png,,,,,,,,,,,,0,8,8,8,,,,,,,,,,,,,,,,,"(-0.75, -0.04)",images/min1.png,9,0.0575269508408,0.645176350721,[ 0.63396779 -0.265625  ],,,,,,,,,,,,2018_Jul_07_1218,59.8765131963,sequenceLearningTask,001,128,
min1.png,min2.png,min3.png,min4.png,allBlank.png,,,,,,,,,,,,0,8,8,8,,,,,,,,,,,,,,,,,"(0.25, -0.04)",images/min3.png,9,0.0567962843925,1.23341118626,[-0.79062958 -0.34895833],0.547388083185,1,,,,,,,,,,2018_Jul_07_1218,59.8765131963,sequenceLearningTask,001,128,
min1.png,min2.png,min3.png,min4.png,allBlank.png,,,,,,,,,,,,0,8,8,8,,,,,,,,,,,,,,,,,"(-0.25, -0.04)",images/min2.png,9,0.0546325929463,0.582455145661,[ 0.26061493 -0.203125  ],,,,,,,,,,,,2018_Jul_07_1218,59.8765131963,sequenceLearningTask,001,128,
min1.png,min2.png,min3.png,min4.png,allBlank.png,,,,,,,,,,,,0,8,8,8,,,,,,,,,,,,,,,,,"(0.75, -0.04)",images/min4.png,9,0.0492077746894,0.755471690092,[-0.38945827 -0.3046875 ],,,,,,,,,,,,2018_Jul_07_1218,59.8765131963,sequenceLearningTask,001,128,
min1.png,min2.png,min3.png,min4.png,allBlank.png,,,,,,,,,,,,0,8,8,8,,,,,,,,,,,,,,,,,"(0.75, -0.04)",images/min4.png,9,0.0553821310168,0.665545162861,[ 0.64714495 -0.234375  ],,,,,,,,,,,,2018_Jul_07_1218,59.8765131963,sequenceLearningTask,001,128,
min1.png,min2.png,min3.png,min4.png,allBlank.png,,,,,,,,,,,,0,8,8,8,,,,,,,,,,,,,,,,,"(-0.25, -0.04)",images/min2.png,9,0.0540475675371,0.73387990403,[ 0.67935578 -0.08072917],,,,,,,,,,,,2018_Jul_07_1218,59.8765131963,sequenceLearningTask,001,128,
min1.png,min2.png,min3.png,min4.png,allBlank.png,,,,,,,,,,,,0,8,8,8,,,,,,,,,,,,,,,,,"(0.25, -0.04)",images/min3.png,9,0.0585866427282,0.712428425672,[-0.31332357 -0.2265625 ],,,,,,,,,,,,2018_Jul_07_1218,59.8765131963,sequenceLearningTask,001,128,
min1.png,min2.png,min3.png,min4.png,allBlank.png,,,,,,,,,,,,0,8,8,8,,,,,,,,,,,,,,,,,"(0.75, -0.04)",images/min4.png,9,0.0650916656014,0.806640899857,[ 0.13762811 -0.1953125 ],,,,,,,,,,,,2018_Jul_07_1218,59.8765131963,sequenceLearningTask,001,128,
min1.png,min2.png,min3.png,min4.png,allBlank.png,,,,,,,,,,,,0,9,9,9,,,,,,,,,,,,,,,,,"(-0.75, -0.04)",images/min1.png,10,0.0566034639487,0.545731468475,[ 0.78477306 -0.078125  ],,,,,,,,,,,,2018_Jul_07_1218,59.8765131963,sequenceLearningTask,001,128,
min1.png,min2.png,min3.png,min4.png,allBlank.png,,,,,,,,,,,,0,9,9,9,,,,,,,,,,,,,,,,,"(0.25, -0.04)",images/min3.png,10,0.0570613099262,0.730766879627,[-0.79355783 -0.19791667],,,,,,,,,,,,2018_Jul_07_1218,59.8765131963,sequenceLearningTask,001,128,
min1.png,min2.png,min3.png,min4.png,allBlank.png,,,,,,,,,,,,0,9,9,9,,,,,,,,,,,,,,,,,"(-0.25, -0.04)",images/min2.png,10,0.0570354637457,0.680768951424,[ 0.14787701 -0.26822917],,,,,,,,,,,,2018_Jul_07_1218,59.8765131963,sequenceLearningTask,001,128,
min1.png,min2.png,min3.png,min4.png,allBlank.png,,,,,,,,,,,,0,9,9,9,,,,,,,,,,,,,,,,,"(0.75, -0.04)",images/min4.png,10,0.0546871570405,0.700348430546,[-0.34260615 -0.14322917],,,,,,,,,,,,2018_Jul_07_1218,59.8765131963,sequenceLearningTask,001,128,
min1.png,min2.png,min3.png,min4.png,allBlank.png,,,,,,,,,,,,0,9,9,9,,,,,,,,,,,,,,,,,"(0.75, -0.04)",images/min4.png,10,0.0526920808479,0.734485442284,[ 0.70863836 -0.06510417],,,,,,,,,,,,2018_Jul_07_1218,59.8765131963,sequenceLearningTask,001,128,
min1.png,min2.png,min3.png,min4.png,allBlank.png,,,,,,,,,,,,0,9,9,9,,,,,,,,,,,,,,,,,"(-0.25, -0.04)",images/min2.png,10,0.0570436689304,0.596562216757,[ 0.60175695 -0.24479167],,,,,,,,,,,,2018_Jul_07_1218,59.8765131963,sequenceLearningTask,001,128,
min1.png,min2.png,min3.png,min4.png,allBlank.png,,,,,,,,,,,,0,9,9,9,,,,,,,,,,,,,,,,,"(0.25, -0.04)",images/min3.png,10,0.0582165914821,0.963870373787,[-0.33967789 -0.30729167],,,,,,,,,,,,2018_Jul_07_1218,59.8765131963,sequenceLearningTask,001,128,
min1.png,min2.png,min3.png,min4.png,allBlank.png,,,,,,,,,,,,0,9,9,9,,,,,,,,,,,,,,,,,"(0.75, -0.04)",images/min4.png,10,0.0572102329461,0.747906975215,[ 0.17862372  0.03645833],,,,,,,,,,,,2018_Jul_07_1218,59.8765131963,sequenceLearningTask,001,128,
min1.png,min2.png,min3.png,min4.png,allBlank.png,,,,,,,,,,,,0,0,0,0,,,,,,,,,,,,,,,,,"(-0.75, -0.04)",images/min1.png,1,0.0691683818586,0.638027635636,[ 0.65300146 -0.16927083],,,,,,,,,,,,2018_Jul_07_1218,59.8765131963,sequenceLearningTask,001,128,
min1.png,min2.png,min3.png,min4.png,allBlank.png,,,,,,,,,,,,0,0,0,0,,,,,,,,,,,,,,,,,"(0.25, -0.04)",images/min3.png,1,0.0553000798682,0.6649293683,[-0.83455344  0.05208333],,,,,,,,,,,,2018_Jul_07_1218,59.8765131963,sequenceLearningTask,001,128,
min1.png,min2.png,min3.png,min4.png,allBlank.png,,,,,,,,,,,,0,0,0,0,,,,,,,,,,,,,,,,,"(-0.25, -0.04)",images/min2.png,1,0.0516947479919,0.551710953121,[ 0.10541728 -0.09635417],,,,,,,,,,,,2018_Jul_07_1218,59.8765131963,sequenceLearningTask,001,128,
min1.png,min2.png,min3.png,min4.png,allBlank.png,,,,,,,,,,,,0,0,0,0,,,,,,,,,,,,,,,,,"(0.75, -0.04)",images/min4.png,1,0.0546912596328,0.532245935407,[-0.28111274  0.15104167],,,,,,,,,,,,2018_Jul_07_1218,59.8765131963,sequenceLearningTask,001,128,
min1.png,min2.png,min3.png,min4.png,allBlank.png,,,,,,,,,,,,0,0,0,0,,,,,,,,,,,,,,,,,"(0.75, -0.04)",images/min4.png,1,0.0665312547935,0.570051048184,[ 0.65446559  0.00260417],,,,,,,,,,,,2018_Jul_07_1218,59.8765131963,sequenceLearningTask,001,128,
min1.png,min2.png,min3.png,min4.png,allBlank.png,,,,,,,,,,,,0,0,0,0,,,,,,,,,,,,,,,,,"(-0.25, -0.04)",images/min2.png,1,0.0524500297615,0.451227712329,[ 0.65007321 -0.21354167],,,,,,,,,,,,2018_Jul_07_1218,59.8765131963,sequenceLearningTask,001,128,
min1.png,min2.png,min3.png,min4.png,allBlank.png,,,,,,,,,,,,0,0,0,0,,,,,,,,,,,,,,,,,"(0.25, -0.04)",images/min3.png,1,0.0571958740475,0.49625005282,[-0.26647145 -0.24739583],,,,,,,,,,,,2018_Jul_07_1218,59.8765131963,sequenceLearningTask,001,128,
min1.png,min2.png,min3.png,min4.png,allBlank.png,,,,,,,,,,,,0,0,0,0,,,,,,,,,,,,,,,,,"(0.75, -0.04)",images/min4.png,1,0.0399015221046,0.563421307248,[ 0.22254758 -0.13802083],,,,,,,,,,,,2018_Jul_07_1218,59.8765131963,sequenceLearningTask,001,128,
min1.png,min2.png,min3.png,min4.png,allBlank.png,,,,,,,,,,,,0,1,1,1,,,,,,,,,,,,,,,,,"(-0.75, -0.04)",images/min1.png,2,0.0535659267334,0.799911056529,[ 0.6852123   0.06770833],,,,,,,,,,,,2018_Jul_07_1218,59.8765131963,sequenceLearningTask,001,128,
min1.png,min2.png,min3.png,min4.png,allBlank.png,,,,,,,,,,,,0,1,1,1,,,,,,,,,,,,,,,,,"(0.25, -0.04)",images/min3.png,2,0.0544217212591,0.465600219206,[-0.62079063 -0.00260417],,,,,,,,,,,,2018_Jul_07_1218,59.8765131963,sequenceLearningTask,001,128,
min1.png,min2.png,min3.png,min4.png,allBlank.png,,,,,,,,,,,,0,1,1,1,,,,,,,,,,,,,,,,,"(-0.25, -0.04)",images/min2.png,2,0.057840386522,0.595718729892,[ 0.18448023 -0.01822917],,,,,,,,,,,,2018_Jul_07_1218,59.8765131963,sequenceLearningTask,001,128,
min1.png,min2.png,min3.png,min4.png,allBlank.png,,,,,,,,,,,,0,1,1,1,,,,,,,,,,,,,,,,,"(0.75, -0.04)",images/min4.png,2,0.0685328949476,0.317288485123,[-0.19912152 -0.00520833],,,,,,,,,,,,2018_Jul_07_1218,59.8765131963,sequenceLearningTask,001,128,
min1.png,min2.png,min3.png,min4.png,allBlank.png,,,,,,,,,,,,0,1,1,1,,,,,,,,,,,,,,,,,"(0.75, -0.04)",images/min4.png,2,0.0532709524268,0.600310317823,[ 0.72181552  0.05729167],,,,,,,,,,,,2018_Jul_07_1218,59.8765131963,sequenceLearningTask,001,128,
min1.png,min2.png,min3.png,min4.png,allBlank.png,,,,,,,,,,,,0,1,1,1,,,,,,,,,,,,,,,,,"(-0.25, -0.04)",images/min2.png,2,0.0503302357392,0.48620739032,[ 0.74377745 -0.09635417],,,,,,,,,,,,2018_Jul_07_1218,59.8765131963,sequenceLearningTask,001,128,
min1.png,min2.png,min3.png,min4.png,allBlank.png,,,,,,,,,,,,0,1,1,1,,,,,,,,,,,,,,,,,"(0.25, -0.04)",images/min3.png,2,0.0562153615756,0.564020691672,[-0.3250366  -0.30729167],,,,,,,,,,,,2018_Jul_07_1218,59.8765131963,sequenceLearningTask,001,128,
min1.png,min2.png,min3.png,min4.png,allBlank.png,,,,,,,,,,,,0,1,1,1,,,,,,,,,,,,,,,,,"(0.75, -0.04)",images/min4.png,2,0.0478625445394,0.454484326416,[ 0.20497804 -0.01302083],,,,,,,,,,,,2018_Jul_07_1218,59.8765131963,sequenceLearningTask,001,128,
min1.png,min2.png,min3.png,min4.png,allBlank.png,,,,,,,,,,,,0,2,2,2,,,,,,,,,,,,,,,,,"(-0.75, -0.04)",images/min1.png,3,0.054570644279,0.530406346428,[ 0.73499268  0.0546875 ],,,,,,,,,,,,2018_Jul_07_1218,59.8765131963,sequenceLearningTask,001,128,
min1.png,min2.png,min3.png,min4.png,allBlank.png,,,,,,,,,,,,0,2,2,2,,,,,,,,,,,,,,,,,"(0.25, -0.04)",images/min3.png,3,0.0562444897369,0.514634455554,[-0.77306003 -0.01822917],,,,,,,,,,,,2018_Jul_07_1218,59.8765131963,sequenceLearningTask,001,128,
min1.png,min2.png,min3.png,min4.png,allBlank.png,,,,,,,,,,,,0,2,2,2,,,,,,,,,,,,,,,,,"(-0.25, -0.04)",images/min2.png,3,0.0537997727515,0.650059630745,[ 0.33674963  0.0234375 ],,,,,,,,,,,,2018_Jul_07_1218,59.8765131963,sequenceLearningTask,001,128,
min1.png,min2.png,min3.png,min4.png,allBlank.png,,,,,,,,,,,,0,2,2,2,,,,,,,,,,,,,,,,,"(0.75, -0.04)",images/min4.png,3,0.0522149528842,0.451052532881,[-0.284041   -0.09895833],,,,,,,,,,,,2018_Jul_07_1218,59.8765131963,sequenceLearningTask,001,128,
min1.png,min2.png,min3.png,min4.png,allBlank.png,,,,,,,,,,,,0,2,2,2,,,,,,,,,,,,,,,,,"(0.75, -0.04)",images/min4.png,3,0.0557419259567,0.481024212902,[ 0.75256223 -0.203125  ],,,,,,,,,,,,2018_Jul_07_1218,59.8765131963,sequenceLearningTask,001,128,
min1.png,min2.png,min3.png,min4.png,allBlank.png,,,,,,,,,,,,0,2,2,2,,,,,,,,,,,,,,,,,"(-0.25, -0.04)",images/min2.png,3,0.0592861295445,0.88068968989,[ 0.63103953 -0.2890625 ],,,,,,,,,,,,2018_Jul_07_1218,59.8765131963,sequenceLearningTask,001,128,
min1.png,min2.png,min3.png,min4.png,allBlank.png,,,,,,,,,,,,0,2,2,2,,,,,,,,,,,,,,,,,"(0.25, -0.04)",images/min3.png,3,0.0444894175744,0.508779688622,[-0.27964861 -0.13802083],,,,,,,,,,,,2018_Jul_07_1218,59.8765131963,sequenceLearningTask,001,128,
min1.png,min2.png,min3.png,min4.png,allBlank.png,,,,,,,,,,,,0,2,2,2,,,,,,,,,,,,,,,,,"(0.75, -0.04)",images/min4.png,3,0.0547429518774,0.615569388494,[ 0.25329429 -0.2109375 ],,,,,,,,,,,,2018_Jul_07_1218,59.8765131963,sequenceLearningTask,001,128,
min1.png,min2.png,min3.png,min4.png,allBlank.png,,,,,,,,,,,,0,3,3,3,,,,,,,,,,,,,,,,,"(-0.75, -0.04)",images/min1.png,4,0.0536360805854,0.330749813002,[ 0.65885798 -0.109375  ],,,,,,,,,,,,2018_Jul_07_1218,59.8765131963,sequenceLearningTask,001,128,
min1.png,min2.png,min3.png,min4.png,allBlank.png,,,,,,,,,,,,0,3,3,3,,,,,,,,,,,,,,,,,"(0.25, -0.04)",images/min3.png,4,0.0514613122214,0.736835800228,[-0.73206442 -0.24739583],0.251256101998,1,,,,,,,,,,2018_Jul_07_1218,59.8765131963,sequenceLearningTask,001,128,
min1.png,min2.png,min3.png,min4.png,allBlank.png,,,,,,,,,,,,0,3,3,3,,,,,,,,,,,,,,,,,"(-0.25, -0.04)",images/min2.png,4,0.0434395719785,0.944534586859,[ 0.13762811 -0.14322917],,,,,,,,,,,,2018_Jul_07_1218,59.8765131963,sequenceLearningTask,001,128,
min1.png,min2.png,min3.png,min4.png,allBlank.png,,,,,,,,,,,,0,3,3,3,,,,,,,,,,,,,,,,,"(0.75, -0.04)",images/min4.png,4,0.0618953591911,0.307082950952,[-0.28989751 -0.0390625 ],,,,,,,,,,,,2018_Jul_07_1218,59.8765131963,sequenceLearningTask,001,128,
min1.png,min2.png,min3.png,min4.png,allBlank.png,,,,,,,,,,,,0,3,3,3,,,,,,,,,,,,,,,,,"(0.75, -0.04)",images/min4.png,4,0.0490284926491,0.906077577034,[ 0.63543192 -0.08072917],,,,,,,,,,,,2018_Jul_07_1218,59.8765131963,sequenceLearningTask,001,128,
min1.png,min2.png,min3.png,min4.png,allBlank.png,,,,,,,,,,,,0,3,3,3,,,,,,,,,,,,,,,,,"(-0.25, -0.04)",images/min2.png,4,0.0542551572435,0.817262433935,[ 0.66617862 -0.20572917],,,,,,,,,,,,2018_Jul_07_1218,59.8765131963,sequenceLearningTask,001,128,
min1.png,min2.png,min3.png,min4.png,allBlank.png,,,,,,,,,,,,0,3,3,3,,,,,,,,,,,,,,,,,"(0.25, -0.04)",images/min3.png,4,0.0555462335469,0.649760553963,[-0.28550512 -0.19270833],,,,,,,,,,,,2018_Jul_07_1218,59.8765131963,sequenceLearningTask,001,128,
min1.png,min2.png,min3.png,min4.png,allBlank.png,,,,,,,,,,,,0,3,3,3,,,,,,,,,,,,,,,,,"(0.75, -0.04)",images/min4.png,4,0.0540598753141,0.800492389593,[ 0.15519766 -0.13802083],,,,,,,,,,,,2018_Jul_07_1218,59.8765131963,sequenceLearningTask,001,128,
min1.png,min2.png,min3.png,min4.png,allBlank.png,,,,,,,,,,,,0,4,4,4,,,,,,,,,,,,,,,,,"(-0.75, -0.04)",images/min1.png,5,0.0453657249454,0.875225076918,[ 0.75549048 -0.17708333],,,,,,,,,,,,2018_Jul_07_1218,59.8765131963,sequenceLearningTask,001,128,
min1.png,min2.png,min3.png,min4.png,allBlank.png,,,,,,,,,,,,0,4,4,4,,,,,,,,,,,,,,,,,"(0.25, -0.04)",images/min3.png,5,0.0539179266198,0.482533955947,[-0.74816984  0.0078125 ],,,,,,,,,,,,2018_Jul_07_1218,59.8765131963,sequenceLearningTask,001,128,
min1.png,min2.png,min3.png,min4.png,allBlank.png,,,,,,,,,,,,0,4,4,4,,,,,,,,,,,,,,,,,"(-0.25, -0.04)",images/min2.png,5,0.0624639743473,0.574472790002,[ 0.19912152 -0.1328125 ],,,,,,,,,,,,2018_Jul_07_1218,59.8765131963,sequenceLearningTask,001,128,
min1.png,min2.png,min3.png,min4.png,allBlank.png,,,,,,,,,,,,0,4,4,4,,,,,,,,,,,,,,,,,"(0.75, -0.04)",images/min4.png,5,0.0574686944019,0.514407583862,[-0.19619327 -0.0625    ],,,,,,,,,,,,2018_Jul_07_1218,59.8765131963,sequenceLearningTask,001,128,
min1.png,min2.png,min3.png,min4.png,allBlank.png,,,,,,,,,,,,0,4,4,4,,,,,,,,,,,,,,,,,"(0.75, -0.04)",images/min4.png,5,0.0572533098748,0.479356521275,[ 0.66764275 -0.18489583],,,,,,,,,,,,2018_Jul_07_1218,59.8765131963,sequenceLearningTask,001,128,
min1.png,min2.png,min3.png,min4.png,allBlank.png,,,,,,,,,,,,0,4,4,4,,,,,,,,,,,,,,,,,"(-0.25, -0.04)",images/min2.png,5,0.0508742355742,0.58623032365,[ 0.63689605 -0.23177083],,,,,,,,,,,,2018_Jul_07_1218,59.8765131963,sequenceLearningTask,001,128,
min1.png,min2.png,min3.png,min4.png,allBlank.png,,,,,,,,,,,,0,4,4,4,,,,,,,,,,,,,,,,,"(0.25, -0.04)",images/min3.png,5,0.0505706459517,0.519879171392,[-0.28257687 -0.30729167],,,,,,,,,,,,2018_Jul_07_1218,59.8765131963,sequenceLearningTask,001,128,
min1.png,min2.png,min3.png,min4.png,allBlank.png,,,,,,,,,,,,0,4,4,4,,,,,,,,,,,,,,,,,"(0.75, -0.04)",images/min4.png,5,0.0504352613352,0.686208538944,[ 0.22254758 -0.0703125 ],,,,,,,,,,,,2018_Jul_07_1218,59.8765131963,sequenceLearningTask,001,128,
min1.png,min2.png,min3.png,min4.png,allBlank.png,,,,,,,,,,,,0,5,5,5,,,,,,,,,,,,,,,,,"(-0.75, -0.04)",images/min1.png,6,0.0549480799818,0.716078065219,[ 0.69399707 -0.08333333],,,,,,,,,,,,2018_Jul_07_1218,59.8765131963,sequenceLearningTask,001,128,
min1.png,min2.png,min3.png,min4.png,allBlank.png,,,,,,,,,,,,0,5,5,5,,,,,,,,,,,,,,,,,"(0.25, -0.04)",images/min3.png,6,0.0618354617618,0.610566723859,[-0.64421669 -0.11197917],,,,,,,,,,,,2018_Jul_07_1218,59.8765131963,sequenceLearningTask,001,128,
min1.png,min2.png,min3.png,min4.png,allBlank.png,,,,,,,,,,,,0,5,5,5,,,,,,,,,,,,,,,,,"(-0.25, -0.04)",images/min2.png,6,0.0529784397222,0.583815145073,[ 0.28257687 -0.125     ],,,,,,,,,,,,2018_Jul_07_1218,59.8765131963,sequenceLearningTask,001,128,
min1.png,min2.png,min3.png,min4.png,allBlank.png,,,,,,,,,,,,0,5,5,5,,,,,,,,,,,,,,,,,"(0.75, -0.04)",images/min4.png,6,0.0531261321157,0.751722358284,[-0.27086384 -0.15364583],,,,,,,,,,,,2018_Jul_07_1218,59.8765131963,sequenceLearningTask,001,128,
min1.png,min2.png,min3.png,min4.png,allBlank.png,,,,,,,,,,,,0,5,5,5,,,,,,,,,,,,,,,,,"(0.75, -0.04)",images/min4.png,6,0.0520036709495,0.635555021232,[ 0.65885798 -0.0546875 ],,,,,,,,,,,,2018_Jul_07_1218,59.8765131963,sequenceLearningTask,001,128,
min1.png,min2.png,min3.png,min4.png,allBlank.png,,,,,,,,,,,,0,5,5,5,,,,,,,,,,,,,,,,,"(-0.25, -0.04)",images/min2.png,6,0.0609066416509,0.625719538191,[ 0.69692533 -0.00260417],,,,,,,,,,,,2018_Jul_07_1218,59.8765131963,sequenceLearningTask,001,128,
min1.png,min2.png,min3.png,min4.png,allBlank.png,,,,,,,,,,,,0,5,5,5,,,,,,,,,,,,,,,,,"(0.25, -0.04)",images/min3.png,6,0.0526777219493,0.650891220197,[-0.31918009 -0.0703125 ],,,,,,,,,,,,2018_Jul_07_1218,59.8765131963,sequenceLearningTask,001,128,
min1.png,min2.png,min3.png,min4.png,allBlank.png,,,,,,,,,,,,0,5,5,5,,,,,,,,,,,,,,,,,"(0.75, -0.04)",images/min4.png,6,0.0416299316566,1.75241158868,[ 0.08199122 -0.296875  ],,,,,,,,,,,,2018_Jul_07_1218,59.8765131963,sequenceLearningTask,001,128,
min1.png,min2.png,min3.png,min4.png,allBlank.png,,,,,,,,,,,,0,6,6,6,,,,,,,,,,,,,,,,,"(-0.75, -0.04)",images/min1.png,7,0.0554920798168,0.66351439443,[ 0.72913616 -0.1796875 ],,,,,,,,,,,,2018_Jul_07_1218,59.8765131963,sequenceLearningTask,001,128,
min1.png,min2.png,min3.png,min4.png,allBlank.png,,,,,,,,,,,,0,6,6,6,,,,,,,,,,,,,,,,,"(0.25, -0.04)",images/min3.png,7,0.0565632588696,1.03267855081,[-0.74670571 -0.15364583],,,,,,,,,,,,2018_Jul_07_1218,59.8765131963,sequenceLearningTask,001,128,
min1.png,min2.png,min3.png,min4.png,allBlank.png,,,,,,,,,,,,0,6,6,6,,,,,,,,,,,,,,,,,"(-0.25, -0.04)",images/min2.png,7,0.0425185466884,0.628819024074,[ 0.20204978 -0.140625  ],,,,,,,,,,,,2018_Jul_07_1218,59.8765131963,sequenceLearningTask,001,128,
min1.png,min2.png,min3.png,min4.png,allBlank.png,,,,,,,,,,,,0,6,6,6,,,,,,,,,,,,,,,,,"(0.75, -0.04)",images/min4.png,7,0.0414949572878,0.511629328597,[-0.23279649 -0.05989583],,,,,,,,,,,,2018_Jul_07_1218,59.8765131963,sequenceLearningTask,001,128,
min1.png,min2.png,min3.png,min4.png,allBlank.png,,,,,,,,,,,,0,6,6,6,,,,,,,,,,,,,,,,,"(0.75, -0.04)",images/min4.png,7,0.0656172039453,0.521194863133,[ 0.67935578 -0.15885417],,,,,,,,,,,,2018_Jul_07_1218,59.8765131963,sequenceLearningTask,001,128,
min1.png,min2.png,min3.png,min4.png,allBlank.png,,,,,,,,,,,,0,6,6,6,,,,,,,,,,,,,,,,,"(-0.25, -0.04)",images/min2.png,7,0.0513210046338,0.537400805159,[ 0.67642753 -0.20052083],,,,,,,,,,,,2018_Jul_07_1218,59.8765131963,sequenceLearningTask,001,128,
min1.png,min2.png,min3.png,min4.png,allBlank.png,,,,,,,,,,,,0,6,6,6,,,,,,,,,,,,,,,,,"(0.25, -0.04)",images/min3.png,7,0.0439770076191,0.442643921007,[-0.3601757 -0.3515625],,,,,,,,,,,,2018_Jul_07_1218,59.8765131963,sequenceLearningTask,001,128,
min1.png,min2.png,min3.png,min4.png,allBlank.png,,,,,,,,,,,,0,6,6,6,,,,,,,,,,,,,,,,,"(0.75, -0.04)",images/min4.png,7,0.0603199752513,0.743730976945,[ 0.2284041 -0.203125 ],,,,,,,,,,,,2018_Jul_07_1218,59.8765131963,sequenceLearningTask,001,128,
min1.png,min2.png,min3.png,min4.png,allBlank.png,,,,,,,,,,,,0,7,7,7,,,,,,,,,,,,,,,,,"(-0.75, -0.04)",images/min1.png,8,0.0547527980525,0.463765143068,[ 0.6090776 -0.1484375],,,,,,,,,,,,2018_Jul_07_1218,59.8765131963,sequenceLearningTask,001,128,
min1.png,min2.png,min3.png,min4.png,allBlank.png,,,,,,,,,,,,0,7,7,7,,,,,,,,,,,,,,,,,"(0.25, -0.04)",images/min3.png,8,0.0552389516961,0.732672109734,[-0.73645681 -0.1796875 ],,,,,,,,,,,,2018_Jul_07_1218,59.8765131963,sequenceLearningTask,001,128,
min1.png,min2.png,min3.png,min4.png,allBlank.png,,,,,,,,,,,,0,7,7,7,,,,,,,,,,,,,,,,,"(-0.25, -0.04)",images/min2.png,8,0.0515212096507,0.718873140984,[ 0.14348463 -0.15364583],,,,,,,,,,,,2018_Jul_07_1218,59.8765131963,sequenceLearningTask,001,128,
min1.png,min2.png,min3.png,min4.png,allBlank.png,,,,,,,,,,,,0,7,7,7,,,,,,,,,,,,,,,,,"(0.75, -0.04)",images/min4.png,8,0.0522785426583,0.66831193096,[-0.3045388   0.04427083],,,,,,,,,,,,2018_Jul_07_1218,59.8765131963,sequenceLearningTask,001,128,
min1.png,min2.png,min3.png,min4.png,allBlank.png,,,,,,,,,,,,0,7,7,7,,,,,,,,,,,,,,,,,"(0.75, -0.04)",images/min4.png,8,0.0667343315436,0.536167985178,[ 0.60468521 -0.24479167],,,,,,,,,,,,2018_Jul_07_1218,59.8765131963,sequenceLearningTask,001,128,
min1.png,min2.png,min3.png,min4.png,allBlank.png,,,,,,,,,,,,0,7,7,7,,,,,,,,,,,,,,,,,"(-0.25, -0.04)",images/min2.png,8,0.0662038702285,0.520701735048,[ 0.72913616  0.00260417],,,,,,,,,,,,2018_Jul_07_1218,59.8765131963,sequenceLearningTask,001,128,
min1.png,min2.png,min3.png,min4.png,allBlank.png,,,,,,,,,,,,0,7,7,7,,,,,,,,,,,,,,,,,"(0.25, -0.04)",images/min3.png,8,0.0541628495557,0.53249414044,[-0.36749634 -0.10677083],,,,,,,,,,,,2018_Jul_07_1218,59.8765131963,sequenceLearningTask,001,128,
min1.png,min2.png,min3.png,min4.png,allBlank.png,,,,,,,,,,,,0,7,7,7,,,,,,,,,,,,,,,,,"(0.75, -0.04)",images/min4.png,8,0.0638969994616,0.622698411113,[ 0.25475842 -0.234375  ],,,,,,,,,,,,2018_Jul_07_1218,59.8765131963,sequenceLearningTask,001,128,
min1.png,min2.png,min3.png,min4.png,allBlank.png,,,,,,,,,,,,0,8,8,8,,,,,,,,,,,,,,,,,"(-0.75, -0.04)",images/min1.png,9,0.0488656209782,0.838397194515,[ 0.60761347 -0.1953125 ],,,,,,,,,,,,2018_Jul_07_1218,59.8765131963,sequenceLearningTask,001,128,
min1.png,min2.png,min3.png,min4.png,allBlank.png,,,,,,,,,,,,0,8,8,8,,,,,,,,,,,,,,,,,"(0.25, -0.04)",images/min3.png,9,0.0509476714069,0.702795609017,[-0.68667643 -0.3515625 ],,,,,,,,,,,,2018_Jul_07_1218,59.8765131963,sequenceLearningTask,001,128,
min1.png,min2.png,min3.png,min4.png,allBlank.png,,,,,,,,,,,,0,8,8,8,,,,,,,,,,,,,,,,,"(-0.25, -0.04)",images/min2.png,9,0.0658247935353,0.587354015443,[ 0.18301611 -0.14322917],,,,,,,,,,,,2018_Jul_07_1218,59.8765131963,sequenceLearningTask,001,128,
min1.png,min2.png,min3.png,min4.png,allBlank.png,,,,,,,,,,,,0,8,8,8,,,,,,,,,,,,,,,,,"(0.75, -0.04)",images/min4.png,9,0.0459146478679,0.708488735021,[-0.25768668  0.06510417],,,,,,,,,,,,2018_Jul_07_1218,59.8765131963,sequenceLearningTask,001,128,
min1.png,min2.png,min3.png,min4.png,allBlank.png,,,,,,,,,,,,0,8,8,8,,,,,,,,,,,,,,,,,"(0.75, -0.04)",images/min4.png,9,0.0553054132033,0.78272542241,[ 0.68814056 -0.05208333],,,,,,,,,,,,2018_Jul_07_1218,59.8765131963,sequenceLearningTask,001,128,
min1.png,min2.png,min3.png,min4.png,allBlank.png,,,,,,,,,,,,0,8,8,8,,,,,,,,,,,,,,,,,"(-0.25, -0.04)",images/min2.png,9,0.05635279743,0.731390469125,[ 0.71742313 -0.05208333],0.46407939936,1,,,,,,,,,,2018_Jul_07_1218,59.8765131963,sequenceLearningTask,001,128,
min1.png,min2.png,min3.png,min4.png,allBlank.png,,,,,,,,,,,,0,8,8,8,,,,,,,,,,,,,,,,,"(0.25, -0.04)",images/min3.png,9,0.0460951605346,0.708208940225,[-0.36310395 -0.0625    ],,,,,,,,,,,,2018_Jul_07_1218,59.8765131963,sequenceLearningTask,001,128,
min1.png,min2.png,min3.png,min4.png,allBlank.png,,,,,,,,,,,,0,8,8,8,,,,,,,,,,,,,,,,,"(0.75, -0.04)",images/min4.png,9,0.0591811039485,0.527412706637,[ 0.09809663 -0.23958333],,,,,,,,,,,,2018_Jul_07_1218,59.8765131963,sequenceLearningTask,001,128,
min1.png,min2.png,min3.png,min4.png,allBlank.png,,,,,,,,,,,,0,9,9,9,,,,,,,,,,,,,,,,,"(-0.75, -0.04)",images/min1.png,10,0.0540344393812,0.515092301532,[ 0.69692533 -0.06510417],,,,,,,,,,,,2018_Jul_07_1218,59.8765131963,sequenceLearningTask,001,128,
min1.png,min2.png,min3.png,min4.png,allBlank.png,,,,,,,,,,,,0,9,9,9,,,,,,,,,,,,,,,,,"(0.25, -0.04)",images/min3.png,10,0.0525702348677,0.684697155026,[-0.7818448  -0.11458333],,,,,,,,,,,,2018_Jul_07_1218,59.8765131963,sequenceLearningTask,001,128,
min1.png,min2.png,min3.png,min4.png,allBlank.png,,,,,,,,,,,,0,9,9,9,,,,,,,,,,,,,,,,,"(-0.25, -0.04)",images/min2.png,10,0.0457025453215,0.658180242754,[ 0.33089312  0.01302083],,,,,,,,,,,,2018_Jul_07_1218,59.8765131963,sequenceLearningTask,001,128,
min1.png,min2.png,min3.png,min4.png,allBlank.png,,,,,,,,,,,,0,9,9,9,,,,,,,,,,,,,,,,,"(0.75, -0.04)",images/min4.png,10,0.0560196693987,0.61431564542,[-0.22693997 -0.33072917],,,,,,,,,,,,2018_Jul_07_1218,59.8765131963,sequenceLearningTask,001,128,
min1.png,min2.png,min3.png,min4.png,allBlank.png,,,,,,,,,,,,0,9,9,9,,,,,,,,,,,,,,,,,"(0.75, -0.04)",images/min4.png,10,0.0518186454428,0.719179602456,[ 0.71742313 -0.19010417],,,,,,,,,,,,2018_Jul_07_1218,59.8765131963,sequenceLearningTask,001,128,
min1.png,min2.png,min3.png,min4.png,allBlank.png,,,,,,,,,,,,0,9,9,9,,,,,,,,,,,,,,,,,"(-0.25, -0.04)",images/min2.png,10,0.0756549433572,0.527368399082,[ 0.70863836 -0.11197917],,,,,,,,,,,,2018_Jul_07_1218,59.8765131963,sequenceLearningTask,001,128,
min1.png,min2.png,min3.png,min4.png,allBlank.png,,,,,,,,,,,,0,9,9,9,,,,,,,,,,,,,,,,,"(0.25, -0.04)",images/min3.png,10,0.0466457244474,0.657642807113,[-0.43338214 -0.23177083],,,,,,,,,,,,2018_Jul_07_1218,59.8765131963,sequenceLearningTask,001,128,
min1.png,min2.png,min3.png,min4.png,allBlank.png,,,,,,,,,,,,0,9,9,9,,,,,,,,,,,,,,,,,"(0.75, -0.04)",images/min4.png,10,0.0519089017762,0.55152551725,[ 0.14934114 -0.1015625 ],,,,,,,,,,,,2018_Jul_07_1218,59.8765131963,sequenceLearningTask,001,128,
min1.png,min2.png,min3.png,min4.png,images/allBlank.png,"['num_7', 'num_4', 'num_1', 'num_0']",['num_0'],num_0,[4],'num_0',images/min4.png,"[(0.45, 0.79)]",,,,,0,-1,-1,0,0,0,0,3,,,,,,,,,,,,,"(0.25, 0.04)",images/min3.png,1,0.0845944269095,1.29270100815,[ 0.64568082 -0.1484375 ],0.655698192539,1,,,,,,['num_0'],,,,2018_Jul_07_1218,59.8765131963,sequenceLearningTask,001,128,
min1.png,min2.png,min3.png,min4.png,images/allBlank.png,"['num_7', 'num_4', 'num_1', 'num_0']",['num_0'],num_0,[4],'num_0',images/min4.png,"[(0.45, 0.79)]",,,,,0,-1,-1,0,0,0,0,3,,,,,,,,,,,,,"(-0.25, 0.04)",images/min2.png,1,0.0609665390803,0.474655805272,[ 0.0556369 -0.203125 ],,,,,,,,['num_0'],,,,2018_Jul_07_1218,59.8765131963,sequenceLearningTask,001,128,
min1.png,min2.png,min3.png,min4.png,images/allBlank.png,"['num_7', 'num_4', 'num_1', 'num_0']",['num_0'],num_0,[4],'num_0',images/min4.png,"[(0.45, 0.79)]",,,,,0,-1,-1,0,0,0,0,3,,,,,,,,,,,,,"(0.75, 0.04)",images/min4.png,1,0.0520139273722,0.619227643358,[-0.33382138 -0.44010417],,,,,,,,['num_0'],,,,2018_Jul_07_1218,59.8765131963,sequenceLearningTask,001,128,
min1.png,min2.png,min3.png,min4.png,images/allBlank.png,"['num_7', 'num_4', 'num_1', 'num_0']",['num_0'],num_0,[4],'num_0',images/min4.png,"[(0.45, 0.79)]",,,,,0,-1,-1,0,0,0,0,3,,,,,,,,,,,,,"(0.75, 0.04)",images/min4.png,1,0.0597480781144,0.558922027121,[ 0.69253294 -0.11197917],,,,,,,,['num_0'],,,,2018_Jul_07_1218,59.8765131963,sequenceLearningTask,001,128,
min1.png,min2.png,min3.png,min4.png,images/allBlank.png,"['num_7', 'num_4', 'num_1', 'num_0']",['num_1'],num_1,[3],'num_1',images/min3.png,"[(0.45, 0.79)]",,,,,0,-1,-1,0,0,1,1,2,,,,,,,,,,,,,"(0.75, 0.04)",images/min4.png,2,0.0498334155418,0.533838550211,[ 0.65300146 -0.14322917],,,,,,,,['num_1'],,,,2018_Jul_07_1218,59.8765131963,sequenceLearningTask,001,128,
min1.png,min2.png,min3.png,min4.png,images/allBlank.png,"['num_7', 'num_4', 'num_1', 'num_0']",['num_1'],num_1,[3],'num_1',images/min3.png,"[(0.45, 0.79)]",,,,,0,-1,-1,0,0,1,1,2,,,,,,,,,,,,,"(0.75, 0.04)",images/min4.png,2,0.0597505395999,0.610085083055,[ 0.75841874 -0.07552083],,,,,,,,['num_1'],,,,2018_Jul_07_1218,59.8765131963,sequenceLearningTask,001,128,
min1.png,min2.png,min3.png,min4.png,images/allBlank.png,"['num_7', 'num_4', 'num_1', 'num_0']",['num_1'],num_1,[3],'num_1',images/min3.png,"[(0.45, 0.79)]",,,,,0,-1,-1,0,0,1,1,2,,,,,,,,,,,,,"(0.75, 0.04)",images/min4.png,2,0.0587433605688,0.494646771462,[ 0.73499268 -0.20052083],,,,,,,,['num_1'],,,,2018_Jul_07_1218,59.8765131963,sequenceLearningTask,001,128,
min1.png,min2.png,min3.png,min4.png,images/allBlank.png,"['num_7', 'num_4', 'num_1', 'num_0']",['num_1'],num_1,[3],'num_1',images/min3.png,"[(0.45, 0.79)]",,,,,0,-1,-1,0,0,1,1,2,,,,,,,,,,,,,"(-0.25, 0.04)",images/min2.png,2,0.0244738361798,0.747630052269,[ 0.7057101  -0.16927083],,,,,,,,['num_1'],,,,2018_Jul_07_1218,59.8765131963,sequenceLearningTask,001,128,
min1.png,min2.png,min3.png,min4.png,images/allBlank.png,"['num_7', 'num_4', 'num_1', 'num_0']",['num_7'],num_7,[1],'num_7',images/min1.png,"[(0.45, 0.79)]",,,,,0,-1,-1,0,0,2,2,0,,,,,,,,,,,,,"(0.75, 0.04)",images/min4.png,3,0.0642637686105,0.486482262029,[-0.22254758 -0.19791667],,,,,,,,['num_7'],,,,2018_Jul_07_1218,59.8765131963,sequenceLearningTask,001,128,
min1.png,min2.png,min3.png,min4.png,images/allBlank.png,"['num_7', 'num_4', 'num_1', 'num_0']",['num_7'],num_7,[1],'num_7',images/min1.png,"[(0.45, 0.79)]",,,,,0,-1,-1,0,0,2,2,0,,,,,,,,,,,,,"(0.25, 0.04)",images/min3.png,3,0.05752941221,0.462126989965,[ 0.79941435 -0.14322917],,,,,,,,['num_7'],,,,2018_Jul_07_1218,59.8765131963,sequenceLearningTask,001,128,
min1.png,min2.png,min3.png,min4.png,images/allBlank.png,"['num_7', 'num_4', 'num_1', 'num_0']",['num_7'],num_7,[1],'num_7',images/min1.png,"[(0.45, 0.79)]",,,,,0,-1,-1,0,0,2,2,0,,,,,,,,,,,,,"(-0.25, 0.04)",images/min2.png,3,0.0581497197272,0.561639154213,[ 0.28989751 -0.09895833],,,,,,,,['num_7'],,,,2018_Jul_07_1218,59.8765131963,sequenceLearningTask,001,128,
min1.png,min2.png,min3.png,min4.png,images/allBlank.png,"['num_7', 'num_4', 'num_1', 'num_0']",['num_7'],num_7,[1],'num_7',images/min1.png,"[(0.45, 0.79)]",,,,,0,-1,-1,0,0,2,2,0,,,,,,,,,,,,,"(0.25, 0.04)",images/min3.png,3,0.0508697227342,0.55218274775,[-0.24450952 -0.01822917],,,,,,,,['num_7'],,,,2018_Jul_07_1218,59.8765131963,sequenceLearningTask,001,128,
min1.png,min2.png,min3.png,min4.png,images/allBlank.png,"['num_7', 'num_4', 'num_1', 'num_0']",['num_4'],num_4,[2],'num_4',images/min2.png,"[(0.45, 0.79)]",,,,,0,-1,-1,0,0,3,3,1,,,,,,,,,,,,,"(-0.75, 0.04)",images/min1.png,4,0.0711478682933,0.795714955661,[ 0.14055637 -0.04427083],,,,,,,,['num_4'],,,,2018_Jul_07_1218,59.8765131963,sequenceLearningTask,001,128,
min1.png,min2.png,min3.png,min4.png,images/allBlank.png,"['num_7', 'num_4', 'num_1', 'num_0']",['num_4'],num_4,[2],'num_4',images/min2.png,"[(0.45, 0.79)]",,,,,0,-1,-1,0,0,3,3,1,,,,,,,,,,,,,"(0.75, 0.04)",images/min4.png,4,0.0499281847151,0.503105024341,[-0.72620791 -0.15364583],,,,,,,,['num_4'],,,,2018_Jul_07_1218,59.8765131963,sequenceLearningTask,001,128,
min1.png,min2.png,min3.png,min4.png,images/allBlank.png,"['num_7', 'num_4', 'num_1', 'num_0']",['num_4'],num_4,[2],'num_4',images/min2.png,"[(0.45, 0.79)]",,,,,0,-1,-1,0,0,3,3,1,,,,,,,,,,,,,"(-0.75, 0.04)",images/min1.png,4,0.0544167981716,0.665724444785,[ 0.66471449  0.02083333],,,,,,,,['num_4'],,,,2018_Jul_07_1218,59.8765131963,sequenceLearningTask,001,128,
min1.png,min2.png,min3.png,min4.png,images/allBlank.png,"['num_7', 'num_4', 'num_1', 'num_0']",['num_4'],num_4,[2],'num_4',images/min2.png,"[(0.45, 0.79)]",,,,,0,-1,-1,0,0,3,3,1,,,,,,,,,,,,,"(-0.25, 0.04)",images/min2.png,4,0.0661886907183,0.469944012351,[-0.69985359 -0.23958333],,,,,,,,['num_4'],,,,2018_Jul_07_1218,59.8765131963,sequenceLearningTask,001,128,
min1.png,min2.png,min3.png,min4.png,images/allBlank.png,"['num_7', 'num_4', 'num_1', 'num_0']",['num_0'],num_0,[4],'num_0',images/min4.png,"[(0.45, 0.79)]",,,,,0,-1,-1,0,1,0,4,3,,,,,,,,,,,,,"(0.25, 0.04)",images/min3.png,5,0.0666350496467,0.500838768901,[-0.25768668 -0.16666667],,,,,,,,['num_0'],,,,2018_Jul_07_1218,59.8765131963,sequenceLearningTask,001,128,
min1.png,min2.png,min3.png,min4.png,images/allBlank.png,"['num_7', 'num_4', 'num_1', 'num_0']",['num_0'],num_0,[4],'num_0',images/min4.png,"[(0.45, 0.79)]",,,,,0,-1,-1,0,1,0,4,3,,,,,,,,,,,,,"(-0.25, 0.04)",images/min2.png,5,0.0648922810797,0.721633345005,[ 0.18448023 -0.2109375 ],,,,,,,,['num_0'],,,,2018_Jul_07_1218,59.8765131963,sequenceLearningTask,001,128,
min1.png,min2.png,min3.png,min4.png,images/allBlank.png,"['num_7', 'num_4', 'num_1', 'num_0']",['num_0'],num_0,[4],'num_0',images/min4.png,"[(0.45, 0.79)]",,,,,0,-1,-1,0,1,0,4,3,,,,,,,,,,,,,"(0.25, 0.04)",images/min3.png,5,0.0570153612643,0.663034804864,[-0.32650073 -0.08072917],,,,,,,,['num_0'],,,,2018_Jul_07_1218,59.8765131963,sequenceLearningTask,001,128,
min1.png,min2.png,min3.png,min4.png,images/allBlank.png,"['num_7', 'num_4', 'num_1', 'num_0']",['num_0'],num_0,[4],'num_0',images/min4.png,"[(0.45, 0.79)]",,,,,0,-1,-1,0,1,0,4,3,,,,,,,,,,,,,"(-0.25, 0.04)",images/min2.png,5,0.0559035667684,0.815926229348,[ 0.20937042 -0.06510417],,,,,,,,['num_0'],,,,2018_Jul_07_1218,59.8765131963,sequenceLearningTask,001,128,
min1.png,min2.png,min3.png,min4.png,images/allBlank.png,"['num_7', 'num_4', 'num_1', 'num_0']",['num_1'],num_1,[3],'num_1',images/min3.png,"[(0.45, 0.79)]",,,,,0,-1,-1,0,1,1,5,2,,,,,,,,,,,,,"(-0.75, 0.04)",images/min1.png,6,0.0549082851503,0.847979139187,[-0.29721816 -0.125     ],,,,,,,,['num_1'],,,,2018_Jul_07_1218,59.8765131963,sequenceLearningTask,001,128,
min1.png,min2.png,min3.png,min4.png,images/allBlank.png,"['num_7', 'num_4', 'num_1', 'num_0']",['num_1'],num_1,[3],'num_1',images/min3.png,"[(0.45, 0.79)]",,,,,0,-1,-1,0,1,1,5,2,,,,,,,,,,,,,"(0.25, 0.04)",images/min3.png,6,0.0535511574708,0.599870933453,[-0.84919473 -0.0546875 ],,,,,,,,['num_1'],,,,2018_Jul_07_1218,59.8765131963,sequenceLearningTask,001,128,
min1.png,min2.png,min3.png,min4.png,images/allBlank.png,"['num_7', 'num_4', 'num_1', 'num_0']",['num_1'],num_1,[3],'num_1',images/min3.png,"[(0.45, 0.79)]",,,,,0,-1,-1,0,1,1,5,2,,,,,,,,,,,,,"(0.25, 0.04)",images/min3.png,6,0.0438588538673,0.96068596479,[ 0.24743777 -0.0234375 ],,,,,,,,['num_1'],,,,2018_Jul_07_1218,59.8765131963,sequenceLearningTask,001,128,
min1.png,min2.png,min3.png,min4.png,images/allBlank.png,"['num_7', 'num_4', 'num_1', 'num_0']",['num_1'],num_1,[3],'num_1',images/min3.png,"[(0.45, 0.79)]",,,,,0,-1,-1,0,1,1,5,2,,,,,,,,,,,,,"(-0.75, 0.04)",images/min1.png,6,0.0494141335366,0.874097282416,[ 0.21669107  0.00520833],,,,,,,,['num_1'],,,,2018_Jul_07_1218,59.8765131963,sequenceLearningTask,001,128,
min1.png,min2.png,min3.png,min4.png,images/allBlank.png,"['num_7', 'num_4', 'num_1', 'num_0']",['num_4'],num_4,[2],'num_4',images/min2.png,"[(0.45, 0.79)]",,,,,0,-1,-1,0,1,2,6,1,,,,,,,,,,,,,"(0.25, 0.04)",images/min3.png,7,0.0609041801654,0.539089009631,[-0.72913616 -0.08072917],,,,,,,,['num_4'],,,,2018_Jul_07_1218,59.8765131963,sequenceLearningTask,001,128,
min1.png,min2.png,min3.png,min4.png,images/allBlank.png,"['num_7', 'num_4', 'num_1', 'num_0']",['num_4'],num_4,[2],'num_4',images/min2.png,"[(0.45, 0.79)]",,,,,0,-1,-1,0,1,2,6,1,,,,,,,,,,,,,"(-0.25, 0.04)",images/min2.png,7,0.0603351547616,0.592513397918,[ 0.36749634  0.11458333],,,,,,,,['num_4'],,,,2018_Jul_07_1218,59.8765131963,sequenceLearningTask,001,128,
min1.png,min2.png,min3.png,min4.png,images/allBlank.png,"['num_7', 'num_4', 'num_1', 'num_0']",['num_4'],num_4,[2],'num_4',images/min2.png,"[(0.45, 0.79)]",,,,,0,-1,-1,0,1,2,6,1,,,,,,,,,,,,,"(0.25, 0.04)",images/min3.png,7,0.0559002847876,0.835398631636,[-0.29575403  0.0234375 ],,,,,,,,['num_4'],,,,2018_Jul_07_1218,59.8765131963,sequenceLearningTask,001,128,
min1.png,min2.png,min3.png,min4.png,images/allBlank.png,"['num_7', 'num_4', 'num_1', 'num_0']",['num_4'],num_4,[2],'num_4',images/min2.png,"[(0.45, 0.79)]",,,,,0,-1,-1,0,1,2,6,1,,,,,,,,,,,,,"(0.25, 0.04)",images/min3.png,7,0.054451259668,0.666535111144,[ 0.13616398 -0.01302083],,,,,,,,['num_4'],,,,2018_Jul_07_1218,59.8765131963,sequenceLearningTask,001,128,
min1.png,min2.png,min3.png,min4.png,images/allBlank.png,"['num_7', 'num_4', 'num_1', 'num_0']",['num_7'],num_7,[1],'num_7',images/min1.png,"[(0.45, 0.79)]",,,,,0,-1,-1,0,1,3,7,0,,,,,,,,,,,,,"(-0.25, 0.04)",images/min2.png,8,0.0471326985862,0.587792579317,[ 0.23279649 -0.0078125 ],,,,,,,,['num_7'],,,,2018_Jul_07_1218,59.8765131963,sequenceLearningTask,001,128,
min1.png,min2.png,min3.png,min4.png,images/allBlank.png,"['num_7', 'num_4', 'num_1', 'num_0']",['num_7'],num_7,[1],'num_7',images/min1.png,"[(0.45, 0.79)]",,,,,0,-1,-1,0,1,3,7,0,,,,,,,,,,,,,"(-0.75, 0.04)",images/min1.png,8,0.0510202867445,1.17165941675,[-0.35285505  0.01822917],,,,,,,,['num_7'],,,,2018_Jul_07_1218,59.8765131963,sequenceLearningTask,001,128,
min1.png,min2.png,min3.png,min4.png,images/allBlank.png,"['num_7', 'num_4', 'num_1', 'num_0']",['num_7'],num_7,[1],'num_7',images/min1.png,"[(0.45, 0.79)]",,,,,0,-1,-1,0,1,3,7,0,,,,,,,,,,,,,"(0.75, 0.04)",images/min4.png,8,0.0555269515608,0.581018428318,[-0.64714495  0.09114583],,,,,,,,['num_7'],,,,2018_Jul_07_1218,59.8765131963,sequenceLearningTask,001,128,
min1.png,min2.png,min3.png,min4.png,images/allBlank.png,"['num_7', 'num_4', 'num_1', 'num_0']",['num_7'],num_7,[1],'num_7',images/min1.png,"[(0.45, 0.79)]",,,,,0,-1,-1,0,1,3,7,0,,,,,,,,,,,,,"(-0.75, 0.04)",images/min1.png,8,0.0558723873692,0.699737559073,[ 0.59736457  0.00260417],,,,,,,,['num_7'],,,,2018_Jul_07_1218,59.8765131963,sequenceLearningTask,001,128,
min1.png,min2.png,min3.png,min4.png,images/allBlank.png,"['num_7', 'num_4', 'num_1', 'num_0']",['num_7'],num_7,[1],'num_7',images/min1.png,"[(0.45, 0.79)]",,,,,0,-1,-1,0,2,0,8,0,,,,,,,,,,,,,"(-0.25, 0.04)",images/min2.png,9,0.0473694164539,0.504271382815,[-0.85358712 -0.2265625 ],,,,,,,,['num_7'],,,,2018_Jul_07_1218,59.8765131963,sequenceLearningTask,001,128,
min1.png,min2.png,min3.png,min4.png,images/allBlank.png,"['num_7', 'num_4', 'num_1', 'num_0']",['num_7'],num_7,[1],'num_7',images/min1.png,"[(0.45, 0.79)]",,,,,0,-1,-1,0,2,0,8,0,,,,,,,,,,,,,"(0.25, 0.04)",images/min3.png,9,0.058498847764,0.444395715138,[-0.25329429 -0.0078125 ],,,,,,,,['num_7'],,,,2018_Jul_07_1218,59.8765131963,sequenceLearningTask,001,128,
min1.png,min2.png,min3.png,min4.png,images/allBlank.png,"['num_7', 'num_4', 'num_1', 'num_0']",['num_7'],num_7,[1],'num_7',images/min1.png,"[(0.45, 0.79)]",,,,,0,-1,-1,0,2,0,8,0,,,,,,,,,,,,,"(-0.25, 0.04)",images/min2.png,9,0.0547072596382,0.833070017165,[ 0.18155198 -0.01302083],,,,,,,,['num_7'],,,,2018_Jul_07_1218,59.8765131963,sequenceLearningTask,001,128,
min1.png,min2.png,min3.png,min4.png,images/allBlank.png,"['num_7', 'num_4', 'num_1', 'num_0']",['num_7'],num_7,[1],'num_7',images/min1.png,"[(0.45, 0.79)]",,,,,0,-1,-1,0,2,0,8,0,,,,,,,,,,,,,"(-0.75, 0.04)",images/min1.png,9,0.045854340191,0.841483962489,[-0.35724744 -0.19010417],,,,,,,,['num_7'],,,,2018_Jul_07_1218,59.8765131963,sequenceLearningTask,001,128,
min1.png,min2.png,min3.png,min4.png,images/allBlank.png,"['num_7', 'num_4', 'num_1', 'num_0']",['num_0'],num_0,[4],'num_0',images/min4.png,"[(0.45, 0.79)]",,,,,0,-1,-1,0,2,1,9,3,,,,,,,,,,,,,"(-0.25, 0.04)",images/min2.png,10,0.0527011066442,0.61580528575,[-0.71742313 -0.11979167],,,,,,,,['num_0'],,,,2018_Jul_07_1218,59.8765131963,sequenceLearningTask,001,128,
min1.png,min2.png,min3.png,min4.png,images/allBlank.png,"['num_7', 'num_4', 'num_1', 'num_0']",['num_0'],num_0,[4],'num_0',images/min4.png,"[(0.45, 0.79)]",,,,,0,-1,-1,0,2,1,9,3,,,,,,,,,,,,,"(0.75, 0.04)",images/min4.png,10,0.0598924881779,0.693644433399,[-0.39531479 -0.03385417],,,,,,,,['num_0'],,,,2018_Jul_07_1218,59.8765131963,sequenceLearningTask,001,128,
min1.png,min2.png,min3.png,min4.png,images/allBlank.png,"['num_7', 'num_4', 'num_1', 'num_0']",['num_0'],num_0,[4],'num_0',images/min4.png,"[(0.45, 0.79)]",,,,,0,-1,-1,0,2,1,9,3,,,,,,,,,,,,,"(-0.75, 0.04)",images/min1.png,10,0.0601956675528,0.57643996866,[ 0.72913616  0.015625  ],,,,,,,,['num_0'],,,,2018_Jul_07_1218,59.8765131963,sequenceLearningTask,001,128,
min1.png,min2.png,min3.png,min4.png,images/allBlank.png,"['num_7', 'num_4', 'num_1', 'num_0']",['num_0'],num_0,[4],'num_0',images/min4.png,"[(0.45, 0.79)]",,,,,0,-1,-1,0,2,1,9,3,,,,,,,,,,,,,"(0.25, 0.04)",images/min3.png,10,0.0522691068472,0.885636559688,[-0.63250366 -0.09895833],0.400278810062,1,,,,,,['num_0'],,,,2018_Jul_07_1218,59.8765131963,sequenceLearningTask,001,128,
min1.png,min2.png,min3.png,min4.png,images/allBlank.png,"['num_7', 'num_4', 'num_1', 'num_0']",['num_1'],num_1,[3],'num_1',images/min3.png,"[(0.45, 0.79)]",,,,,0,-1,-1,0,2,2,10,2,,,,,,,,,,,,,"(-0.75, 0.04)",images/min1.png,11,0.0644766915357,0.669888956007,[ 0.24158126 -0.05729167],,,,,,,,['num_1'],,,,2018_Jul_07_1218,59.8765131963,sequenceLearningTask,001,128,
min1.png,min2.png,min3.png,min4.png,images/allBlank.png,"['num_7', 'num_4', 'num_1', 'num_0']",['num_1'],num_1,[3],'num_1',images/min3.png,"[(0.45, 0.79)]",,,,,0,-1,-1,0,2,2,10,2,,,,,,,,,,,,,"(0.25, 0.04)",images/min3.png,11,0.052461516927,0.467298679985,[-0.63250366 -0.13020833],,,,,,,,['num_1'],,,,2018_Jul_07_1218,59.8765131963,sequenceLearningTask,001,128,
min1.png,min2.png,min3.png,min4.png,images/allBlank.png,"['num_7', 'num_4', 'num_1', 'num_0']",['num_1'],num_1,[3],'num_1',images/min3.png,"[(0.45, 0.79)]",,,,,0,-1,-1,0,2,2,10,2,,,,,,,,,,,,,"(0.75, 0.04)",images/min4.png,11,0.0604848982766,0.609884057427,[ 0.24304539 -0.17447917],,,,,,,,['num_1'],,,,2018_Jul_07_1218,59.8765131963,sequenceLearningTask,001,128,
min1.png,min2.png,min3.png,min4.png,images/allBlank.png,"['num_7', 'num_4', 'num_1', 'num_0']",['num_1'],num_1,[3],'num_1',images/min3.png,"[(0.45, 0.79)]",,,,,0,-1,-1,0,2,2,10,2,,,,,,,,,,,,,"(0.25, 0.04)",images/min3.png,11,0.0525374143617,0.517392197973,[ 0.62811127 -0.2109375 ],,,,,,,,['num_1'],,,,2018_Jul_07_1218,59.8765131963,sequenceLearningTask,001,128,
min1.png,min2.png,min3.png,min4.png,images/allBlank.png,"['num_7', 'num_4', 'num_1', 'num_0']",['num_4'],num_4,[2],'num_4',images/min2.png,"[(0.45, 0.79)]",,,,,0,-1,-1,0,2,3,11,1,,,,,,,,,,,,,"(-0.75, 0.04)",images/min1.png,12,0.0534096191404,0.598608164699,[ 0.20497804 -0.02864583],,,,,,,,['num_4'],,,,2018_Jul_07_1218,59.8765131963,sequenceLearningTask,001,128,
min1.png,min2.png,min3.png,min4.png,images/allBlank.png,"['num_7', 'num_4', 'num_1', 'num_0']",['num_4'],num_4,[2],'num_4',images/min2.png,"[(0.45, 0.79)]",,,,,0,-1,-1,0,2,3,11,1,,,,,,,,,,,,,"(-0.75, 0.04)",images/min1.png,12,0.0568303356413,0.462367400061,[-0.66471449  0.00520833],,,,,,,,['num_4'],,,,2018_Jul_07_1218,59.8765131963,sequenceLearningTask,001,128,
min1.png,min2.png,min3.png,min4.png,images/allBlank.png,"['num_7', 'num_4', 'num_1', 'num_0']",['num_4'],num_4,[2],'num_4',images/min2.png,"[(0.45, 0.79)]",,,,,0,-1,-1,0,2,3,11,1,,,,,,,,,,,,,"(0.25, 0.04)",images/min3.png,12,0.0528007987887,0.702837865567,[-0.73792094  0.        ],,,,,,,,['num_4'],,,,2018_Jul_07_1218,59.8765131963,sequenceLearningTask,001,128,
min1.png,min2.png,min3.png,min4.png,images/allBlank.png,"['num_7', 'num_4', 'num_1', 'num_0']",['num_4'],num_4,[2],'num_4',images/min2.png,"[(0.45, 0.79)]",,,,,0,-1,-1,0,2,3,11,1,,,,,,,,,,,,,"(0.25, 0.04)",images/min3.png,12,0.0535019267118,0.432099925238,[ 0.21376281 -0.21875   ],,,,,,,,['num_4'],,,,2018_Jul_07_1218,59.8765131963,sequenceLearningTask,001,128,
min1.png,min2.png,min3.png,min4.png,images/allBlank.png,"['num_7', 'num_4', 'num_1', 'num_0']",['num_1'],num_1,[3],'num_1',images/min3.png,"[(0.45, 0.79)]",,,,,0,-1,-1,0,3,0,12,2,,,,,,,,,,,,,"(0.25, 0.04)",images/min3.png,13,0.0522321837489,0.535647370038,[ 0.28843338  0.046875  ],,,,,,,,['num_1'],,,,2018_Jul_07_1218,59.8765131963,sequenceLearningTask,001,128,
min1.png,min2.png,min3.png,min4.png,images/allBlank.png,"['num_7', 'num_4', 'num_1', 'num_0']",['num_1'],num_1,[3],'num_1',images/min3.png,"[(0.45, 0.79)]",,,,,0,-1,-1,0,3,0,12,2,,,,,,,,,,,,,"(0.75, 0.04)",images/min4.png,13,0.0550432595192,0.548230339191,[ 0.238653 -0.078125],,,,,,,,['num_1'],,,,2018_Jul_07_1218,59.8765131963,sequenceLearningTask,001,128,
min1.png,min2.png,min3.png,min4.png,images/allBlank.png,"['num_7', 'num_4', 'num_1', 'num_0']",['num_1'],num_1,[3],'num_1',images/min3.png,"[(0.45, 0.79)]",,,,,0,-1,-1,0,3,0,12,2,,,,,,,,,,,,,"(0.75, 0.04)",images/min4.png,13,0.0532738243928,0.416240239516,[ 0.86090776 -0.06770833],,,,,,,,['num_1'],,,,2018_Jul_07_1218,59.8765131963,sequenceLearningTask,001,128,
min1.png,min2.png,min3.png,min4.png,images/allBlank.png,"['num_7', 'num_4', 'num_1', 'num_0']",['num_1'],num_1,[3],'num_1',images/min3.png,"[(0.45, 0.79)]",,,,,0,-1,-1,0,3,0,12,2,,,,,,,,,,,,,"(-0.75, 0.04)",images/min1.png,13,0.0519130043685,0.701874994091,[ 0.72035139 -0.19270833],,,,,,,,['num_1'],,,,2018_Jul_07_1218,59.8765131963,sequenceLearningTask,001,128,
min1.png,min2.png,min3.png,min4.png,images/allBlank.png,"['num_7', 'num_4', 'num_1', 'num_0']",['num_0'],num_0,[4],'num_0',images/min4.png,"[(0.45, 0.79)]",,,,,0,-1,-1,0,3,1,13,3,,,,,,,,,,,,,"(0.25, 0.04)",images/min3.png,14,0.0503511588322,0.701155404677,[-0.63250366 -0.1953125 ],,,,,,,,['num_0'],,,,2018_Jul_07_1218,59.8765131963,sequenceLearningTask,001,128,
min1.png,min2.png,min3.png,min4.png,images/allBlank.png,"['num_7', 'num_4', 'num_1', 'num_0']",['num_0'],num_0,[4],'num_0',images/min4.png,"[(0.45, 0.79)]",,,,,0,-1,-1,0,3,1,13,3,,,,,,,,,,,,,"(-0.25, 0.04)",images/min2.png,14,0.052274440066,0.668062495068,[ 0.24304539 -0.046875  ],,,,,,,,['num_0'],,,,2018_Jul_07_1218,59.8765131963,sequenceLearningTask,001,128,
min1.png,min2.png,min3.png,min4.png,images/allBlank.png,"['num_7', 'num_4', 'num_1', 'num_0']",['num_0'],num_0,[4],'num_0',images/min4.png,"[(0.45, 0.79)]",,,,,0,-1,-1,0,3,1,13,3,,,,,,,,,,,,,"(-0.25, 0.04)",images/min2.png,14,0.0556090028258,0.596836267971,[-0.18008785 -0.01041667],,,,,,,,['num_0'],,,,2018_Jul_07_1218,59.8765131963,sequenceLearningTask,001,128,
min1.png,min2.png,min3.png,min4.png,images/allBlank.png,"['num_7', 'num_4', 'num_1', 'num_0']",['num_0'],num_0,[4],'num_0',images/min4.png,"[(0.45, 0.79)]",,,,,0,-1,-1,0,3,1,13,3,,,,,,,,,,,,,"(0.75, 0.04)",images/min4.png,14,0.0535068497993,0.683404437499,[-0.19326501 -0.08072917],,,,,,,,['num_0'],,,,2018_Jul_07_1218,59.8765131963,sequenceLearningTask,001,128,
min1.png,min2.png,min3.png,min4.png,images/allBlank.png,"['num_7', 'num_4', 'num_1', 'num_0']",['num_4'],num_4,[2],'num_4',images/min2.png,"[(0.45, 0.79)]",,,,,0,-1,-1,0,3,2,14,1,,,,,,,,,,,,,"(-0.75, 0.04)",images/min1.png,15,0.0493484925246,0.58607852878,[ 0.70278184 -0.20052083],,,,,,,,['num_4'],,,,2018_Jul_07_1218,59.8765131963,sequenceLearningTask,001,128,
min1.png,min2.png,min3.png,min4.png,images/allBlank.png,"['num_7', 'num_4', 'num_1', 'num_0']",['num_4'],num_4,[2],'num_4',images/min2.png,"[(0.45, 0.79)]",,,,,0,-1,-1,0,3,2,14,1,,,,,,,,,,,,,"(0.75, 0.04)",images/min4.png,15,0.0582699248334,0.745632924838,[-0.60761347 -0.1640625 ],,,,,,,,['num_4'],,,,2018_Jul_07_1218,59.8765131963,sequenceLearningTask,001,128,
min1.png,min2.png,min3.png,min4.png,images/allBlank.png,"['num_7', 'num_4', 'num_1', 'num_0']",['num_4'],num_4,[2],'num_4',images/min2.png,"[(0.45, 0.79)]",,,,,0,-1,-1,0,3,2,14,1,,,,,,,,,,,,,"(0.25, 0.04)",images/min3.png,15,0.0563171050744,0.684141257778,[ 0.60761347 -0.01041667],,,,,,,,['num_4'],,,,2018_Jul_07_1218,59.8765131963,sequenceLearningTask,001,128,
min1.png,min2.png,min3.png,min4.png,images/allBlank.png,"['num_7', 'num_4', 'num_1', 'num_0']",['num_4'],num_4,[2],'num_4',images/min2.png,"[(0.45, 0.79)]",,,,,0,-1,-1,0,3,2,14,1,,,,,,,,,,,,,"(-0.25, 0.04)",images/min2.png,15,0.0608853083104,0.508459278499,[ 0.18740849 -0.10677083],,,,,,,,['num_4'],,,,2018_Jul_07_1218,59.8765131963,sequenceLearningTask,001,128,
min1.png,min2.png,min3.png,min4.png,images/allBlank.png,"['num_7', 'num_4', 'num_1', 'num_0']",['num_7'],num_7,[1],'num_7',images/min1.png,"[(0.45, 0.79)]",,,,,0,-1,-1,0,3,3,15,0,,,,,,,,,,,,,"(-0.25, 0.04)",images/min2.png,16,0.0537160804961,0.631926715141,[-0.27379209  0.00260417],,,,,,,,['num_7'],,,,2018_Jul_07_1218,59.8765131963,sequenceLearningTask,001,128,
min1.png,min2.png,min3.png,min4.png,images/allBlank.png,"['num_7', 'num_4', 'num_1', 'num_0']",['num_7'],num_7,[1],'num_7',images/min1.png,"[(0.45, 0.79)]",,,,,0,-1,-1,0,3,3,15,0,,,,,,,,,,,,,"(-0.25, 0.04)",images/min2.png,16,0.0532988499617,0.868362310342,[-0.22401171 -0.19791667],,,,,,,,['num_7'],,,,2018_Jul_07_1218,59.8765131963,sequenceLearningTask,001,128,
min1.png,min2.png,min3.png,min4.png,images/allBlank.png,"['num_7', 'num_4', 'num_1', 'num_0']",['num_7'],num_7,[1],'num_7',images/min1.png,"[(0.45, 0.79)]",,,,,0,-1,-1,0,3,3,15,0,,,,,,,,,,,,,"(0.75, 0.04)",images/min4.png,16,0.0516081840033,0.76884809474,[-0.27232796 -0.125     ],,,,,,,,['num_7'],,,,2018_Jul_07_1218,59.8765131963,sequenceLearningTask,001,128,
min1.png,min2.png,min3.png,min4.png,images/allBlank.png,"['num_7', 'num_4', 'num_1', 'num_0']",['num_7'],num_7,[1],'num_7',images/min1.png,"[(0.45, 0.79)]",,,,,0,-1,-1,0,3,3,15,0,,,,,,,,,,,,,"(-0.25, 0.04)",images/min2.png,16,0.0461677758722,0.50716122787,[ 0.70424597 -0.0078125 ],,,,,,,,['num_7'],,,,2018_Jul_07_1218,59.8765131963,sequenceLearningTask,001,128,
min1.png,min2.png,min3.png,min4.png,images/allBlank.png,"['num_7', 'num_4', 'num_1', 'num_0']",['num_1'],num_1,[3],'num_1',images/min3.png,"[(0.45, 0.79)]",,,,,0,-1,-1,0,4,0,16,2,,,,,,,,,,,,,"(-0.25, 0.04)",images/min2.png,17,0.0428582389141,0.508291893988,[-0.26647145 -0.0703125 ],,,,,,,,['num_1'],,,,2018_Jul_07_1218,59.8765131963,sequenceLearningTask,001,128,
min1.png,min2.png,min3.png,min4.png,images/allBlank.png,"['num_7', 'num_4', 'num_1', 'num_0']",['num_1'],num_1,[3],'num_1',images/min3.png,"[(0.45, 0.79)]",,,,,0,-1,-1,0,4,0,16,2,,,,,,,,,,,,,"(0.75, 0.04)",images/min4.png,17,0.0868844771758,0.732263084152,[-0.23133236  0.0234375 ],,,,,,,,['num_1'],,,,2018_Jul_07_1218,59.8765131963,sequenceLearningTask,001,128,
min1.png,min2.png,min3.png,min4.png,images/allBlank.png,"['num_7', 'num_4', 'num_1', 'num_0']",['num_1'],num_1,[3],'num_1',images/min3.png,"[(0.45, 0.79)]",,,,,0,-1,-1,0,4,0,16,2,,,,,,,,,,,,,"(-0.75, 0.04)",images/min1.png,17,0.0451716737589,0.624849384651,[ 0.74231332 -0.2265625 ],,,,,,,,['num_1'],,,,2018_Jul_07_1218,59.8765131963,sequenceLearningTask,001,128,
min1.png,min2.png,min3.png,min4.png,images/allBlank.png,"['num_7', 'num_4', 'num_1', 'num_0']",['num_1'],num_1,[3],'num_1',images/min3.png,"[(0.45, 0.79)]",,,,,0,-1,-1,0,4,0,16,2,,,,,,,,,,,,,"(-0.75, 0.04)",images/min1.png,17,0.0532139268471,0.585422939272,[-0.58272328 -0.0234375 ],,,,,,,,['num_1'],,,,2018_Jul_07_1218,59.8765131963,sequenceLearningTask,001,128,
min1.png,min2.png,min3.png,min4.png,images/allBlank.png,"['num_7', 'num_4', 'num_1', 'num_0']",['num_0'],num_0,[4],'num_0',images/min4.png,"[(0.45, 0.79)]",,,,,0,-1,-1,0,4,1,17,3,,,,,,,,,,,,,"(-0.75, 0.04)",images/min1.png,18,0.0545694135362,0.914872650406,[-0.63836018 -0.27864583],,,,,,,,['num_0'],,,,2018_Jul_07_1218,59.8765131963,sequenceLearningTask,001,128,
min1.png,min2.png,min3.png,min4.png,images/allBlank.png,"['num_7', 'num_4', 'num_1', 'num_0']",['num_0'],num_0,[4],'num_0',images/min4.png,"[(0.45, 0.79)]",,,,,0,-1,-1,0,4,1,17,3,,,,,,,,,,,,,"(0.25, 0.04)",images/min3.png,18,0.0512869532686,0.634757483145,[-0.66910688 -0.0859375 ],,,,,,,,['num_0'],,,,2018_Jul_07_1218,59.8765131963,sequenceLearningTask,001,128,
min1.png,min2.png,min3.png,min4.png,images/allBlank.png,"['num_7', 'num_4', 'num_1', 'num_0']",['num_0'],num_0,[4],'num_0',images/min4.png,"[(0.45, 0.79)]",,,,,0,-1,-1,0,4,1,17,3,,,,,,,,,,,,,"(0.75, 0.04)",images/min4.png,18,0.0462760836817,0.659207524499,[ 0.13762811  0.12760417],,,,,,,,['num_0'],,,,2018_Jul_07_1218,59.8765131963,sequenceLearningTask,001,128,
min1.png,min2.png,min3.png,min4.png,images/allBlank.png,"['num_7', 'num_4', 'num_1', 'num_0']",['num_0'],num_0,[4],'num_0',images/min4.png,"[(0.45, 0.79)]",,,,,0,-1,-1,0,4,1,17,3,,,,,,,,,,,,,"(-0.75, 0.04)",images/min1.png,18,0.0450695198961,0.490769849857,[ 0.75256223  0.07552083],,,,,,,,['num_0'],,,,2018_Jul_07_1218,59.8765131963,sequenceLearningTask,001,128,
min1.png,min2.png,min3.png,min4.png,images/allBlank.png,"['num_7', 'num_4', 'num_1', 'num_0']",['num_7'],num_7,[1],'num_7',images/min1.png,"[(0.45, 0.79)]",,,,,0,-1,-1,0,4,2,18,0,,,,,,,,,,,,,"(-0.25, 0.04)",images/min2.png,19,0.0525230553467,0.448346072459,[-0.67935578 -0.28385417],,,,,,,,['num_7'],,,,2018_Jul_07_1218,59.8765131963,sequenceLearningTask,001,128,
min1.png,min2.png,min3.png,min4.png,images/allBlank.png,"['num_7', 'num_4', 'num_1', 'num_0']",['num_7'],num_7,[1],'num_7',images/min1.png,"[(0.45, 0.79)]",,,,,0,-1,-1,0,4,2,18,0,,,,,,,,,,,,,"(0.25, 0.04)",images/min3.png,19,0.0612143338658,0.508686970803,[-0.30893119 -0.02864583],,,,,,,,['num_7'],,,,2018_Jul_07_1218,59.8765131963,sequenceLearningTask,001,128,
min1.png,min2.png,min3.png,min4.png,images/allBlank.png,"['num_7', 'num_4', 'num_1', 'num_0']",['num_7'],num_7,[1],'num_7',images/min1.png,"[(0.45, 0.79)]",,,,,0,-1,-1,0,4,2,18,0,,,,,,,,,,,,,"(-0.25, 0.04)",images/min2.png,19,0.0516590557527,0.618248771993,[ 0.15080527 -0.18489583],,,,,,,,['num_7'],,,,2018_Jul_07_1218,59.8765131963,sequenceLearningTask,001,128,
min1.png,min2.png,min3.png,min4.png,images/allBlank.png,"['num_7', 'num_4', 'num_1', 'num_0']",['num_7'],num_7,[1],'num_7',images/min1.png,"[(0.45, 0.79)]",,,,,0,-1,-1,0,4,2,18,0,,,,,,,,,,,,,"(0.75, 0.04)",images/min4.png,19,0.0418838802725,0.594689397141,[-0.19180088  0.01302083],,,,,,,,['num_7'],,,,2018_Jul_07_1218,59.8765131963,sequenceLearningTask,001,128,
min1.png,min2.png,min3.png,min4.png,images/allBlank.png,"['num_7', 'num_4', 'num_1', 'num_0']",['num_4'],num_4,[2],'num_4',images/min2.png,"[(0.45, 0.79)]",,,,,0,-1,-1,0,4,3,19,1,,,,,,,,,,,,,"(0.75, 0.04)",images/min4.png,20,0.0564549511764,0.611378620961,[ 0.70278184 -0.13802083],,,,,,,,['num_4'],,,,2018_Jul_07_1218,59.8765131963,sequenceLearningTask,001,128,
min1.png,min2.png,min3.png,min4.png,images/allBlank.png,"['num_7', 'num_4', 'num_1', 'num_0']",['num_4'],num_4,[2],'num_4',images/min2.png,"[(0.45, 0.79)]",,,,,0,-1,-1,0,4,3,19,1,,,,,,,,,,,,,"(0.25, 0.04)",images/min3.png,20,0.0465530065121,0.657645268599,[ 0.69985359 -0.08854167],,,,,,,,['num_4'],,,,2018_Jul_07_1218,59.8765131963,sequenceLearningTask,001,128,
min1.png,min2.png,min3.png,min4.png,images/allBlank.png,"['num_7', 'num_4', 'num_1', 'num_0']",['num_4'],num_4,[2],'num_4',images/min2.png,"[(0.45, 0.79)]",,,,,0,-1,-1,0,4,3,19,1,,,,,,,,,,,,,"(-0.25, 0.04)",images/min2.png,20,0.0544967980823,0.76736748009,[ 0.16398243 -0.1171875 ],0.313677820028,1,,,,,,['num_4'],,,,2018_Jul_07_1218,59.8765131963,sequenceLearningTask,001,128,
min1.png,min2.png,min3.png,min4.png,images/allBlank.png,"['num_7', 'num_4', 'num_1', 'num_0']",['num_4'],num_4,[2],'num_4',images/min2.png,"[(0.45, 0.79)]",,,,,0,-1,-1,0,4,3,19,1,,,,,,,,,,,,,"(0.75, 0.04)",images/min4.png,20,0.0578288993565,0.56097823137,[-0.23572474 -0.00260417],,,,,,,,['num_4'],,,,2018_Jul_07_1218,59.8765131963,sequenceLearningTask,001,128,
min1.png,min2.png,min3.png,min4.png,allBlank.png,"['num_7', 'num_4', 'num_1', 'num_0']",['num_4'],num_4,[2],'num_4',images/min2.png,"[(0.45, 0.79)]",,,,,0,0,0,0,4,3,19,1,,,,,,,,,,,,,"(-0.75, -0.04)",images/min1.png,1,0.0789952496998,0.519822966191,[ 0.74377745 -0.22135417],,,,,,,,['num_4'],,,,2018_Jul_07_1218,59.8765131963,sequenceLearningTask,001,128,
min1.png,min2.png,min3.png,min4.png,allBlank.png,"['num_7', 'num_4', 'num_1', 'num_0']",['num_4'],num_4,[2],'num_4',images/min2.png,"[(0.45, 0.79)]",,,,,0,0,0,0,4,3,19,1,,,,,,,,,,,,,"(0.25, -0.04)",images/min3.png,1,0.0507864407264,0.519188710139,[-0.78916545 -0.07552083],,,,,,,,['num_4'],,,,2018_Jul_07_1218,59.8765131963,sequenceLearningTask,001,128,
min1.png,min2.png,min3.png,min4.png,allBlank.png,"['num_7', 'num_4', 'num_1', 'num_0']",['num_4'],num_4,[2],'num_4',images/min2.png,"[(0.45, 0.79)]",,,,,0,0,0,0,4,3,19,1,,,,,,,,,,,,,"(-0.25, -0.04)",images/min2.png,1,0.0555244900752,0.564374742797,[ 0.25183016 -0.0078125 ],,,,,,,,['num_4'],,,,2018_Jul_07_1218,59.8765131963,sequenceLearningTask,001,128,
min1.png,min2.png,min3.png,min4.png,allBlank.png,"['num_7', 'num_4', 'num_1', 'num_0']",['num_4'],num_4,[2],'num_4',images/min2.png,"[(0.45, 0.79)]",,,,,0,0,0,0,4,3,19,1,,,,,,,,,,,,,"(0.75, -0.04)",images/min4.png,1,0.0517292096047,0.518021120806,[-0.26061493 -0.08333333],,,,,,,,['num_4'],,,,2018_Jul_07_1218,59.8765131963,sequenceLearningTask,001,128,
min1.png,min2.png,min3.png,min4.png,allBlank.png,"['num_7', 'num_4', 'num_1', 'num_0']",['num_4'],num_4,[2],'num_4',images/min2.png,"[(0.45, 0.79)]",,,,,0,0,0,0,4,3,19,1,,,,,,,,,,,,,"(0.75, -0.04)",images/min4.png,1,0.0566202844493,0.714473553002,[ 0.67057101 -0.16145833],,,,,,,,['num_4'],,,,2018_Jul_07_1218,59.8765131963,sequenceLearningTask,001,128,
min1.png,min2.png,min3.png,min4.png,allBlank.png,"['num_7', 'num_4', 'num_1', 'num_0']",['num_4'],num_4,[2],'num_4',images/min2.png,"[(0.45, 0.79)]",,,,,0,0,0,0,4,3,19,1,,,,,,,,,,,,,"(-0.25, -0.04)",images/min2.png,1,0.0536762856646,0.582876889152,[ 0.60175695 -0.1171875 ],,,,,,,,['num_4'],,,,2018_Jul_07_1218,59.8765131963,sequenceLearningTask,001,128,
min1.png,min2.png,min3.png,min4.png,allBlank.png,"['num_7', 'num_4', 'num_1', 'num_0']",['num_4'],num_4,[2],'num_4',images/min2.png,"[(0.45, 0.79)]",,,,,0,0,0,0,4,3,19,1,,,,,,,,,,,,,"(0.25, -0.04)",images/min3.png,1,0.0637677686755,0.439666691469,[-0.35431918 -0.24739583],,,,,,,,['num_4'],,,,2018_Jul_07_1218,59.8765131963,sequenceLearningTask,001,128,
min1.png,min2.png,min3.png,min4.png,allBlank.png,"['num_7', 'num_4', 'num_1', 'num_0']",['num_4'],num_4,[2],'num_4',images/min2.png,"[(0.45, 0.79)]",,,,,0,0,0,0,4,3,19,1,,,,,,,,,,,,,"(0.75, -0.04)",images/min4.png,1,0.0508693123702,0.569885304663,[ 0.26647145 -0.13802083],,,,,,,,['num_4'],,,,2018_Jul_07_1218,59.8765131963,sequenceLearningTask,001,128,
min1.png,min2.png,min3.png,min4.png,allBlank.png,"['num_7', 'num_4', 'num_1', 'num_0']",['num_4'],num_4,[2],'num_4',images/min2.png,"[(0.45, 0.79)]",,,,,0,1,1,1,4,3,19,1,,,,,,,,,,,,,"(-0.75, -0.04)",images/min1.png,2,0.0497201846447,0.585920990445,[ 0.72767204  0.0078125 ],,,,,,,,['num_4'],,,,2018_Jul_07_1218,59.8765131963,sequenceLearningTask,001,128,
min1.png,min2.png,min3.png,min4.png,allBlank.png,"['num_7', 'num_4', 'num_1', 'num_0']",['num_4'],num_4,[2],'num_4',images/min2.png,"[(0.45, 0.79)]",,,,,0,1,1,1,4,3,19,1,,,,,,,,,,,,,"(0.25, -0.04)",images/min3.png,2,0.0520746452967,0.601765496656,[-0.71742313 -0.03125   ],,,,,,,,['num_4'],,,,2018_Jul_07_1218,59.8765131963,sequenceLearningTask,001,128,
min1.png,min2.png,min3.png,min4.png,allBlank.png,"['num_7', 'num_4', 'num_1', 'num_0']",['num_4'],num_4,[2],'num_4',images/min2.png,"[(0.45, 0.79)]",,,,,0,1,1,1,4,3,19,1,,,,,,,,,,,,,"(-0.25, -0.04)",images/min2.png,2,0.0518514659489,1.03721557441,[ 0.23133236 -0.1171875 ],,,,,,,,['num_4'],,,,2018_Jul_07_1218,59.8765131963,sequenceLearningTask,001,128,
min1.png,min2.png,min3.png,min4.png,allBlank.png,"['num_7', 'num_4', 'num_1', 'num_0']",['num_4'],num_4,[2],'num_4',images/min2.png,"[(0.45, 0.79)]",,,,,0,1,1,1,4,3,19,1,,,,,,,,,,,,,"(0.75, -0.04)",images/min4.png,2,0.0454432633705,0.608576160623,[-0.29868228  0.0546875 ],,,,,,,,['num_4'],,,,2018_Jul_07_1218,59.8765131963,sequenceLearningTask,001,128,
min1.png,min2.png,min3.png,min4.png,allBlank.png,"['num_7', 'num_4', 'num_1', 'num_0']",['num_4'],num_4,[2],'num_4',images/min2.png,"[(0.45, 0.79)]",,,,,0,1,1,1,4,3,19,1,,,,,,,,,,,,,"(0.75, -0.04)",images/min4.png,2,0.0540352598764,0.549143159296,[ 0.69692533 -0.13802083],,,,,,,,['num_4'],,,,2018_Jul_07_1218,59.8765131963,sequenceLearningTask,001,128,
min1.png,min2.png,min3.png,min4.png,allBlank.png,"['num_7', 'num_4', 'num_1', 'num_0']",['num_4'],num_4,[2],'num_4',images/min2.png,"[(0.45, 0.79)]",,,,,0,1,1,1,4,3,19,1,,,,,,,,,,,,,"(-0.25, -0.04)",images/min2.png,2,0.0529370040167,0.58410396555,[ 0.69253294  0.0078125 ],,,,,,,,['num_4'],,,,2018_Jul_07_1218,59.8765131963,sequenceLearningTask,001,128,
min1.png,min2.png,min3.png,min4.png,allBlank.png,"['num_7', 'num_4', 'num_1', 'num_0']",['num_4'],num_4,[2],'num_4',images/min2.png,"[(0.45, 0.79)]",,,,,0,1,1,1,4,3,19,1,,,,,,,,,,,,,"(0.25, -0.04)",images/min3.png,2,0.0563047974138,0.565314639825,[-0.23572474 -0.05208333],,,,,,,,['num_4'],,,,2018_Jul_07_1218,59.8765131963,sequenceLearningTask,001,128,
min1.png,min2.png,min3.png,min4.png,allBlank.png,"['num_7', 'num_4', 'num_1', 'num_0']",['num_4'],num_4,[2],'num_4',images/min2.png,"[(0.45, 0.79)]",,,,,0,1,1,1,4,3,19,1,,,,,,,,,,,,,"(0.75, -0.04)",images/min4.png,2,0.0518670555903,1.38934096857,[ 0.25622255 -0.10677083],,,,,,,,['num_4'],,,,2018_Jul_07_1218,59.8765131963,sequenceLearningTask,001,128,
min1.png,min2.png,min3.png,min4.png,allBlank.png,"['num_7', 'num_4', 'num_1', 'num_0']",['num_4'],num_4,[2],'num_4',images/min2.png,"[(0.45, 0.79)]",,,,,0,2,2,2,4,3,19,1,,,,,,,,,,,,,"(-0.75, -0.04)",images/min1.png,3,0.054921003175,0.613801183994,[ 0.62079063 -0.14322917],,,,,,,,['num_4'],,,,2018_Jul_07_1218,59.8765131963,sequenceLearningTask,001,128,
min1.png,min2.png,min3.png,min4.png,allBlank.png,"['num_7', 'num_4', 'num_1', 'num_0']",['num_4'],num_4,[2],'num_4',images/min2.png,"[(0.45, 0.79)]",,,,,0,2,2,2,4,3,19,1,,,,,,,,,,,,,"(0.25, -0.04)",images/min3.png,3,0.0561341308057,0.580779248965,[-0.65592972  0.1015625 ],,,,,,,,['num_4'],,,,2018_Jul_07_1218,59.8765131963,sequenceLearningTask,001,128,
min1.png,min2.png,min3.png,min4.png,allBlank.png,"['num_7', 'num_4', 'num_1', 'num_0']",['num_4'],num_4,[2],'num_4',images/min2.png,"[(0.45, 0.79)]",,,,,0,2,2,2,4,3,19,1,,,,,,,,,,,,,"(-0.25, -0.04)",images/min2.png,3,0.0559249002254,0.681696130661,[ 0.21961933 -0.15885417],,,,,,,,['num_4'],,,,2018_Jul_07_1218,59.8765131963,sequenceLearningTask,001,128,
min1.png,min2.png,min3.png,min4.png,allBlank.png,"['num_7', 'num_4', 'num_1', 'num_0']",['num_4'],num_4,[2],'num_4',images/min2.png,"[(0.45, 0.79)]",,,,,0,2,2,2,4,3,19,1,,,,,,,,,,,,,"(0.75, -0.04)",images/min4.png,3,0.0520266452804,0.517873838777,[-0.09077599  0.11458333],,,,,,,,['num_4'],,,,2018_Jul_07_1218,59.8765131963,sequenceLearningTask,001,128,
min1.png,min2.png,min3.png,min4.png,allBlank.png,"['num_7', 'num_4', 'num_1', 'num_0']",['num_4'],num_4,[2],'num_4',images/min2.png,"[(0.45, 0.79)]",,,,,0,2,2,2,4,3,19,1,,,,,,,,,,,,,"(0.75, -0.04)",images/min4.png,3,0.0563564897748,0.697393765207,[ 0.78477306 -0.05989583],,,,,,,,['num_4'],,,,2018_Jul_07_1218,59.8765131963,sequenceLearningTask,001,128,
min1.png,min2.png,min3.png,min4.png,allBlank.png,"['num_7', 'num_4', 'num_1', 'num_0']",['num_4'],num_4,[2],'num_4',images/min2.png,"[(0.45, 0.79)]",,,,,0,2,2,2,4,3,19,1,,,,,,,,,,,,,"(-0.25, -0.04)",images/min2.png,3,0.0520500299754,0.534711575485,[ 0.67057101 -0.1171875 ],,,,,,,,['num_4'],,,,2018_Jul_07_1218,59.8765131963,sequenceLearningTask,001,128,
min1.png,min2.png,min3.png,min4.png,allBlank.png,"['num_7', 'num_4', 'num_1', 'num_0']",['num_4'],num_4,[2],'num_4',images/min2.png,"[(0.45, 0.79)]",,,,,0,2,2,2,4,3,19,1,,,,,,,,,,,,,"(0.25, -0.04)",images/min3.png,3,0.052928798832,0.567125100642,[-0.22108346  0.078125  ],,,,,,,,['num_4'],,,,2018_Jul_07_1218,59.8765131963,sequenceLearningTask,001,128,
min1.png,min2.png,min3.png,min4.png,allBlank.png,"['num_7', 'num_4', 'num_1', 'num_0']",['num_4'],num_4,[2],'num_4',images/min2.png,"[(0.45, 0.79)]",,,,,0,2,2,2,4,3,19,1,,,,,,,,,,,,,"(0.75, -0.04)",images/min4.png,3,0.0420918801101,7.32692991721,[ 0.21376281 -0.03645833],6.30611884873,1,,,,,,['num_4'],,,,2018_Jul_07_1218,59.8765131963,sequenceLearningTask,001,128,
min1.png,min2.png,min3.png,min4.png,allBlank.png,"['num_7', 'num_4', 'num_1', 'num_0']",['num_4'],num_4,[2],'num_4',images/min2.png,"[(0.45, 0.79)]",,,,,0,3,3,3,4,3,19,1,,,,,,,,,,,,,"(-0.75, -0.04)",images/min1.png,4,0.0602366932435,0.490366978338,[ 0.71156662 -0.07552083],,,,,,,,['num_4'],,,,2018_Jul_07_1218,59.8765131963,sequenceLearningTask,001,128,
min1.png,min2.png,min3.png,min4.png,allBlank.png,"['num_7', 'num_4', 'num_1', 'num_0']",['num_4'],num_4,[2],'num_4',images/min2.png,"[(0.45, 0.79)]",,,,,0,3,3,3,4,3,19,1,,,,,,,,,,,,,"(0.25, -0.04)",images/min3.png,4,0.0524364912417,0.450500327977,[-0.73792094  0.13802083],,,,,,,,['num_4'],,,,2018_Jul_07_1218,59.8765131963,sequenceLearningTask,001,128,
min1.png,min2.png,min3.png,min4.png,allBlank.png,"['num_7', 'num_4', 'num_1', 'num_0']",['num_4'],num_4,[2],'num_4',images/min2.png,"[(0.45, 0.79)]",,,,,0,3,3,3,4,3,19,1,,,,,,,,,,,,,"(-0.25, -0.04)",images/min2.png,4,0.0469513653079,0.539486137568,[ 0.2489019  -0.13020833],,,,,,,,['num_4'],,,,2018_Jul_07_1218,59.8765131963,sequenceLearningTask,001,128,
min1.png,min2.png,min3.png,min4.png,allBlank.png,"['num_7', 'num_4', 'num_1', 'num_0']",['num_4'],num_4,[2],'num_4',images/min2.png,"[(0.45, 0.79)]",,,,,0,3,3,3,4,3,19,1,,,,,,,,,,,,,"(0.75, -0.04)",images/min4.png,4,0.0506941330386,0.971436729655,[-0.26500732  0.02604167],,,,,,,,['num_4'],,,,2018_Jul_07_1218,59.8765131963,sequenceLearningTask,001,128,
min1.png,min2.png,min3.png,min4.png,allBlank.png,"['num_7', 'num_4', 'num_1', 'num_0']",['num_4'],num_4,[2],'num_4',images/min2.png,"[(0.45, 0.79)]",,,,,0,3,3,3,4,3,19,1,,,,,,,,,,,,,"(0.75, -0.04)",images/min4.png,4,0.0365275747608,0.907099525328,[ 0.66178624  0.0078125 ],,,,,,,,['num_4'],,,,2018_Jul_07_1218,59.8765131963,sequenceLearningTask,001,128,
min1.png,min2.png,min3.png,min4.png,allBlank.png,"['num_7', 'num_4', 'num_1', 'num_0']",['num_4'],num_4,[2],'num_4',images/min2.png,"[(0.45, 0.79)]",,,,,0,3,3,3,4,3,19,1,,,,,,,,,,,,,"(-0.25, -0.04)",images/min2.png,4,0.0490625438979,0.538247984368,[ 0.58565154 -0.09375   ],,,,,,,,['num_4'],,,,2018_Jul_07_1218,59.8765131963,sequenceLearningTask,001,128,
min1.png,min2.png,min3.png,min4.png,allBlank.png,"['num_7', 'num_4', 'num_1', 'num_0']",['num_4'],num_4,[2],'num_4',images/min2.png,"[(0.45, 0.79)]",,,,,0,3,3,3,4,3,19,1,,,,,,,,,,,,,"(0.25, -0.04)",images/min3.png,4,0.055086746579,0.599408164388,[-0.24450952 -0.05729167],,,,,,,,['num_4'],,,,2018_Jul_07_1218,59.8765131963,sequenceLearningTask,001,128,
min1.png,min2.png,min3.png,min4.png,allBlank.png,"['num_7', 'num_4', 'num_1', 'num_0']",['num_4'],num_4,[2],'num_4',images/min2.png,"[(0.45, 0.79)]",,,,,0,3,3,3,4,3,19,1,,,,,,,,,,,,,"(0.75, -0.04)",images/min4.png,4,0.0496065437328,0.620654514525,[ 0.1625183  -0.15364583],,,,,,,,['num_4'],,,,2018_Jul_07_1218,59.8765131963,sequenceLearningTask,001,128,
min1.png,min2.png,min3.png,min4.png,allBlank.png,"['num_7', 'num_4', 'num_1', 'num_0']",['num_4'],num_4,[2],'num_4',images/min2.png,"[(0.45, 0.79)]",,,,,0,4,4,4,4,3,19,1,,,,,,,,,,,,,"(-0.75, -0.04)",images/min1.png,5,0.0551655158633,0.546652903897,[ 0.59736457 -0.16145833],,,,,,,,['num_4'],,,,2018_Jul_07_1218,59.8765131963,sequenceLearningTask,001,128,
min1.png,min2.png,min3.png,min4.png,allBlank.png,"['num_7', 'num_4', 'num_1', 'num_0']",['num_4'],num_4,[2],'num_4',images/min2.png,"[(0.45, 0.79)]",,,,,0,4,4,4,4,3,19,1,,,,,,,,,,,,,"(0.25, -0.04)",images/min3.png,5,0.0570711561013,0.630429279874,[-0.69692533 -0.07552083],,,,,,,,['num_4'],,,,2018_Jul_07_1218,59.8765131963,sequenceLearningTask,001,128,
min1.png,min2.png,min3.png,min4.png,allBlank.png,"['num_7', 'num_4', 'num_1', 'num_0']",['num_4'],num_4,[2],'num_4',images/min2.png,"[(0.45, 0.79)]",,,,,0,4,4,4,4,3,19,1,,,,,,,,,,,,,"(-0.25, -0.04)",images/min2.png,5,0.0543314649258,0.582527350751,[ 0.17569546  0.0546875 ],,,,,,,,['num_4'],,,,2018_Jul_07_1218,59.8765131963,sequenceLearningTask,001,128,
min1.png,min2.png,min3.png,min4.png,allBlank.png,"['num_7', 'num_4', 'num_1', 'num_0']",['num_4'],num_4,[2],'num_4',images/min2.png,"[(0.45, 0.79)]",,,,,0,4,4,4,4,3,19,1,,,,,,,,,,,,,"(0.75, -0.04)",images/min4.png,5,0.0472151600989,0.85827493004,[-0.37335286 -0.078125  ],,,,,,,,['num_4'],,,,2018_Jul_07_1218,59.8765131963,sequenceLearningTask,001,128,
min1.png,min2.png,min3.png,min4.png,allBlank.png,"['num_7', 'num_4', 'num_1', 'num_0']",['num_4'],num_4,[2],'num_4',images/min2.png,"[(0.45, 0.79)]",,,,,0,4,4,4,4,3,19,1,,,,,,,,,,,,,"(0.75, -0.04)",images/min4.png,5,0.0556976181688,0.64779583679,[ 0.61786237 -0.03645833],,,,,,,,['num_4'],,,,2018_Jul_07_1218,59.8765131963,sequenceLearningTask,001,128,
min1.png,min2.png,min3.png,min4.png,allBlank.png,"['num_7', 'num_4', 'num_1', 'num_0']",['num_4'],num_4,[2],'num_4',images/min2.png,"[(0.45, 0.79)]",,,,,0,4,4,4,4,3,19,1,,,,,,,,,,,,,"(-0.25, -0.04)",images/min2.png,5,0.065657819272,0.571054534987,[ 0.57540264 -0.14322917],,,,,,,,['num_4'],,,,2018_Jul_07_1218,59.8765131963,sequenceLearningTask,001,128,
min1.png,min2.png,min3.png,min4.png,allBlank.png,"['num_7', 'num_4', 'num_1', 'num_0']",['num_4'],num_4,[2],'num_4',images/min2.png,"[(0.45, 0.79)]",,,,,0,4,4,4,4,3,19,1,,,,,,,,,,,,,"(0.25, -0.04)",images/min3.png,5,0.0436036743922,1.34927165159,[-0.15519766 -0.05989583],,,,,,,,['num_4'],,,,2018_Jul_07_1218,59.8765131963,sequenceLearningTask,001,128,
min1.png,min2.png,min3.png,min4.png,allBlank.png,"['num_7', 'num_4', 'num_1', 'num_0']",['num_4'],num_4,[2],'num_4',images/min2.png,"[(0.45, 0.79)]",,,,,0,4,4,4,4,3,19,1,,,,,,,,,,,,,"(0.75, -0.04)",images/min4.png,5,0.0571573098423,3.22858288058,[ 0.27379209 -0.0546875 ],,,,,,,,['num_4'],,,,2018_Jul_07_1218,59.8765131963,sequenceLearningTask,001,128,
min1.png,min2.png,min3.png,min4.png,allBlank.png,"['num_7', 'num_4', 'num_1', 'num_0']",['num_4'],num_4,[2],'num_4',images/min2.png,"[(0.45, 0.79)]",,,,,0,5,5,5,4,3,19,1,,,,,,,,,,,,,"(-0.75, -0.04)",images/min1.png,6,0.0594916678965,0.826732378802,[ 0.72035139 -0.17447917],,,,,,,,['num_4'],,,,2018_Jul_07_1218,59.8765131963,sequenceLearningTask,001,128,
min1.png,min2.png,min3.png,min4.png,allBlank.png,"['num_7', 'num_4', 'num_1', 'num_0']",['num_4'],num_4,[2],'num_4',images/min2.png,"[(0.45, 0.79)]",,,,,0,5,5,5,4,3,19,1,,,,,,,,,,,,,"(0.25, -0.04)",images/min3.png,6,0.0610022313194,0.693631305243,[-0.74377745 -0.11979167],,,,,,,,['num_4'],,,,2018_Jul_07_1218,59.8765131963,sequenceLearningTask,001,128,
min1.png,min2.png,min3.png,min4.png,allBlank.png,"['num_7', 'num_4', 'num_1', 'num_0']",['num_4'],num_4,[2],'num_4',images/min2.png,"[(0.45, 0.79)]",,,,,0,5,5,5,4,3,19,1,,,,,,,,,,,,,"(-0.25, -0.04)",images/min2.png,6,0.0469489038223,0.539363060845,[ 0.14641288 -0.2109375 ],,,,,,,,['num_4'],,,,2018_Jul_07_1218,59.8765131963,sequenceLearningTask,001,128,
min1.png,min2.png,min3.png,min4.png,allBlank.png,"['num_7', 'num_4', 'num_1', 'num_0']",['num_4'],num_4,[2],'num_4',images/min2.png,"[(0.45, 0.79)]",,,,,0,5,5,5,4,3,19,1,,,,,,,,,,,,,"(0.75, -0.04)",images/min4.png,6,0.0571495150216,0.612940056249,[-0.27379209  0.02604167],,,,,,,,['num_4'],,,,2018_Jul_07_1218,59.8765131963,sequenceLearningTask,001,128,
min1.png,min2.png,min3.png,min4.png,allBlank.png,"['num_7', 'num_4', 'num_1', 'num_0']",['num_4'],num_4,[2],'num_4',images/min2.png,"[(0.45, 0.79)]",,,,,0,5,5,5,4,3,19,1,,,,,,,,,,,,,"(0.75, -0.04)",images/min4.png,6,0.0481878776336,0.622333693434,[ 0.65007321 -0.0234375 ],,,,,,,,['num_4'],,,,2018_Jul_07_1218,59.8765131963,sequenceLearningTask,001,128,
min1.png,min2.png,min3.png,min4.png,allBlank.png,"['num_7', 'num_4', 'num_1', 'num_0']",['num_4'],num_4,[2],'num_4',images/min2.png,"[(0.45, 0.79)]",,,,,0,5,5,5,4,3,19,1,,,,,,,,,,,,,"(-0.25, -0.04)",images/min2.png,6,0.0508750560693,0.402067937655,[ 0.72327965 -0.28645833],,,,,,,,['num_4'],,,,2018_Jul_07_1218,59.8765131963,sequenceLearningTask,001,128,
min1.png,min2.png,min3.png,min4.png,allBlank.png,"['num_7', 'num_4', 'num_1', 'num_0']",['num_4'],num_4,[2],'num_4',images/min2.png,"[(0.45, 0.79)]",,,,,0,5,5,5,4,3,19,1,,,,,,,,,,,,,"(0.25, -0.04)",images/min3.png,6,0.0669041776564,0.502516306587,[-0.11566618 -0.04427083],,,,,,,,['num_4'],,,,2018_Jul_07_1218,59.8765131963,sequenceLearningTask,001,128,
min1.png,min2.png,min3.png,min4.png,allBlank.png,"['num_7', 'num_4', 'num_1', 'num_0']",['num_4'],num_4,[2],'num_4',images/min2.png,"[(0.45, 0.79)]",,,,,0,5,5,5,4,3,19,1,,,,,,,,,,,,,"(0.75, -0.04)",images/min4.png,6,0.0565874639433,0.530545833637,[ 0.24597365 -0.1328125 ],,,,,,,,['num_4'],,,,2018_Jul_07_1218,59.8765131963,sequenceLearningTask,001,128,
min1.png,min2.png,min3.png,min4.png,allBlank.png,"['num_7', 'num_4', 'num_1', 'num_0']",['num_4'],num_4,[2],'num_4',images/min2.png,"[(0.45, 0.79)]",,,,,0,6,6,6,4,3,19,1,,,,,,,,,,,,,"(-0.75, -0.04)",images/min1.png,7,0.0533534139395,0.498849846539,[ 0.61639824 -0.20572917],,,,,,,,['num_4'],,,,2018_Jul_07_1218,59.8765131963,sequenceLearningTask,001,128,
min1.png,min2.png,min3.png,min4.png,allBlank.png,"['num_7', 'num_4', 'num_1', 'num_0']",['num_4'],num_4,[2],'num_4',images/min2.png,"[(0.45, 0.79)]",,,,,0,6,6,6,4,3,19,1,,,,,,,,,,,,,"(0.25, -0.04)",images/min3.png,7,0.0522982350085,0.869735438027,[-0.71742313 -0.01302083],0.350764574017,1,,,,,,['num_4'],,,,2018_Jul_07_1218,59.8765131963,sequenceLearningTask,001,128,
min1.png,min2.png,min3.png,min4.png,allBlank.png,"['num_7', 'num_4', 'num_1', 'num_0']",['num_4'],num_4,[2],'num_4',images/min2.png,"[(0.45, 0.79)]",,,,,0,6,6,6,4,3,19,1,,,,,,,,,,,,,"(-0.25, -0.04)",images/min2.png,7,0.0569008997409,0.964825040079,[ 0.20351391 -0.15364583],,,,,,,,['num_4'],,,,2018_Jul_07_1218,59.8765131963,sequenceLearningTask,001,128,
min1.png,min2.png,min3.png,min4.png,allBlank.png,"['num_7', 'num_4', 'num_1', 'num_0']",['num_4'],num_4,[2],'num_4',images/min2.png,"[(0.45, 0.79)]",,,,,0,6,6,6,4,3,19,1,,,,,,,,,,,,,"(0.75, -0.04)",images/min4.png,7,0.0494379283627,0.487112415605,[-0.28696925 -0.04427083],,,,,,,,['num_4'],,,,2018_Jul_07_1218,59.8765131963,sequenceLearningTask,001,128,
min1.png,min2.png,min3.png,min4.png,allBlank.png,"['num_7', 'num_4', 'num_1', 'num_0']",['num_4'],num_4,[2],'num_4',images/min2.png,"[(0.45, 0.79)]",,,,,0,6,6,6,4,3,19,1,,,,,,,,,,,,,"(0.75, -0.04)",images/min4.png,7,0.052776593715,0.533603883581,[ 0.63250366 -0.109375  ],,,,,,,,['num_4'],,,,2018_Jul_07_1218,59.8765131963,sequenceLearningTask,001,128,
min1.png,min2.png,min3.png,min4.png,allBlank.png,"['num_7', 'num_4', 'num_1', 'num_0']",['num_4'],num_4,[2],'num_4',images/min2.png,"[(0.45, 0.79)]",,,,,0,6,6,6,4,3,19,1,,,,,,,,,,,,,"(-0.25, -0.04)",images/min2.png,7,0.0515675685601,0.585547657218,[ 0.5534407   0.17447917],,,,,,,,['num_4'],,,,2018_Jul_07_1218,59.8765131963,sequenceLearningTask,001,128,
min1.png,min2.png,min3.png,min4.png,allBlank.png,"['num_7', 'num_4', 'num_1', 'num_0']",['num_4'],num_4,[2],'num_4',images/min2.png,"[(0.45, 0.79)]",,,,,0,6,6,6,4,3,19,1,,,,,,,,,,,,,"(0.25, -0.04)",images/min3.png,7,0.0508627484087,0.66996567382,[-0.26939971 -0.16927083],,,,,,,,['num_4'],,,,2018_Jul_07_1218,59.8765131963,sequenceLearningTask,001,128,
min1.png,min2.png,min3.png,min4.png,allBlank.png,"['num_7', 'num_4', 'num_1', 'num_0']",['num_4'],num_4,[2],'num_4',images/min2.png,"[(0.45, 0.79)]",,,,,0,6,6,6,4,3,19,1,,,,,,,,,,,,,"(0.75, -0.04)",images/min4.png,7,0.0575610019732,0.731654674164,[ 0.08784773 -0.22135417],,,,,,,,['num_4'],,,,2018_Jul_07_1218,59.8765131963,sequenceLearningTask,001,128,
min1.png,min2.png,min3.png,min4.png,allBlank.png,"['num_7', 'num_4', 'num_1', 'num_0']",['num_4'],num_4,[2],'num_4',images/min2.png,"[(0.45, 0.79)]",,,,,0,7,7,7,4,3,19,1,,,,,,,,,,,,,"(-0.75, -0.04)",images/min1.png,8,0.0526387477294,0.716508013778,[ 0.60029283 -0.27604167],,,,,,,,['num_4'],,,,2018_Jul_07_1218,59.8765131963,sequenceLearningTask,001,128,
min1.png,min2.png,min3.png,min4.png,allBlank.png,"['num_7', 'num_4', 'num_1', 'num_0']",['num_4'],num_4,[2],'num_4',images/min2.png,"[(0.45, 0.79)]",,,,,0,7,7,7,4,3,19,1,,,,,,,,,,,,,"(0.25, -0.04)",images/min3.png,8,0.0517222352792,0.618575336062,[-0.77598829 -0.13541667],,,,,,,,['num_4'],,,,2018_Jul_07_1218,59.8765131963,sequenceLearningTask,001,128,
min1.png,min2.png,min3.png,min4.png,allBlank.png,"['num_7', 'num_4', 'num_1', 'num_0']",['num_4'],num_4,[2],'num_4',images/min2.png,"[(0.45, 0.79)]",,,,,0,7,7,7,4,3,19,1,,,,,,,,,,,,,"(-0.25, -0.04)",images/min2.png,8,0.0557915668469,1.01666050602,[ 0.11420205 -0.28385417],,,,,,,,['num_4'],,,,2018_Jul_07_1218,59.8765131963,sequenceLearningTask,001,128,
min1.png,min2.png,min3.png,min4.png,allBlank.png,"['num_7', 'num_4', 'num_1', 'num_0']",['num_4'],num_4,[2],'num_4',images/min2.png,"[(0.45, 0.79)]",,,,,0,7,7,7,4,3,19,1,,,,,,,,,,,,,"(0.75, -0.04)",images/min4.png,8,0.0546559776412,0.497760205995,[-0.36749634 -0.11458333],,,,,,,,['num_4'],,,,2018_Jul_07_1218,59.8765131963,sequenceLearningTask,001,128,
min1.png,min2.png,min3.png,min4.png,allBlank.png,"['num_7', 'num_4', 'num_1', 'num_0']",['num_4'],num_4,[2],'num_4',images/min2.png,"[(0.45, 0.79)]",,,,,0,7,7,7,4,3,19,1,,,,,,,,,,,,,"(0.75, -0.04)",images/min4.png,8,0.0548126953654,0.565205511753,[ 0.71888726 -0.0625    ],,,,,,,,['num_4'],,,,2018_Jul_07_1218,59.8765131963,sequenceLearningTask,001,128,
min1.png,min2.png,min3.png,min4.png,allBlank.png,"['num_7', 'num_4', 'num_1', 'num_0']",['num_4'],num_4,[2],'num_4',images/min2.png,"[(0.45, 0.79)]",,,,,0,7,7,7,4,3,19,1,,,,,,,,,,,,,"(-0.25, -0.04)",images/min2.png,8,0.0597045908216,0.643395428313,[ 0.59297218 -0.078125  ],,,,,,,,['num_4'],,,,2018_Jul_07_1218,59.8765131963,sequenceLearningTask,001,128,
min1.png,min2.png,min3.png,min4.png,allBlank.png,"['num_7', 'num_4', 'num_1', 'num_0']",['num_4'],num_4,[2],'num_4',images/min2.png,"[(0.45, 0.79)]",,,,,0,7,7,7,4,3,19,1,,,,,,,,,,,,,"(0.25, -0.04)",images/min3.png,8,0.0524286965374,0.601278522518,[-0.25329429 -0.0078125 ],,,,,,,,['num_4'],,,,2018_Jul_07_1218,59.8765131963,sequenceLearningTask,001,128,
min1.png,min2.png,min3.png,min4.png,allBlank.png,"['num_7', 'num_4', 'num_1', 'num_0']",['num_4'],num_4,[2],'num_4',images/min2.png,"[(0.45, 0.79)]",,,,,0,7,7,7,4,3,19,1,,,,,,,,,,,,,"(0.75, -0.04)",images/min4.png,8,0.0598830523668,0.86165462085,[ 0.21229868 -0.21614583],,,,,,,,['num_4'],,,,2018_Jul_07_1218,59.8765131963,sequenceLearningTask,001,128,
min1.png,min2.png,min3.png,min4.png,allBlank.png,"['num_7', 'num_4', 'num_1', 'num_0']",['num_4'],num_4,[2],'num_4',images/min2.png,"[(0.45, 0.79)]",,,,,0,8,8,8,4,3,19,1,,,,,,,,,,,,,"(-0.75, -0.04)",images/min1.png,9,0.0586231554626,0.677681773202,[ 0.6954612 -0.1953125],,,,,,,,['num_4'],,,,2018_Jul_07_1218,59.8765131963,sequenceLearningTask,001,128,
min1.png,min2.png,min3.png,min4.png,allBlank.png,"['num_7', 'num_4', 'num_1', 'num_0']",['num_4'],num_4,[2],'num_4',images/min2.png,"[(0.45, 0.79)]",,,,,0,8,8,8,4,3,19,1,,,,,,,,,,,,,"(0.25, -0.04)",images/min3.png,9,0.0455519813113,0.624831743655,[-0.63543192 -0.05989583],,,,,,,,['num_4'],,,,2018_Jul_07_1218,59.8765131963,sequenceLearningTask,001,128,
min1.png,min2.png,min3.png,min4.png,allBlank.png,"['num_7', 'num_4', 'num_1', 'num_0']",['num_4'],num_4,[2],'num_4',images/min2.png,"[(0.45, 0.79)]",,,,,0,8,8,8,4,3,19,1,,,,,,,,,,,,,"(-0.25, -0.04)",images/min2.png,9,0.0296541417483,0.658839934855,[ 0.19912152 -0.15104167],,,,,,,,['num_4'],,,,2018_Jul_07_1218,59.8765131963,sequenceLearningTask,001,128,
min1.png,min2.png,min3.png,min4.png,allBlank.png,"['num_7', 'num_4', 'num_1', 'num_0']",['num_4'],num_4,[2],'num_4',images/min2.png,"[(0.45, 0.79)]",,,,,0,8,8,8,4,3,19,1,,,,,,,,,,,,,"(0.75, -0.04)",images/min4.png,9,0.0530723884003,0.667241162155,[-0.22547584  0.1640625 ],,,,,,,,['num_4'],,,,2018_Jul_07_1218,59.8765131963,sequenceLearningTask,001,128,
min1.png,min2.png,min3.png,min4.png,allBlank.png,"['num_7', 'num_4', 'num_1', 'num_0']",['num_4'],num_4,[2],'num_4',images/min2.png,"[(0.45, 0.79)]",,,,,0,8,8,8,4,3,19,1,,,,,,,,,,,,,"(0.75, -0.04)",images/min4.png,9,0.0569304382661,0.596759960288,[ 0.62811127 -0.23697917],,,,,,,,['num_4'],,,,2018_Jul_07_1218,59.8765131963,sequenceLearningTask,001,128,
min1.png,min2.png,min3.png,min4.png,allBlank.png,"['num_7', 'num_4', 'num_1', 'num_0']",['num_4'],num_4,[2],'num_4',images/min2.png,"[(0.45, 0.79)]",,,,,0,8,8,8,4,3,19,1,,,,,,,,,,,,,"(-0.25, -0.04)",images/min2.png,9,0.0489866465796,0.554531054571,[ 0.60614934 -0.26041667],,,,,,,,['num_4'],,,,2018_Jul_07_1218,59.8765131963,sequenceLearningTask,001,128,
min1.png,min2.png,min3.png,min4.png,allBlank.png,"['num_7', 'num_4', 'num_1', 'num_0']",['num_4'],num_4,[2],'num_4',images/min2.png,"[(0.45, 0.79)]",,,,,0,8,8,8,4,3,19,1,,,,,,,,,,,,,"(0.25, -0.04)",images/min3.png,9,0.0596684883349,0.762277020607,[-0.37628111 -0.0390625 ],,,,,,,,['num_4'],,,,2018_Jul_07_1218,59.8765131963,sequenceLearningTask,001,128,
min1.png,min2.png,min3.png,min4.png,allBlank.png,"['num_7', 'num_4', 'num_1', 'num_0']",['num_4'],num_4,[2],'num_4',images/min2.png,"[(0.45, 0.79)]",,,,,0,8,8,8,4,3,19,1,,,,,,,,,,,,,"(0.75, -0.04)",images/min4.png,9,0.0538055164507,1.25287866546,[ 0.03660322 -0.109375  ],0.699935712852,1,,,,,,['num_4'],,,,2018_Jul_07_1218,59.8765131963,sequenceLearningTask,001,128,
min1.png,min2.png,min3.png,min4.png,allBlank.png,"['num_7', 'num_4', 'num_1', 'num_0']",['num_4'],num_4,[2],'num_4',images/min2.png,"[(0.45, 0.79)]",,,,,0,9,9,9,4,3,19,1,,,,,,,,,,,,,"(-0.75, -0.04)",images/min1.png,10,0.0390908557456,0.563347871532,[ 0.62225476 -0.2890625 ],,,,,,,,['num_4'],,,,2018_Jul_07_1218,59.8765131963,sequenceLearningTask,001,128,
min1.png,min2.png,min3.png,min4.png,allBlank.png,"['num_7', 'num_4', 'num_1', 'num_0']",['num_4'],num_4,[2],'num_4',images/min2.png,"[(0.45, 0.79)]",,,,,0,9,9,9,4,3,19,1,,,,,,,,,,,,,"(0.25, -0.04)",images/min3.png,10,0.0528077732306,0.56948202278,[-0.60029283 -0.04947917],,,,,,,,['num_4'],,,,2018_Jul_07_1218,59.8765131963,sequenceLearningTask,001,128,
min1.png,min2.png,min3.png,min4.png,allBlank.png,"['num_7', 'num_4', 'num_1', 'num_0']",['num_4'],num_4,[2],'num_4',images/min2.png,"[(0.45, 0.79)]",,,,,0,9,9,9,4,3,19,1,,,,,,,,,,,,,"(-0.25, -0.04)",images/min2.png,10,0.0573246943532,0.930942797568,[ 0.07906296 -0.23177083],,,,,,,,['num_4'],,,,2018_Jul_07_1218,59.8765131963,sequenceLearningTask,001,128,
min1.png,min2.png,min3.png,min4.png,allBlank.png,"['num_7', 'num_4', 'num_1', 'num_0']",['num_4'],num_4,[2],'num_4',images/min2.png,"[(0.45, 0.79)]",,,,,0,9,9,9,4,3,19,1,,,,,,,,,,,,,"(0.75, -0.04)",images/min4.png,10,0.0561435667332,0.597233806271,[-0.37774524 -0.13802083],,,,,,,,['num_4'],,,,2018_Jul_07_1218,59.8765131963,sequenceLearningTask,001,128,
min1.png,min2.png,min3.png,min4.png,allBlank.png,"['num_7', 'num_4', 'num_1', 'num_0']",['num_4'],num_4,[2],'num_4',images/min2.png,"[(0.45, 0.79)]",,,,,0,9,9,9,4,3,19,1,,,,,,,,,,,,,"(0.75, -0.04)",images/min4.png,10,0.049836287275,0.721074576024,[ 0.55636896 -0.2265625 ],,,,,,,,['num_4'],,,,2018_Jul_07_1218,59.8765131963,sequenceLearningTask,001,128,
min1.png,min2.png,min3.png,min4.png,allBlank.png,"['num_7', 'num_4', 'num_1', 'num_0']",['num_4'],num_4,[2],'num_4',images/min2.png,"[(0.45, 0.79)]",,,,,0,9,9,9,4,3,19,1,,,,,,,,,,,,,"(-0.25, -0.04)",images/min2.png,10,0.0574334124103,0.562252077041,[ 0.57686676 -0.13541667],,,,,,,,['num_4'],,,,2018_Jul_07_1218,59.8765131963,sequenceLearningTask,001,128,
min1.png,min2.png,min3.png,min4.png,allBlank.png,"['num_7', 'num_4', 'num_1', 'num_0']",['num_4'],num_4,[2],'num_4',images/min2.png,"[(0.45, 0.79)]",,,,,0,9,9,9,4,3,19,1,,,,,,,,,,,,,"(0.25, -0.04)",images/min3.png,10,0.056114438572,0.597242421587,[-0.28111274 -0.06510417],,,,,,,,['num_4'],,,,2018_Jul_07_1218,59.8765131963,sequenceLearningTask,001,128,
min1.png,min2.png,min3.png,min4.png,allBlank.png,"['num_7', 'num_4', 'num_1', 'num_0']",['num_4'],num_4,[2],'num_4',images/min2.png,"[(0.45, 0.79)]",,,,,0,9,9,9,4,3,19,1,,,,,,,,,,,,,"(0.75, -0.04)",images/min4.png,10,0.0472857241984,0.723150472506,[ 0.10541728 -0.14322917],,,,,,,,['num_4'],,,,2018_Jul_07_1218,59.8765131963,sequenceLearningTask,001,128,
min1.png,min2.png,min3.png,min4.png,allBlank.png,"['num_7', 'num_4', 'num_1', 'num_0']",['num_4'],num_4,[2],'num_4',images/min2.png,"[(0.45, 0.79)]",,,,,0,9,9,9,4,3,19,1,0,-1,-1,0,,,,,,,,,,,,,,,,,,,,,,['num_4'],,,,2018_Jul_07_1218,59.8765131963,sequenceLearningTask,001,128,
min1.png,min2.png,min3.png,min4.png,allBlank.png,"['num_7', 'num_4', 'num_1', 'num_0']",['num_4'],num_4,[2],'num_4',images/min2.png,"[(0.45, 0.79)]",,,,,0,9,9,9,4,3,19,1,0,-1,-1,0,,,,,,,,,,,,,,,,,['1'],,,,,['num_4'],,,,2018_Jul_07_1218,59.8765131963,sequenceLearningTask,001,128,
min1.png,min2.png,min3.png,min4.png,allBlank.png,"['num_7', 'num_4', 'num_1', 'num_0']",['num_4'],num_4,[2],'num_4',images/min2.png,"[(0.45, 0.79)]",,,,,0,9,9,9,4,3,19,1,0,-1,-1,0,,,,,,,,,,,,,,,,,['2'],,,,,['num_4'],,,,2018_Jul_07_1218,59.8765131963,sequenceLearningTask,001,128,
min1.png,min2.png,min3.png,min4.png,allBlank.png,"['num_7', 'num_4', 'num_1', 'num_0']",['num_4'],num_4,[2],'num_4',images/min2.png,"[(0.45, 0.79)]",,,,,0,9,9,9,4,3,19,1,0,-1,-1,0,,,,,,,,,,,,,,,,,['1'],,,,,['num_4'],,,,2018_Jul_07_1218,59.8765131963,sequenceLearningTask,001,128,
min1.png,min2.png,min3.png,min4.png,allBlank.png,"['num_7', 'num_4', 'num_1', 'num_0']",['num_4'],num_4,[2],'num_4',images/min2.png,"[(0.45, 0.79)]",,,,,0,9,9,9,4,3,19,1,0,-1,-1,0,,,,,,,,,,,,,,,,,['2'],,,,,['num_4'],,,,2018_Jul_07_1218,59.8765131963,sequenceLearningTask,001,128,
min1.png,min2.png,min3.png,min4.png,allBlank.png,"['num_7', 'num_4', 'num_1', 'num_0']",['num_4'],num_4,[2],'num_4',images/min2.png,"[(0.45, 0.79)]",0,0,0,0,0,9,9,9,4,3,19,1,0,-1,-1,0,,,,,,,,,,,,,,,,,,return,1.34333688475,na,"[0.8755245639476925, 0.9933698489330709]",['num_4'],,,,2018_Jul_07_1218,59.8765131963,sequenceLearningTask,001,128,
min1.png,min2.png,min3.png,min4.png,allBlank.png,"['num_7', 'num_4', 'num_1', 'num_0']",['num_4'],num_4,[2],'num_4',images/min2.png,"[(0.45, 0.79)]",,,,,0,9,9,9,4,3,19,1,0,-1,-1,0,0,0,0,0,,,,,,,1,,,,,,,,,,,['num_4'],0,['4'],5.41701726487,2018_Jul_07_1218,59.8765131963,sequenceLearningTask,001,128,
