pawPatrol1,pawPatrol2,pawPatrol3,pawPatrol4,blank,allowableKey,correctKey,correctKeyPressNum,posLoc,correctKeyPress,randomPaw,im_size,trials.thisRepN,trials.thisTrialN,trials.thisN,trials.thisIndex,trials_3.thisRepN,trials_3.thisTrialN,trials_3.thisN,trials_3.thisIndex,trials_2.thisRepN,trials_2.thisTrialN,trials_2.thisN,trials_2.thisIndex,trials_questions.thisRepN,trials_questions.thisTrialN,trials_questions.thisN,trials_questions.thisIndex,correctLocation,correctImage,repetitionNumber,stimulusPresent.t,responseTimeCorrect,pressLoc,responseTimeIncorrect,trialIncorrect,anticipatoryResponse,date,frameRate,expName,session,participant,
min1.png,min2.png,min3.png,min4.png,allBlank.png,,,,,,,,,,,,0,0,0,0,,,,,,,,,"(-0.75, -0.04)",images/min1.png,1,0.0734334359877,0.662320410367,[-0.0109375 -0.35     ],,,,2018_Jun_17_1149,60.1028220881,sequenceLearningTask,001,136,
min1.png,min2.png,min3.png,min4.png,allBlank.png,,,,,,,,,,,,0,0,0,0,,,,,,,,,"(0.25, -0.04)",images/min3.png,1,0.089371076785,0.58317538444,[-0.75        0.04722222],,,,2018_Jun_17_1149,60.1028220881,sequenceLearningTask,001,136,
min1.png,min2.png,min3.png,min4.png,allBlank.png,,,,,,,,,,,,0,0,0,0,,,,,,,,,"(-0.25, -0.04)",images/min2.png,1,0.0810338461306,0.626184205059,[ 0.253125    0.08611111],,,,2018_Jun_17_1149,60.1028220881,sequenceLearningTask,001,136,
min1.png,min2.png,min3.png,min4.png,allBlank.png,,,,,,,,,,,,0,0,0,0,,,,,,,,,"(0.75, -0.04)",images/min4.png,1,0.0746695385315,0.537951179547,[-0.19375     0.02777778],,,,2018_Jun_17_1149,60.1028220881,sequenceLearningTask,001,136,
min1.png,min2.png,min3.png,min4.png,allBlank.png,,,,,,,,,,,,0,0,0,0,,,,,,,,,"(0.75, -0.04)",images/min4.png,1,0.0561579486821,0.656027076999,[ 0.765625    0.23055556],,,,2018_Jun_17_1149,60.1028220881,sequenceLearningTask,001,136,
min1.png,min2.png,min3.png,min4.png,allBlank.png,,,,,,,,,,,,0,0,0,0,,,,,,,,,"(-0.25, -0.04)",images/min2.png,1,0.0663971283939,0.656593230786,[ 0.765625    0.03888889],,,,2018_Jun_17_1149,60.1028220881,sequenceLearningTask,001,136,
min1.png,min2.png,min3.png,min4.png,allBlank.png,,,,,,,,,,,,0,0,0,0,,,,,,,,,"(0.25, -0.04)",images/min3.png,1,0.0556652308442,0.571183589753,[-0.29375     0.00833333],,,,2018_Jun_17_1149,60.1028220881,sequenceLearningTask,001,136,
min1.png,min2.png,min3.png,min4.png,allBlank.png,,,,,,,,,,,,0,0,0,0,,,,,,,,,"(0.75, -0.04)",images/min4.png,1,0.0556914871559,0.583722666604,[ 0.2203125   0.09444444],,,,2018_Jun_17_1149,60.1028220881,sequenceLearningTask,001,136,
min1.png,min2.png,min3.png,min4.png,allBlank.png,,,,,,,,,,,,0,1,1,1,,,,,,,,,"(-0.75, -0.04)",images/min1.png,2,0.0589042049833,0.696467282018,[ 0.7625      0.04166667],,,,2018_Jun_17_1149,60.1028220881,sequenceLearningTask,001,136,
min1.png,min2.png,min3.png,min4.png,allBlank.png,,,,,,,,,,,,0,1,1,1,,,,,,,,,"(0.25, -0.04)",images/min3.png,2,0.0557694358286,0.720331076998,[-0.7421875   0.01944444],,,,2018_Jun_17_1149,60.1028220881,sequenceLearningTask,001,136,
min1.png,min2.png,min3.png,min4.png,allBlank.png,,,,,,,,,,,,0,1,1,1,,,,,,,,,"(-0.25, -0.04)",images/min2.png,2,0.0640873846132,0.645998358959,[ 0.26875 -0.025  ],,,,2018_Jun_17_1149,60.1028220881,sequenceLearningTask,001,136,
min1.png,min2.png,min3.png,min4.png,allBlank.png,,,,,,,,,,,,0,1,1,1,,,,,,,,,"(0.75, -0.04)",images/min4.png,2,0.0585653332528,0.568774564192,[-0.2109375   0.04444444],,,,2018_Jun_17_1149,60.1028220881,sequenceLearningTask,001,136,
min1.png,min2.png,min3.png,min4.png,allBlank.png,,,,,,,,,,,,0,1,1,1,,,,,,,,,"(0.75, -0.04)",images/min4.png,2,0.0671737436205,0.705576204928,[ 0.8515625  -0.08611111],,,,2018_Jun_17_1149,60.1028220881,sequenceLearningTask,001,136,
min1.png,min2.png,min3.png,min4.png,allBlank.png,,,,,,,,,,,,0,1,1,1,,,,,,,,,"(-0.25, -0.04)",images/min2.png,2,0.05143753835,0.677552410169,[ 0.7296875   0.08055556],,,,2018_Jun_17_1149,60.1028220881,sequenceLearningTask,001,136,
min1.png,min2.png,min3.png,min4.png,allBlank.png,,,,,,,,,,,,0,1,1,1,,,,,,,,,"(0.25, -0.04)",images/min3.png,2,0.052983794827,0.526076718001,[-0.25        0.01388889],,,,2018_Jun_17_1149,60.1028220881,sequenceLearningTask,001,136,
min1.png,min2.png,min3.png,min4.png,allBlank.png,,,,,,,,,,,,0,1,1,1,,,,,,,,,"(0.75, -0.04)",images/min4.png,2,0.0624414358754,0.548029948724,[ 0.29375  0.     ],,,,2018_Jun_17_1149,60.1028220881,sequenceLearningTask,001,136,
min1.png,min2.png,min3.png,min4.png,allBlank.png,,,,,,,,,,,,0,2,2,2,,,,,,,,,"(-0.75, -0.04)",images/min1.png,3,0.0521583589725,0.655487179523,[ 0.796875   -0.18055556],,,,2018_Jun_17_1149,60.1028220881,sequenceLearningTask,001,136,
min1.png,min2.png,min3.png,min4.png,allBlank.png,,,,,,,,,,,,0,2,2,2,,,,,,,,,"(0.25, -0.04)",images/min3.png,3,0.0579593845177,0.687252512667,[-0.6203125   0.01111111],,,,2018_Jun_17_1149,60.1028220881,sequenceLearningTask,001,136,
min1.png,min2.png,min3.png,min4.png,allBlank.png,,,,,,,,,,,,0,2,2,2,,,,,,,,,"(-0.25, -0.04)",images/min2.png,3,0.0576603077352,0.567958153784,[ 0.3453125 -0.05     ],,,,2018_Jun_17_1149,60.1028220881,sequenceLearningTask,001,136,
min1.png,min2.png,min3.png,min4.png,allBlank.png,,,,,,,,,,,,0,2,2,2,,,,,,,,,"(0.75, -0.04)",images/min4.png,3,0.056683487026,0.548646153649,[-0.0921875   0.02222222],,,,2018_Jun_17_1149,60.1028220881,sequenceLearningTask,001,136,
min1.png,min2.png,min3.png,min4.png,allBlank.png,,,,,,,,,,,,0,2,2,2,,,,,,,,,"(0.75, -0.04)",images/min4.png,3,0.0576681024395,0.567905230913,[ 0.8328125  -0.10833333],,,,2018_Jun_17_1149,60.1028220881,sequenceLearningTask,001,136,
min1.png,min2.png,min3.png,min4.png,allBlank.png,,,,,,,,,,,,0,2,2,2,,,,,,,,,"(-0.25, -0.04)",images/min2.png,3,0.0600127177313,0.700530461501,[ 0.8515625  -0.24444444],,,,2018_Jun_17_1149,60.1028220881,sequenceLearningTask,001,136,
min1.png,min2.png,min3.png,min4.png,allBlank.png,,,,,,,,,,,,0,2,2,2,,,,,,,,,"(0.25, -0.04)",images/min3.png,3,0.0636160001159,0.54485907685,[-0.2171875  -0.05277778],,,,2018_Jun_17_1149,60.1028220881,sequenceLearningTask,001,136,
min1.png,min2.png,min3.png,min4.png,allBlank.png,,,,,,,,,,,,0,2,2,2,,,,,,,,,"(0.75, -0.04)",images/min4.png,3,0.0533899487928,1.27053046133,[ 0.3828125  -0.11666667],0.735474461457,1,,2018_Jun_17_1149,60.1028220881,sequenceLearningTask,001,136,
min1.png,min2.png,min3.png,min4.png,allBlank.png,,,,,,,,,,,,0,3,3,3,,,,,,,,,"(-0.75, -0.04)",images/min1.png,4,0.0563971281517,0.599840000039,[ 0.7796875   0.00833333],,,,2018_Jun_17_1149,60.1028220881,sequenceLearningTask,001,136,
min1.png,min2.png,min3.png,min4.png,allBlank.png,,,,,,,,,,,,0,3,3,3,,,,,,,,,"(0.25, -0.04)",images/min3.png,4,0.0500627690926,0.67694030772,[-0.584375   -0.00833333],,,,2018_Jun_17_1149,60.1028220881,sequenceLearningTask,001,136,
min1.png,min2.png,min3.png,min4.png,allBlank.png,,,,,,,,,,,,0,3,3,3,,,,,,,,,"(-0.25, -0.04)",images/min2.png,4,0.0583909743,0.833691897336,[ 0.4        -0.05555556],,,,2018_Jun_17_1149,60.1028220881,sequenceLearningTask,001,136,
min1.png,min2.png,min3.png,min4.png,allBlank.png,,,,,,,,,,,,0,3,3,3,,,,,,,,,"(0.75, -0.04)",images/min4.png,4,0.0584656409919,0.516823794926,[-0.2046875  -0.04166667],,,,2018_Jun_17_1149,60.1028220881,sequenceLearningTask,001,136,
min1.png,min2.png,min3.png,min4.png,allBlank.png,,,,,,,,,,,,0,3,3,3,,,,,,,,,"(0.75, -0.04)",images/min4.png,4,0.0622342564166,0.562144410331,[ 0.8078125  -0.09722222],,,,2018_Jun_17_1149,60.1028220881,sequenceLearningTask,001,136,
min1.png,min2.png,min3.png,min4.png,allBlank.png,,,,,,,,,,,,0,3,3,3,,,,,,,,,"(-0.25, -0.04)",images/min2.png,4,0.0599298460875,0.699312410317,[ 0.846875   -0.26388889],,,,2018_Jun_17_1149,60.1028220881,sequenceLearningTask,001,136,
min1.png,min2.png,min3.png,min4.png,allBlank.png,,,,,,,,,,,,0,3,3,3,,,,,,,,,"(0.25, -0.04)",images/min3.png,4,0.0590235898271,0.603270974243,[-0.21875     0.03611111],,,,2018_Jun_17_1149,60.1028220881,sequenceLearningTask,001,136,
min1.png,min2.png,min3.png,min4.png,allBlank.png,,,,,,,,,,,,0,3,3,3,,,,,,,,,"(0.75, -0.04)",images/min4.png,4,0.0607470769901,0.458822563989,[ 0.346875   -0.06944444],,,,2018_Jun_17_1149,60.1028220881,sequenceLearningTask,001,136,
min1.png,min2.png,min3.png,min4.png,allBlank.png,,,,,,,,,,,,0,4,4,4,,,,,,,,,"(-0.75, -0.04)",images/min1.png,5,0.0598309743218,0.665420718025,[ 0.8328125  -0.21388889],,,,2018_Jun_17_1149,60.1028220881,sequenceLearningTask,001,136,
min1.png,min2.png,min3.png,min4.png,allBlank.png,,,,,,,,,,,,0,4,4,4,,,,,,,,,"(0.25, -0.04)",images/min3.png,5,0.0608553846832,0.549018256366,[-0.6625      0.16944444],,,,2018_Jun_17_1149,60.1028220881,sequenceLearningTask,001,136,
min1.png,min2.png,min3.png,min4.png,allBlank.png,,,,,,,,,,,,0,4,4,4,,,,,,,,,"(-0.25, -0.04)",images/min2.png,5,0.0626900512725,0.491831794847,[ 0.234375    0.10555556],,,,2018_Jun_17_1149,60.1028220881,sequenceLearningTask,001,136,
min1.png,min2.png,min3.png,min4.png,allBlank.png,,,,,,,,,,,,0,4,4,4,,,,,,,,,"(0.75, -0.04)",images/min4.png,5,0.061080615269,0.479291487252,[-0.228125  0.075   ],,,,2018_Jun_17_1149,60.1028220881,sequenceLearningTask,001,136,
min1.png,min2.png,min3.png,min4.png,allBlank.png,,,,,,,,,,,,0,4,4,4,,,,,,,,,"(0.75, -0.04)",images/min4.png,5,0.0540512821171,0.49922912824,[ 0.75625    -0.16388889],,,,2018_Jun_17_1149,60.1028220881,sequenceLearningTask,001,136,
min1.png,min2.png,min3.png,min4.png,allBlank.png,,,,,,,,,,,,0,4,4,4,,,,,,,,,"(-0.25, -0.04)",images/min2.png,5,0.0579200000502,1.00402543601,[ 0.7578125  -0.00277778],,,,2018_Jun_17_1149,60.1028220881,sequenceLearningTask,001,136,
min1.png,min2.png,min3.png,min4.png,allBlank.png,,,,,,,,,,,,0,4,4,4,,,,,,,,,"(0.25, -0.04)",images/min3.png,5,0.0555807179771,0.687326769345,[-0.1765625  -0.01944444],,,,2018_Jun_17_1149,60.1028220881,sequenceLearningTask,001,136,
min1.png,min2.png,min3.png,min4.png,allBlank.png,,,,,,,,,,,,0,4,4,4,,,,,,,,,"(0.75, -0.04)",images/min4.png,5,0.0631138461176,0.647050256608,[ 0.3203125 -0.175    ],,,,2018_Jun_17_1149,60.1028220881,sequenceLearningTask,001,136,
min1.png,min2.png,min3.png,min4.png,allBlank.png,,,,,,,,,,,,0,5,5,5,,,,,,,,,"(-0.75, -0.04)",images/min1.png,6,0.0575807180721,1.01938994881,[ 0.7953125 -0.025    ],,,,2018_Jun_17_1149,60.1028220881,sequenceLearningTask,001,136,
min1.png,min2.png,min3.png,min4.png,allBlank.png,,,,,,,,,,,,0,5,5,5,,,,,,,,,"(0.25, -0.04)",images/min3.png,6,0.0543027692474,0.756843897514,[-0.7         0.07777778],,,,2018_Jun_17_1149,60.1028220881,sequenceLearningTask,001,136,
min1.png,min2.png,min3.png,min4.png,allBlank.png,,,,,,,,,,,,0,5,5,5,,,,,,,,,"(-0.25, -0.04)",images/min2.png,6,0.0585833846126,0.783018666785,[ 0.371875   -0.15833333],,,,2018_Jun_17_1149,60.1028220881,sequenceLearningTask,001,136,
min1.png,min2.png,min3.png,min4.png,allBlank.png,,,,,,,,,,,,0,5,5,5,,,,,,,,,"(0.75, -0.04)",images/min4.png,6,0.0518670768943,0.451451076893,[-0.190625    0.00555556],,,,2018_Jun_17_1149,60.1028220881,sequenceLearningTask,001,136,
min1.png,min2.png,min3.png,min4.png,allBlank.png,,,,,,,,,,,,0,5,5,5,,,,,,,,,"(0.75, -0.04)",images/min4.png,6,0.0578572307713,0.579407589743,[ 0.865625   -0.23333333],,,,2018_Jun_17_1149,60.1028220881,sequenceLearningTask,001,136,
min1.png,min2.png,min3.png,min4.png,allBlank.png,,,,,,,,,,,,0,5,5,5,,,,,,,,,"(-0.25, -0.04)",images/min2.png,6,0.0583318974823,0.800556307891,[ 0.8203125   0.05833333],,,,2018_Jun_17_1149,60.1028220881,sequenceLearningTask,001,136,
min1.png,min2.png,min3.png,min4.png,allBlank.png,,,,,,,,,,,,0,5,5,5,,,,,,,,,"(0.25, -0.04)",images/min3.png,6,0.0556906666607,0.605993435951,[-0.1671875   0.11944444],,,,2018_Jun_17_1149,60.1028220881,sequenceLearningTask,001,136,
min1.png,min2.png,min3.png,min4.png,allBlank.png,,,,,,,,,,,,0,5,5,5,,,,,,,,,"(0.75, -0.04)",images/min4.png,6,0.0605394872837,0.56045784615,[ 0.296875    0.24444444],,,,2018_Jun_17_1149,60.1028220881,sequenceLearningTask,001,136,
min1.png,min2.png,min3.png,min4.png,allBlank.png,,,,,,,,,,,,0,6,6,6,,,,,,,,,"(-0.75, -0.04)",images/min1.png,7,0.0549924101215,0.801421538461,[ 0.8140625   0.10555556],,,,2018_Jun_17_1149,60.1028220881,sequenceLearningTask,001,136,
min1.png,min2.png,min3.png,min4.png,allBlank.png,,,,,,,,,,,,0,6,6,6,,,,,,,,,"(0.25, -0.04)",images/min3.png,7,0.0551122049801,0.690712615382,[-0.7765625  -0.11388889],,,,2018_Jun_17_1149,60.1028220881,sequenceLearningTask,001,136,
min1.png,min2.png,min3.png,min4.png,allBlank.png,,,,,,,,,,,,0,6,6,6,,,,,,,,,"(-0.25, -0.04)",images/min2.png,7,0.0639721024781,0.5886945643,[ 0.3046875   0.05277778],,,,2018_Jun_17_1149,60.1028220881,sequenceLearningTask,001,136,
min1.png,min2.png,min3.png,min4.png,allBlank.png,,,,,,,,,,,,0,6,6,6,,,,,,,,,"(0.75, -0.04)",images/min4.png,7,0.0566285129171,0.604446358979,[-0.146875   -0.03333333],,,,2018_Jun_17_1149,60.1028220881,sequenceLearningTask,001,136,
min1.png,min2.png,min3.png,min4.png,allBlank.png,,,,,,,,,,,,0,6,6,6,,,,,,,,,"(0.75, -0.04)",images/min4.png,7,0.0552385640331,0.50492389733,[ 0.7921875  -0.10833333],,,,2018_Jun_17_1149,60.1028220881,sequenceLearningTask,001,136,
min1.png,min2.png,min3.png,min4.png,allBlank.png,,,,,,,,,,,,0,6,6,6,,,,,,,,,"(-0.25, -0.04)",images/min2.png,7,0.0534687179606,0.967635692097,[ 0.7859375  -0.04166667],,,,2018_Jun_17_1149,60.1028220881,sequenceLearningTask,001,136,
min1.png,min2.png,min3.png,min4.png,allBlank.png,,,,,,,,,,,,0,6,6,6,,,,,,,,,"(0.25, -0.04)",images/min3.png,7,0.0546789744403,0.823707897449,[-0.1828125 -0.075    ],,,,2018_Jun_17_1149,60.1028220881,sequenceLearningTask,001,136,
min1.png,min2.png,min3.png,min4.png,allBlank.png,,,,,,,,,,,,0,6,6,6,,,,,,,,,"(0.75, -0.04)",images/min4.png,7,0.0582596922759,0.414906256367,[ 0.4359375 -0.075    ],,,,2018_Jun_17_1149,60.1028220881,sequenceLearningTask,001,136,
min1.png,min2.png,min3.png,min4.png,allBlank.png,,,,,,,,,,,,0,7,7,7,,,,,,,,,"(-0.75, -0.04)",images/min1.png,8,0.0514900512062,0.119787897449,[ 0.9265625  -0.07222222],,,,2018_Jun_17_1149,60.1028220881,sequenceLearningTask,001,136,
min1.png,min2.png,min3.png,min4.png,allBlank.png,,,,,,,,,,,,0,7,7,7,,,,,,,,,"(0.25, -0.04)",images/min3.png,8,0.0611306666397,0.798271179432,[-0.7125     -0.11944444],,,,2018_Jun_17_1149,60.1028220881,sequenceLearningTask,001,136,
min1.png,min2.png,min3.png,min4.png,allBlank.png,,,,,,,,,,,,0,7,7,7,,,,,,,,,"(-0.25, -0.04)",images/min2.png,8,0.0587241025642,0.183003897313,[ 0.2546875  -0.04166667],,,,2018_Jun_17_1149,60.1028220881,sequenceLearningTask,001,136,
min1.png,min2.png,min3.png,min4.png,allBlank.png,,,,,,,,,,,,0,7,7,7,,,,,,,,,"(0.75, -0.04)",images/min4.png,8,0.0527679999359,0.287957333261,[-0.2140625   0.04722222],,,,2018_Jun_17_1149,60.1028220881,sequenceLearningTask,001,136,
min1.png,min2.png,min3.png,min4.png,allBlank.png,,,,,,,,,,,,0,7,7,7,,,,,,,,,"(0.75, -0.04)",images/min4.png,8,0.0540225640871,0.139043282019,[ 0.734375   -0.10277778],,,,2018_Jun_17_1149,60.1028220881,sequenceLearningTask,001,136,
min1.png,min2.png,min3.png,min4.png,allBlank.png,,,,,,,,,,,,0,7,7,7,,,,,,,,,"(-0.25, -0.04)",images/min2.png,8,0.0618588717189,0.766260923119,[ 0.8359375  -0.03611111],,,,2018_Jun_17_1149,60.1028220881,sequenceLearningTask,001,136,
min1.png,min2.png,min3.png,min4.png,allBlank.png,,,,,,,,,,,,0,7,7,7,,,,,,,,,"(0.25, -0.04)",images/min3.png,8,0.0543298462871,0.236262153834,[-0.2203125   0.06944444],,,,2018_Jun_17_1149,60.1028220881,sequenceLearningTask,001,136,
min1.png,min2.png,min3.png,min4.png,allBlank.png,,,,,,,,,,,,0,7,7,7,,,,,,,,,"(0.75, -0.04)",images/min4.png,8,0.0634170256089,0.281005128287,[ 0.215625    0.15833333],,,,2018_Jun_17_1149,60.1028220881,sequenceLearningTask,001,136,
min1.png,min2.png,min3.png,min4.png,allBlank.png,,,,,,,,,,,,0,8,8,8,,,,,,,,,"(-0.75, -0.04)",images/min1.png,9,0.0557932306547,0.200013128109,[ 0.8         0.02777778],,,,2018_Jun_17_1149,60.1028220881,sequenceLearningTask,001,136,
min1.png,min2.png,min3.png,min4.png,allBlank.png,,,,,,,,,,,,0,8,8,8,,,,,,,,,"(0.25, -0.04)",images/min3.png,9,0.0614925129339,0.466541948728,[-0.6609375   0.09722222],,,,2018_Jun_17_1149,60.1028220881,sequenceLearningTask,001,136,
min1.png,min2.png,min3.png,min4.png,allBlank.png,,,,,,,,,,,,0,8,8,8,,,,,,,,,"(-0.25, -0.04)",images/min2.png,9,0.0564795897808,0.601980307838,[ 0.328125   -0.15833333],,,,2018_Jun_17_1149,60.1028220881,sequenceLearningTask,001,136,
min1.png,min2.png,min3.png,min4.png,allBlank.png,,,,,,,,,,,,0,8,8,8,,,,,,,,,"(0.75, -0.04)",images/min4.png,9,0.0522646151949,0.241776820505,[-0.1015625  -0.09166667],,,,2018_Jun_17_1149,60.1028220881,sequenceLearningTask,001,136,
min1.png,min2.png,min3.png,min4.png,allBlank.png,,,,,,,,,,,,0,8,8,8,,,,,,,,,"(0.75, -0.04)",images/min4.png,9,0.0709727180656,0.135570871877,[ 0.8296875  -0.03888889],,,,2018_Jun_17_1149,60.1028220881,sequenceLearningTask,001,136,
min1.png,min2.png,min3.png,min4.png,allBlank.png,,,,,,,,,,,,0,8,8,8,,,,,,,,,"(-0.25, -0.04)",images/min2.png,9,0.057675487129,0.998473025626,[ 0.8265625  -0.06111111],,,,2018_Jun_17_1149,60.1028220881,sequenceLearningTask,001,136,
min1.png,min2.png,min3.png,min4.png,allBlank.png,,,,,,,,,,,,0,8,8,8,,,,,,,,,"(0.25, -0.04)",images/min3.png,9,0.060002871789,0.765482256422,[-0.2359375  -0.21388889],,,,2018_Jun_17_1149,60.1028220881,sequenceLearningTask,001,136,
min1.png,min2.png,min3.png,min4.png,allBlank.png,,,,,,,,,,,,0,8,8,8,,,,,,,,,"(0.75, -0.04)",images/min4.png,9,0.0588857436087,0.0978576408233,[ 0.2109375   0.11944444],,,,2018_Jun_17_1149,60.1028220881,sequenceLearningTask,001,136,
min1.png,min2.png,min3.png,min4.png,allBlank.png,,,,,,,,,,,,0,9,9,9,,,,,,,,,"(-0.75, -0.04)",images/min1.png,10,0.0617280001752,0.0870802050922,[ 0.8328125   0.01388889],,,,2018_Jun_17_1149,60.1028220881,sequenceLearningTask,001,136,
min1.png,min2.png,min3.png,min4.png,allBlank.png,,,,,,,,,,,,0,9,9,9,,,,,,,,,"(0.25, -0.04)",images/min3.png,10,0.056875487091,0.500189538347,[-0.690625    0.05833333],,,,2018_Jun_17_1149,60.1028220881,sequenceLearningTask,001,136,
min1.png,min2.png,min3.png,min4.png,allBlank.png,,,,,,,,,,,,0,9,9,9,,,,,,,,,"(-0.25, -0.04)",images/min2.png,10,0.0528779488523,0.118662974564,[ 0.2703125  -0.08888889],,,,2018_Jun_17_1149,60.1028220881,sequenceLearningTask,001,136,
min1.png,min2.png,min3.png,min4.png,allBlank.png,,,,,,,,,,,,0,9,9,9,,,,,,,,,"(0.75, -0.04)",images/min4.png,10,0.0576713846531,0.166146461619,[-0.1875  0.075 ],,,,2018_Jun_17_1149,60.1028220881,sequenceLearningTask,001,136,
min1.png,min2.png,min3.png,min4.png,allBlank.png,,,,,,,,,,,,0,9,9,9,,,,,,,,,"(0.75, -0.04)",images/min4.png,10,0.0626797948498,0.191364102531,[ 0.74375    -0.10833333],,,,2018_Jun_17_1149,60.1028220881,sequenceLearningTask,001,136,
min1.png,min2.png,min3.png,min4.png,allBlank.png,,,,,,,,,,,,0,9,9,9,,,,,,,,,"(-0.25, -0.04)",images/min2.png,10,0.05759179499,0.551745230565,[ 0.765625    0.00277778],,,,2018_Jun_17_1149,60.1028220881,sequenceLearningTask,001,136,
min1.png,min2.png,min3.png,min4.png,allBlank.png,,,,,,,,,,,,0,9,9,9,,,,,,,,,"(0.25, -0.04)",images/min3.png,10,0.0576902562752,0.06822892325,[-0.2484375  0.025    ],,,,2018_Jun_17_1149,60.1028220881,sequenceLearningTask,001,136,
min1.png,min2.png,min3.png,min4.png,allBlank.png,,,,,,,,,,,,0,9,9,9,,,,,,,,,"(0.75, -0.04)",images/min4.png,10,0.0584890258033,0.985111384653,[ 0.278125    0.03333333],0.259433846222,1,,2018_Jun_17_1149,60.1028220881,sequenceLearningTask,001,136,
min1.png,min2.png,min3.png,min4.png,images/allBlank.png,"['num_7', 'num_4', 'num_1', 'num_0']",['num_4'],num_4,[2],'num_4',images/min2.png,"[(0.45, 0.79)]",,,,,0,-1,-1,0,0,0,0,1,,,,,"(-0.75, 0.04)",images/min1.png,1,0.0418473845348,0.976976820501,[ 0.7640625   0.11666667],,,,2018_Jun_17_1149,60.1028220881,sequenceLearningTask,001,136,
min1.png,min2.png,min3.png,min4.png,images/allBlank.png,"['num_7', 'num_4', 'num_1', 'num_0']",['num_4'],num_4,[2],'num_4',images/min2.png,"[(0.45, 0.79)]",,,,,0,-1,-1,0,0,0,0,1,,,,,"(0.75, 0.04)",images/min4.png,1,0.0624201025348,0.69724676921,[-0.6046875  -0.08611111],,,,2018_Jun_17_1149,60.1028220881,sequenceLearningTask,001,136,
min1.png,min2.png,min3.png,min4.png,images/allBlank.png,"['num_7', 'num_4', 'num_1', 'num_0']",['num_4'],num_4,[2],'num_4',images/min2.png,"[(0.45, 0.79)]",,,,,0,-1,-1,0,0,0,0,1,,,,,"(0.75, 0.04)",images/min4.png,1,0.0611429743003,0.680238358909,[ 0.8421875   0.11944444],,,,2018_Jun_17_1149,60.1028220881,sequenceLearningTask,001,136,
min1.png,min2.png,min3.png,min4.png,images/allBlank.png,"['num_7', 'num_4', 'num_1', 'num_0']",['num_4'],num_4,[2],'num_4',images/min2.png,"[(0.45, 0.79)]",,,,,0,-1,-1,0,0,0,0,1,,,,,"(0.25, 0.04)",images/min3.png,1,0.0591216408648,0.683896205155,[ 0.834375    0.06111111],,,,2018_Jun_17_1149,60.1028220881,sequenceLearningTask,001,136,
min1.png,min2.png,min3.png,min4.png,images/allBlank.png,"['num_7', 'num_4', 'num_1', 'num_0']",['num_1'],num_1,[3],'num_1',images/min3.png,"[(0.45, 0.79)]",,,,,0,-1,-1,0,0,1,1,2,,,,,"(-0.25, 0.04)",images/min2.png,2,0.0544742564671,0.486167384777,[ 0.2828125   0.06111111],,,,2018_Jun_17_1149,60.1028220881,sequenceLearningTask,001,136,
min1.png,min2.png,min3.png,min4.png,images/allBlank.png,"['num_7', 'num_4', 'num_1', 'num_0']",['num_1'],num_1,[3],'num_1',images/min3.png,"[(0.45, 0.79)]",,,,,0,-1,-1,0,0,1,1,2,,,,,"(0.25, 0.04)",images/min3.png,2,0.0579265640117,0.650310974335,[-0.225       0.19166667],,,,2018_Jun_17_1149,60.1028220881,sequenceLearningTask,001,136,
min1.png,min2.png,min3.png,min4.png,images/allBlank.png,"['num_7', 'num_4', 'num_1', 'num_0']",['num_1'],num_1,[3],'num_1',images/min3.png,"[(0.45, 0.79)]",,,,,0,-1,-1,0,0,1,1,2,,,,,"(0.25, 0.04)",images/min3.png,2,0.0630157948472,0.563883076888,[ 0.2953125   0.05833333],,,,2018_Jun_17_1149,60.1028220881,sequenceLearningTask,001,136,
min1.png,min2.png,min3.png,min4.png,images/allBlank.png,"['num_7', 'num_4', 'num_1', 'num_0']",['num_1'],num_1,[3],'num_1',images/min3.png,"[(0.45, 0.79)]",,,,,0,-1,-1,0,0,1,1,2,,,,,"(0.75, 0.04)",images/min4.png,2,0.0646342565306,0.614375795005,[ 0.2515625  -0.13333333],,,,2018_Jun_17_1149,60.1028220881,sequenceLearningTask,001,136,
min1.png,min2.png,min3.png,min4.png,images/allBlank.png,"['num_7', 'num_4', 'num_1', 'num_0']",['num_0'],num_0,[4],'num_0',images/min4.png,"[(0.45, 0.79)]",,,,,0,-1,-1,0,0,2,2,3,,,,,"(0.25, 0.04)",images/min3.png,3,0.0860320001375,0.685860512778,[ 0.78125     0.09722222],,,,2018_Jun_17_1149,60.1028220881,sequenceLearningTask,001,136,
min1.png,min2.png,min3.png,min4.png,images/allBlank.png,"['num_7', 'num_4', 'num_1', 'num_0']",['num_0'],num_0,[4],'num_0',images/min4.png,"[(0.45, 0.79)]",,,,,0,-1,-1,0,0,2,2,3,,,,,"(0.25, 0.04)",images/min3.png,3,0.0567134357989,0.653076512739,[ 0.2296875  0.025    ],,,,2018_Jun_17_1149,60.1028220881,sequenceLearningTask,001,136,
min1.png,min2.png,min3.png,min4.png,images/allBlank.png,"['num_7', 'num_4', 'num_1', 'num_0']",['num_0'],num_0,[4],'num_0',images/min4.png,"[(0.45, 0.79)]",,,,,0,-1,-1,0,0,2,2,3,,,,,"(0.25, 0.04)",images/min3.png,3,0.064020923106,0.492259692401,[ 0.2203125  -0.08055556],,,,2018_Jun_17_1149,60.1028220881,sequenceLearningTask,001,136,
min1.png,min2.png,min3.png,min4.png,images/allBlank.png,"['num_7', 'num_4', 'num_1', 'num_0']",['num_0'],num_0,[4],'num_0',images/min4.png,"[(0.45, 0.79)]",,,,,0,-1,-1,0,0,2,2,3,,,,,"(-0.25, 0.04)",images/min2.png,3,0.0611158972606,0.647234871984,[ 0.284375   -0.11944444],,,,2018_Jun_17_1149,60.1028220881,sequenceLearningTask,001,136,
min1.png,min2.png,min3.png,min4.png,images/allBlank.png,"['num_7', 'num_4', 'num_1', 'num_0']",['num_7'],num_7,[1],'num_7',images/min1.png,"[(0.45, 0.79)]",,,,,0,-1,-1,0,0,3,3,0,,,,,"(-0.25, 0.04)",images/min2.png,4,0.0722059488762,0.583278769394,[-0.209375   -0.00833333],,,,2018_Jun_17_1149,60.1028220881,sequenceLearningTask,001,136,
min1.png,min2.png,min3.png,min4.png,images/allBlank.png,"['num_7', 'num_4', 'num_1', 'num_0']",['num_7'],num_7,[1],'num_7',images/min1.png,"[(0.45, 0.79)]",,,,,0,-1,-1,0,0,3,3,0,,,,,"(-0.75, 0.04)",images/min1.png,4,0.0583675897215,0.603118769359,[-0.2203125  0.025    ],,,,2018_Jun_17_1149,60.1028220881,sequenceLearningTask,001,136,
min1.png,min2.png,min3.png,min4.png,images/allBlank.png,"['num_7', 'num_4', 'num_1', 'num_0']",['num_7'],num_7,[1],'num_7',images/min1.png,"[(0.45, 0.79)]",,,,,0,-1,-1,0,0,3,3,0,,,,,"(-0.75, 0.04)",images/min1.png,4,0.0620939487126,0.70728615392,[-0.6796875   0.14444444],,,,2018_Jun_17_1149,60.1028220881,sequenceLearningTask,001,136,
min1.png,min2.png,min3.png,min4.png,images/allBlank.png,"['num_7', 'num_4', 'num_1', 'num_0']",['num_7'],num_7,[1],'num_7',images/min1.png,"[(0.45, 0.79)]",,,,,0,-1,-1,0,0,3,3,0,,,,,"(0.25, 0.04)",images/min3.png,4,0.0704127179924,0.839803897543,[-0.678125   -0.05555556],,,,2018_Jun_17_1149,60.1028220881,sequenceLearningTask,001,136,
min1.png,min2.png,min3.png,min4.png,images/allBlank.png,"['num_7', 'num_4', 'num_1', 'num_0']",['num_4'],num_4,[2],'num_4',images/min2.png,"[(0.45, 0.79)]",,,,,0,-1,-1,0,1,0,4,1,,,,,"(-0.75, 0.04)",images/min1.png,5,0.13135302579,0.891924102558,[ 0.20625     0.25833333],,,,2018_Jun_17_1149,60.1028220881,sequenceLearningTask,001,136,
min1.png,min2.png,min3.png,min4.png,images/allBlank.png,"['num_7', 'num_4', 'num_1', 'num_0']",['num_4'],num_4,[2],'num_4',images/min2.png,"[(0.45, 0.79)]",,,,,0,-1,-1,0,1,0,4,1,,,,,"(-0.25, 0.04)",images/min2.png,5,0.0644192821346,0.493974974379,[-0.64375    -0.01666667],,,,2018_Jun_17_1149,60.1028220881,sequenceLearningTask,001,136,
min1.png,min2.png,min3.png,min4.png,images/allBlank.png,"['num_7', 'num_4', 'num_1', 'num_0']",['num_4'],num_4,[2],'num_4',images/min2.png,"[(0.45, 0.79)]",,,,,0,-1,-1,0,1,0,4,1,,,,,"(-0.75, 0.04)",images/min1.png,5,0.0617997949012,0.766275692265,[-0.178125   -0.11388889],,,,2018_Jun_17_1149,60.1028220881,sequenceLearningTask,001,136,
min1.png,min2.png,min3.png,min4.png,images/allBlank.png,"['num_7', 'num_4', 'num_1', 'num_0']",['num_4'],num_4,[2],'num_4',images/min2.png,"[(0.45, 0.79)]",,,,,0,-1,-1,0,1,0,4,1,,,,,"(-0.75, 0.04)",images/min1.png,5,0.0702272821218,0.608729435829,[-0.646875   -0.01666667],,,,2018_Jun_17_1149,60.1028220881,sequenceLearningTask,001,136,
min1.png,min2.png,min3.png,min4.png,images/allBlank.png,"['num_7', 'num_4', 'num_1', 'num_0']",['num_0'],num_0,[4],'num_0',images/min4.png,"[(0.45, 0.79)]",,,,,0,-1,-1,0,1,1,5,3,,,,,"(-0.75, 0.04)",images/min1.png,6,0.0625099488534,0.56138051278,[-0.6        -0.02222222],,,,2018_Jun_17_1149,60.1028220881,sequenceLearningTask,001,136,
min1.png,min2.png,min3.png,min4.png,images/allBlank.png,"['num_7', 'num_4', 'num_1', 'num_0']",['num_0'],num_0,[4],'num_0',images/min4.png,"[(0.45, 0.79)]",,,,,0,-1,-1,0,1,1,5,3,,,,,"(-0.75, 0.04)",images/min1.png,6,0.060096410336,0.501087179407,[-0.5296875  -0.04722222],,,,2018_Jun_17_1149,60.1028220881,sequenceLearningTask,001,136,
min1.png,min2.png,min3.png,min4.png,images/allBlank.png,"['num_7', 'num_4', 'num_1', 'num_0']",['num_0'],num_0,[4],'num_0',images/min4.png,"[(0.45, 0.79)]",,,,,0,-1,-1,0,1,1,5,3,,,,,"(0.75, 0.04)",images/min4.png,6,0.0619696411304,1.26768615376,[-0.59375    -0.19722222],,,,2018_Jun_17_1149,60.1028220881,sequenceLearningTask,001,136,
min1.png,min2.png,min3.png,min4.png,images/allBlank.png,"['num_7', 'num_4', 'num_1', 'num_0']",['num_0'],num_0,[4],'num_0',images/min4.png,"[(0.45, 0.79)]",,,,,0,-1,-1,0,1,1,5,3,,,,,"(-0.25, 0.04)",images/min2.png,6,0.0541813333984,0.503835076932,[ 0.6609375   0.01388889],,,,2018_Jun_17_1149,60.1028220881,sequenceLearningTask,001,136,
min1.png,min2.png,min3.png,min4.png,images/allBlank.png,"['num_7', 'num_4', 'num_1', 'num_0']",['num_1'],num_1,[3],'num_1',images/min3.png,"[(0.45, 0.79)]",,,,,0,-1,-1,0,1,2,6,2,,,,,"(0.25, 0.04)",images/min3.png,7,0.0713312821463,0.532809436088,[-0.1609375   0.06666667],,,,2018_Jun_17_1149,60.1028220881,sequenceLearningTask,001,136,
min1.png,min2.png,min3.png,min4.png,images/allBlank.png,"['num_7', 'num_4', 'num_1', 'num_0']",['num_1'],num_1,[3],'num_1',images/min3.png,"[(0.45, 0.79)]",,,,,0,-1,-1,0,1,2,6,2,,,,,"(-0.75, 0.04)",images/min1.png,7,0.0684890255798,3.23450912815,[ 0.1796875  0.125    ],2.54419979476,1,,2018_Jun_17_1149,60.1028220881,sequenceLearningTask,001,136,
min1.png,min2.png,min3.png,min4.png,images/allBlank.png,"['num_7', 'num_4', 'num_1', 'num_0']",['num_1'],num_1,[3],'num_1',images/min3.png,"[(0.45, 0.79)]",,,,,0,-1,-1,0,1,2,6,2,,,,,"(0.25, 0.04)",images/min3.png,7,0.0568972306792,1.3023561025,[-0.5734375 -0.075    ],,,,2018_Jun_17_1149,60.1028220881,sequenceLearningTask,001,136,
min1.png,min2.png,min3.png,min4.png,images/allBlank.png,"['num_7', 'num_4', 'num_1', 'num_0']",['num_1'],num_1,[3],'num_1',images/min3.png,"[(0.45, 0.79)]",,,,,0,-1,-1,0,1,2,6,2,,,,,"(-0.25, 0.04)",images/min2.png,7,0.0632061539218,0.529623384587,[ 0.321875   -0.09722222],,,,2018_Jun_17_1149,60.1028220881,sequenceLearningTask,001,136,
min1.png,min2.png,min3.png,min4.png,images/allBlank.png,"['num_7', 'num_4', 'num_1', 'num_0']",['num_7'],num_7,[1],'num_7',images/min1.png,"[(0.45, 0.79)]",,,,,0,-1,-1,0,1,3,7,0,,,,,"(-0.75, 0.04)",images/min1.png,8,0.0527306667063,1.29317825637,[-0.1765625  -0.17222222],0.73283405113,1,,2018_Jun_17_1149,60.1028220881,sequenceLearningTask,001,136,
min1.png,min2.png,min3.png,min4.png,images/allBlank.png,"['num_7', 'num_4', 'num_1', 'num_0']",['num_7'],num_7,[1],'num_7',images/min1.png,"[(0.45, 0.79)]",,,,,0,-1,-1,0,1,3,7,0,,,,,"(0.25, 0.04)",images/min3.png,8,0.0717891282402,0.651392410276,[-0.5796875  -0.14166667],,,,2018_Jun_17_1149,60.1028220881,sequenceLearningTask,001,136,
min1.png,min2.png,min3.png,min4.png,images/allBlank.png,"['num_7', 'num_4', 'num_1', 'num_0']",['num_7'],num_7,[1],'num_7',images/min1.png,"[(0.45, 0.79)]",,,,,0,-1,-1,0,1,3,7,0,,,,,"(-0.25, 0.04)",images/min2.png,8,0.0634121026378,0.478021743707,[ 0.2296875  -0.14166667],,,,2018_Jun_17_1149,60.1028220881,sequenceLearningTask,001,136,
min1.png,min2.png,min3.png,min4.png,images/allBlank.png,"['num_7', 'num_4', 'num_1', 'num_0']",['num_7'],num_7,[1],'num_7',images/min1.png,"[(0.45, 0.79)]",,,,,0,-1,-1,0,1,3,7,0,,,,,"(0.25, 0.04)",images/min3.png,8,0.0615823590197,0.716264615301,[-0.1515625 -0.225    ],,,,2018_Jun_17_1149,60.1028220881,sequenceLearningTask,001,136,
min1.png,min2.png,min3.png,min4.png,images/allBlank.png,"['num_7', 'num_4', 'num_1', 'num_0']",['num_1'],num_1,[3],'num_1',images/min3.png,"[(0.45, 0.79)]",,,,,0,-1,-1,0,2,0,8,2,,,,,"(-0.75, 0.04)",images/min1.png,9,0.060834871605,2.02060512826,[ 0.2421875  -0.31666667],0.656682256376,1,,2018_Jun_17_1149,60.1028220881,sequenceLearningTask,001,136,
min1.png,min2.png,min3.png,min4.png,images/allBlank.png,"['num_7', 'num_4', 'num_1', 'num_0']",['num_1'],num_1,[3],'num_1',images/min3.png,"[(0.45, 0.79)]",,,,,0,-1,-1,0,2,0,8,2,,,,,"(0.75, 0.04)",images/min4.png,9,0.0683031794615,0.84256205149,[-0.83125    -0.03333333],,,,2018_Jun_17_1149,60.1028220881,sequenceLearningTask,001,136,
min1.png,min2.png,min3.png,min4.png,images/allBlank.png,"['num_7', 'num_4', 'num_1', 'num_0']",['num_1'],num_1,[3],'num_1',images/min3.png,"[(0.45, 0.79)]",,,,,0,-1,-1,0,2,0,8,2,,,,,"(0.25, 0.04)",images/min3.png,9,0.0649021537974,0.422571897507,[ 0.7203125  -0.11666667],,,,2018_Jun_17_1149,60.1028220881,sequenceLearningTask,001,136,
min1.png,min2.png,min3.png,min4.png,images/allBlank.png,"['num_7', 'num_4', 'num_1', 'num_0']",['num_1'],num_1,[3],'num_1',images/min3.png,"[(0.45, 0.79)]",,,,,0,-1,-1,0,2,0,8,2,,,,,"(0.75, 0.04)",images/min4.png,9,0.0641649230383,0.5961612307,[ 0.2921875   0.01388889],,,,2018_Jun_17_1149,60.1028220881,sequenceLearningTask,001,136,
min1.png,min2.png,min3.png,min4.png,images/allBlank.png,"['num_7', 'num_4', 'num_1', 'num_0']",['num_0'],num_0,[4],'num_0',images/min4.png,"[(0.45, 0.79)]",,,,,0,-1,-1,0,2,1,9,3,,,,,"(-0.25, 0.04)",images/min2.png,10,0.0624381538946,0.474305640906,[ 0.6859375   0.06944444],,,,2018_Jun_17_1149,60.1028220881,sequenceLearningTask,001,136,
min1.png,min2.png,min3.png,min4.png,images/allBlank.png,"['num_7', 'num_4', 'num_1', 'num_0']",['num_0'],num_0,[4],'num_0',images/min4.png,"[(0.45, 0.79)]",,,,,0,-1,-1,0,2,1,9,3,,,,,"(-0.25, 0.04)",images/min2.png,10,0.0526157950517,0.675201641163,[-0.3171875  -0.03333333],0.30592984613,1,,2018_Jun_17_1149,60.1028220881,sequenceLearningTask,001,136,
min1.png,min2.png,min3.png,min4.png,images/allBlank.png,"['num_7', 'num_4', 'num_1', 'num_0']",['num_0'],num_0,[4],'num_0',images/min4.png,"[(0.45, 0.79)]",,,,,0,-1,-1,0,2,1,9,3,,,,,"(0.75, 0.04)",images/min4.png,10,0.0578617437277,0.780920615187,[-0.3203125  -0.14444444],,,,2018_Jun_17_1149,60.1028220881,sequenceLearningTask,001,136,
min1.png,min2.png,min3.png,min4.png,images/allBlank.png,"['num_7', 'num_4', 'num_1', 'num_0']",['num_0'],num_0,[4],'num_0',images/min4.png,"[(0.45, 0.79)]",,,,,0,-1,-1,0,2,1,9,3,,,,,"(-0.25, 0.04)",images/min2.png,10,0.0570469745435,0.466853333404,[ 0.7109375  -0.06944444],,,,2018_Jun_17_1149,60.1028220881,sequenceLearningTask,001,136,
min1.png,min2.png,min3.png,min4.png,images/allBlank.png,"['num_7', 'num_4', 'num_1', 'num_0']",['num_7'],num_7,[1],'num_7',images/min1.png,"[(0.45, 0.79)]",,,,,0,-1,-1,0,2,2,10,0,,,,,"(-0.75, 0.04)",images/min1.png,11,0.0559831794817,0.935777641134,[-0.184375   -0.00833333],,,,2018_Jun_17_1149,60.1028220881,sequenceLearningTask,001,136,
min1.png,min2.png,min3.png,min4.png,images/allBlank.png,"['num_7', 'num_4', 'num_1', 'num_0']",['num_7'],num_7,[1],'num_7',images/min1.png,"[(0.45, 0.79)]",,,,,0,-1,-1,0,2,2,10,0,,,,,"(-0.25, 0.04)",images/min2.png,11,0.0576242050156,0.499246769352,[-0.7140625  -0.02222222],,,,2018_Jun_17_1149,60.1028220881,sequenceLearningTask,001,136,
min1.png,min2.png,min3.png,min4.png,images/allBlank.png,"['num_7', 'num_4', 'num_1', 'num_0']",['num_7'],num_7,[1],'num_7',images/min1.png,"[(0.45, 0.79)]",,,,,0,-1,-1,0,2,2,10,0,,,,,"(-0.75, 0.04)",images/min1.png,11,0.0589673845097,0.668878359022,[-0.1484375   0.08055556],,,,2018_Jun_17_1149,60.1028220881,sequenceLearningTask,001,136,
min1.png,min2.png,min3.png,min4.png,images/allBlank.png,"['num_7', 'num_4', 'num_1', 'num_0']",['num_7'],num_7,[1],'num_7',images/min1.png,"[(0.45, 0.79)]",,,,,0,-1,-1,0,2,2,10,0,,,,,"(0.25, 0.04)",images/min3.png,11,0.0612032818608,0.729951179354,[-0.6671875  -0.26111111],,,,2018_Jun_17_1149,60.1028220881,sequenceLearningTask,001,136,
min1.png,min2.png,min3.png,min4.png,images/allBlank.png,"['num_7', 'num_4', 'num_1', 'num_0']",['num_4'],num_4,[2],'num_4',images/min2.png,"[(0.45, 0.79)]",,,,,0,-1,-1,0,2,3,11,1,,,,,"(-0.75, 0.04)",images/min1.png,12,0.0626605129801,0.709426051239,[ 0.2453125  -0.26388889],,,,2018_Jun_17_1149,60.1028220881,sequenceLearningTask,001,136,
min1.png,min2.png,min3.png,min4.png,images/allBlank.png,"['num_7', 'num_4', 'num_1', 'num_0']",['num_4'],num_4,[2],'num_4',images/min2.png,"[(0.45, 0.79)]",,,,,0,-1,-1,0,2,3,11,1,,,,,"(-0.75, 0.04)",images/min1.png,12,0.0625226665288,1.7193103591,[-0.76875     0.06388889],,,,2018_Jun_17_1149,60.1028220881,sequenceLearningTask,001,136,
min1.png,min2.png,min3.png,min4.png,images/allBlank.png,"['num_7', 'num_4', 'num_1', 'num_0']",['num_4'],num_4,[2],'num_4',images/min2.png,"[(0.45, 0.79)]",,,,,0,-1,-1,0,2,3,11,1,,,,,"(-0.25, 0.04)",images/min2.png,12,0.0685526153538,0.540113641182,[ 0.9859375  -0.67222222],,,,2018_Jun_17_1149,60.1028220881,sequenceLearningTask,001,136,
min1.png,min2.png,min3.png,min4.png,images/allBlank.png,"['num_7', 'num_4', 'num_1', 'num_0']",['num_4'],num_4,[2],'num_4',images/min2.png,"[(0.45, 0.79)]",,,,,0,-1,-1,0,2,3,11,1,,,,,"(0.25, 0.04)",images/min3.png,12,0.0554962051101,0.619826051407,[-0.2390625   0.01388889],,,,2018_Jun_17_1149,60.1028220881,sequenceLearningTask,001,136,
min1.png,min2.png,min3.png,min4.png,images/allBlank.png,"['num_7', 'num_4', 'num_1', 'num_0']",['num_4'],num_4,[2],'num_4',images/min2.png,"[(0.45, 0.79)]",,,,,0,-1,-1,0,3,0,12,1,,,,,"(-0.75, 0.04)",images/min1.png,13,0.0545792819466,0.66725456412,[ 0.2171875   0.09166667],,,,2018_Jun_17_1149,60.1028220881,sequenceLearningTask,001,136,
min1.png,min2.png,min3.png,min4.png,images/allBlank.png,"['num_7', 'num_4', 'num_1', 'num_0']",['num_4'],num_4,[2],'num_4',images/min2.png,"[(0.45, 0.79)]",,,,,0,-1,-1,0,3,0,12,1,,,,,"(-0.75, 0.04)",images/min1.png,13,0.0632988719735,1.15421661525,[-0.6484375  -0.06111111],,,,2018_Jun_17_1149,60.1028220881,sequenceLearningTask,001,136,
min1.png,min2.png,min3.png,min4.png,images/allBlank.png,"['num_7', 'num_4', 'num_1', 'num_0']",['num_4'],num_4,[2],'num_4',images/min2.png,"[(0.45, 0.79)]",,,,,0,-1,-1,0,3,0,12,1,,,,,"(-0.75, 0.04)",images/min1.png,13,0.0569460510742,0.579686974408,[-0.6125     -0.15555556],,,,2018_Jun_17_1149,60.1028220881,sequenceLearningTask,001,136,
min1.png,min2.png,min3.png,min4.png,images/allBlank.png,"['num_7', 'num_4', 'num_1', 'num_0']",['num_4'],num_4,[2],'num_4',images/min2.png,"[(0.45, 0.79)]",,,,,0,-1,-1,0,3,0,12,1,,,,,"(0.25, 0.04)",images/min3.png,13,0.0573965127114,0.534071794944,[-0.615625   -0.31944444],,,,2018_Jun_17_1149,60.1028220881,sequenceLearningTask,001,136,
min1.png,min2.png,min3.png,min4.png,images/allBlank.png,"['num_7', 'num_4', 'num_1', 'num_0']",['num_1'],num_1,[3],'num_1',images/min3.png,"[(0.45, 0.79)]",,,,,0,-1,-1,0,3,1,13,2,,,,,"(0.25, 0.04)",images/min3.png,14,0.0585218463093,0.55758235883,[ 0.175       0.16111111],,,,2018_Jun_17_1149,60.1028220881,sequenceLearningTask,001,136,
min1.png,min2.png,min3.png,min4.png,images/allBlank.png,"['num_7', 'num_4', 'num_1', 'num_0']",['num_1'],num_1,[3],'num_1',images/min3.png,"[(0.45, 0.79)]",,,,,0,-1,-1,0,3,1,13,2,,,,,"(-0.75, 0.04)",images/min1.png,14,0.060479589738,0.750975589734,[ 0.1890625   0.05833333],,,,2018_Jun_17_1149,60.1028220881,sequenceLearningTask,001,136,
min1.png,min2.png,min3.png,min4.png,images/allBlank.png,"['num_7', 'num_4', 'num_1', 'num_0']",['num_1'],num_1,[3],'num_1',images/min3.png,"[(0.45, 0.79)]",,,,,0,-1,-1,0,3,1,13,2,,,,,"(0.75, 0.04)",images/min4.png,14,0.0539528203662,1.10992902564,[-0.659375   -0.27222222],,,,2018_Jun_17_1149,60.1028220881,sequenceLearningTask,001,136,
min1.png,min2.png,min3.png,min4.png,images/allBlank.png,"['num_7', 'num_4', 'num_1', 'num_0']",['num_1'],num_1,[3],'num_1',images/min3.png,"[(0.45, 0.79)]",,,,,0,-1,-1,0,3,1,13,2,,,,,"(0.25, 0.04)",images/min3.png,14,0.0701009230688,0.939545846079,[ 0.6875  0.075 ],0.488439384615,1,,2018_Jun_17_1149,60.1028220881,sequenceLearningTask,001,136,
min1.png,min2.png,min3.png,min4.png,images/allBlank.png,"['num_7', 'num_4', 'num_1', 'num_0']",['num_0'],num_0,[4],'num_0',images/min4.png,"[(0.45, 0.79)]",,,,,0,-1,-1,0,3,2,14,3,,,,,"(-0.75, 0.04)",images/min1.png,15,0.0530719999224,1.1403409231,[ 0.2671875   0.09166667],,,,2018_Jun_17_1149,60.1028220881,sequenceLearningTask,001,136,
min1.png,min2.png,min3.png,min4.png,images/allBlank.png,"['num_7', 'num_4', 'num_1', 'num_0']",['num_0'],num_0,[4],'num_0',images/min4.png,"[(0.45, 0.79)]",,,,,0,-1,-1,0,3,2,14,3,,,,,"(0.25, 0.04)",images/min3.png,15,0.0244393844623,0.985275487183,[-0.6171875  -0.09722222],0.00262564094737,1,,2018_Jun_17_1149,60.1028220881,sequenceLearningTask,001,136,
min1.png,min2.png,min3.png,min4.png,images/allBlank.png,"['num_7', 'num_4', 'num_1', 'num_0']",['num_0'],num_0,[4],'num_0',images/min4.png,"[(0.45, 0.79)]",,,,,0,-1,-1,0,3,2,14,3,,,,,"(0.75, 0.04)",images/min4.png,15,0.0576049231458,0.952932512853,[ 0.1828125   0.21944444],,,,2018_Jun_17_1149,60.1028220881,sequenceLearningTask,001,136,
min1.png,min2.png,min3.png,min4.png,images/allBlank.png,"['num_7', 'num_4', 'num_1', 'num_0']",['num_0'],num_0,[4],'num_0',images/min4.png,"[(0.45, 0.79)]",,,,,0,-1,-1,0,3,2,14,3,,,,,"(0.75, 0.04)",images/min4.png,15,0.0555277948733,0.735793230589,[ 0.7765625  0.125    ],,,,2018_Jun_17_1149,60.1028220881,sequenceLearningTask,001,136,
min1.png,min2.png,min3.png,min4.png,images/allBlank.png,"['num_7', 'num_4', 'num_1', 'num_0']",['num_7'],num_7,[1],'num_7',images/min1.png,"[(0.45, 0.79)]",,,,,0,-1,-1,0,3,3,15,0,,,,,"(-0.25, 0.04)",images/min2.png,16,0.0660069743171,0.772020923207,[ 0.7421875 -0.025    ],,,,2018_Jun_17_1149,60.1028220881,sequenceLearningTask,001,136,
min1.png,min2.png,min3.png,min4.png,images/allBlank.png,"['num_7', 'num_4', 'num_1', 'num_0']",['num_7'],num_7,[1],'num_7',images/min1.png,"[(0.45, 0.79)]",,,,,0,-1,-1,0,3,3,15,0,,,,,"(-0.25, 0.04)",images/min2.png,16,0.0690420514438,0.400720820529,[-0.2921875   0.09444444],,,,2018_Jun_17_1149,60.1028220881,sequenceLearningTask,001,136,
min1.png,min2.png,min3.png,min4.png,images/allBlank.png,"['num_7', 'num_4', 'num_1', 'num_0']",['num_7'],num_7,[1],'num_7',images/min1.png,"[(0.45, 0.79)]",,,,,0,-1,-1,0,3,3,15,0,,,,,"(-0.25, 0.04)",images/min2.png,16,0.0711126152892,0.0,[-0.1875 -0.025 ],,,1,2018_Jun_17_1149,60.1028220881,sequenceLearningTask,001,136,
min1.png,min2.png,min3.png,min4.png,images/allBlank.png,"['num_7', 'num_4', 'num_1', 'num_0']",['num_7'],num_7,[1],'num_7',images/min1.png,"[(0.45, 0.79)]",,,,,0,-1,-1,0,3,3,15,0,,,,,"(-0.25, 0.04)",images/min2.png,16,0.0556168206967,0.53993517952,[-0.2234375  -0.05277778],,,,2018_Jun_17_1149,60.1028220881,sequenceLearningTask,001,136,
min1.png,min2.png,min3.png,min4.png,images/allBlank.png,"['num_7', 'num_4', 'num_1', 'num_0']",['num_1'],num_1,[3],'num_1',images/min3.png,"[(0.45, 0.79)]",,,,,0,-1,-1,0,4,0,16,2,,,,,"(-0.25, 0.04)",images/min2.png,17,0.0622412306257,0.544511999935,[-0.265625   -0.02222222],,,,2018_Jun_17_1149,60.1028220881,sequenceLearningTask,001,136,
min1.png,min2.png,min3.png,min4.png,images/allBlank.png,"['num_7', 'num_4', 'num_1', 'num_0']",['num_1'],num_1,[3],'num_1',images/min3.png,"[(0.45, 0.79)]",,,,,0,-1,-1,0,4,0,16,2,,,,,"(-0.75, 0.04)",images/min1.png,17,0.056045538513,0.937679179478,[-0.2578125   0.03333333],,,,2018_Jun_17_1149,60.1028220881,sequenceLearningTask,001,136,
min1.png,min2.png,min3.png,min4.png,images/allBlank.png,"['num_7', 'num_4', 'num_1', 'num_0']",['num_1'],num_1,[3],'num_1',images/min3.png,"[(0.45, 0.79)]",,,,,0,-1,-1,0,4,0,16,2,,,,,"(0.75, 0.04)",images/min4.png,17,0.0604471794795,0.630891487002,[-0.6265625   0.15277778],,,,2018_Jun_17_1149,60.1028220881,sequenceLearningTask,001,136,
min1.png,min2.png,min3.png,min4.png,images/allBlank.png,"['num_7', 'num_4', 'num_1', 'num_0']",['num_1'],num_1,[3],'num_1',images/min3.png,"[(0.45, 0.79)]",,,,,0,-1,-1,0,4,0,16,2,,,,,"(0.25, 0.04)",images/min3.png,17,0.0627729231492,0.590941948816,[ 0.765625    0.14722222],0.00279507692903,1,,2018_Jun_17_1149,60.1028220881,sequenceLearningTask,001,136,
min1.png,min2.png,min3.png,min4.png,images/allBlank.png,"['num_7', 'num_4', 'num_1', 'num_0']",['num_7'],num_7,[1],'num_7',images/min1.png,"[(0.45, 0.79)]",,,,,0,-1,-1,0,4,1,17,0,,,,,"(-0.75, 0.04)",images/min1.png,18,0.055832615355,0.636882051127,[ 0.2140625  -0.03055556],,,,2018_Jun_17_1149,60.1028220881,sequenceLearningTask,001,136,
min1.png,min2.png,min3.png,min4.png,images/allBlank.png,"['num_7', 'num_4', 'num_1', 'num_0']",['num_7'],num_7,[1],'num_7',images/min1.png,"[(0.45, 0.79)]",,,,,0,-1,-1,0,4,1,17,0,,,,,"(-0.25, 0.04)",images/min2.png,18,0.0568590769544,0.435557333287,[-0.6453125  -0.13611111],,,,2018_Jun_17_1149,60.1028220881,sequenceLearningTask,001,136,
min1.png,min2.png,min3.png,min4.png,images/allBlank.png,"['num_7', 'num_4', 'num_1', 'num_0']",['num_7'],num_7,[1],'num_7',images/min1.png,"[(0.45, 0.79)]",,,,,0,-1,-1,0,4,1,17,0,,,,,"(-0.75, 0.04)",images/min1.png,18,0.0588287177961,0.751065846067,[-0.2921875  -0.19166667],,,,2018_Jun_17_1149,60.1028220881,sequenceLearningTask,001,136,
min1.png,min2.png,min3.png,min4.png,images/allBlank.png,"['num_7', 'num_4', 'num_1', 'num_0']",['num_7'],num_7,[1],'num_7',images/min1.png,"[(0.45, 0.79)]",,,,,0,-1,-1,0,4,1,17,0,,,,,"(-0.75, 0.04)",images/min1.png,18,0.0594629743136,0.700852512848,[-0.63125    -0.26944444],,,,2018_Jun_17_1149,60.1028220881,sequenceLearningTask,001,136,
min1.png,min2.png,min3.png,min4.png,images/allBlank.png,"['num_7', 'num_4', 'num_1', 'num_0']",['num_4'],num_4,[2],'num_4',images/min2.png,"[(0.45, 0.79)]",,,,,0,-1,-1,0,4,2,18,1,,,,,"(-0.75, 0.04)",images/min1.png,19,0.0622925127391,0.00285825645551,[-0.5984375  -0.15555556],,,1,2018_Jun_17_1149,60.1028220881,sequenceLearningTask,001,136,
min1.png,min2.png,min3.png,min4.png,images/allBlank.png,"['num_7', 'num_4', 'num_1', 'num_0']",['num_4'],num_4,[2],'num_4',images/min2.png,"[(0.45, 0.79)]",,,,,0,-1,-1,0,4,2,18,1,,,,,"(0.25, 0.04)",images/min3.png,19,0.0598687180318,0.669105230831,[-0.5578125  -0.15555556],,,,2018_Jun_17_1149,60.1028220881,sequenceLearningTask,001,136,
min1.png,min2.png,min3.png,min4.png,images/allBlank.png,"['num_7', 'num_4', 'num_1', 'num_0']",['num_4'],num_4,[2],'num_4',images/min2.png,"[(0.45, 0.79)]",,,,,0,-1,-1,0,4,2,18,1,,,,,"(0.25, 0.04)",images/min3.png,19,0.0589288203046,0.550301128067,[ 0.3859375   0.13055556],,,,2018_Jun_17_1149,60.1028220881,sequenceLearningTask,001,136,
min1.png,min2.png,min3.png,min4.png,images/allBlank.png,"['num_7', 'num_4', 'num_1', 'num_0']",['num_4'],num_4,[2],'num_4',images/min2.png,"[(0.45, 0.79)]",,,,,0,-1,-1,0,4,2,18,1,,,,,"(-0.75, 0.04)",images/min1.png,19,0.0714555897284,0.701363282045,[ 0.2828125   0.21666667],0.00487958965823,1,,2018_Jun_17_1149,60.1028220881,sequenceLearningTask,001,136,
min1.png,min2.png,min3.png,min4.png,images/allBlank.png,"['num_7', 'num_4', 'num_1', 'num_0']",['num_0'],num_0,[4],'num_0',images/min4.png,"[(0.45, 0.79)]",,,,,0,-1,-1,0,4,3,19,3,,,,,"(-0.25, 0.04)",images/min2.png,20,0.0245801026467,0.427826461615,[-0.665625   -0.01111111],,,,2018_Jun_17_1149,60.1028220881,sequenceLearningTask,001,136,
min1.png,min2.png,min3.png,min4.png,images/allBlank.png,"['num_7', 'num_4', 'num_1', 'num_0']",['num_0'],num_0,[4],'num_0',images/min4.png,"[(0.45, 0.79)]",,,,,0,-1,-1,0,4,3,19,3,,,,,"(0.25, 0.04)",images/min3.png,20,0.0604020513128,0.450489435811,[-0.1921875   0.03333333],,,,2018_Jun_17_1149,60.1028220881,sequenceLearningTask,001,136,
min1.png,min2.png,min3.png,min4.png,images/allBlank.png,"['num_7', 'num_4', 'num_1', 'num_0']",['num_0'],num_0,[4],'num_0',images/min4.png,"[(0.45, 0.79)]",,,,,0,-1,-1,0,4,3,19,3,,,,,"(0.75, 0.04)",images/min4.png,20,0.0637817436364,0.670232204953,[ 0.2859375   0.03611111],,,,2018_Jun_17_1149,60.1028220881,sequenceLearningTask,001,136,
min1.png,min2.png,min3.png,min4.png,images/allBlank.png,"['num_7', 'num_4', 'num_1', 'num_0']",['num_0'],num_0,[4],'num_0',images/min4.png,"[(0.45, 0.79)]",,,,,0,-1,-1,0,4,3,19,3,,,,,"(-0.75, 0.04)",images/min1.png,20,0.076255179476,0.513713230845,[ 0.6734375   0.14444444],,,,2018_Jun_17_1149,60.1028220881,sequenceLearningTask,001,136,
min1.png,min2.png,min3.png,min4.png,images/allBlank.png,"['num_7', 'num_4', 'num_1', 'num_0']",['num_4'],num_4,[2],'num_4',images/min2.png,"[(0.45, 0.79)]",,,,,0,-1,-1,0,0,0,0,1,,,,,"(0.25, 0.04)",images/min3.png,1,0.0261374360416,0.766978461528,[-0.6984375 -0.075    ],,,,2018_Jun_17_1149,60.1028220881,sequenceLearningTask,001,136,
min1.png,min2.png,min3.png,min4.png,images/allBlank.png,"['num_7', 'num_4', 'num_1', 'num_0']",['num_4'],num_4,[2],'num_4',images/min2.png,"[(0.45, 0.79)]",,,,,0,-1,-1,0,0,0,0,1,,,,,"(-0.25, 0.04)",images/min2.png,1,0.0602748717647,0.615150769241,[ 0.1828125 -0.2      ],,,,2018_Jun_17_1149,60.1028220881,sequenceLearningTask,001,136,
min1.png,min2.png,min3.png,min4.png,images/allBlank.png,"['num_7', 'num_4', 'num_1', 'num_0']",['num_4'],num_4,[2],'num_4',images/min2.png,"[(0.45, 0.79)]",,,,,0,-1,-1,0,0,0,0,1,,,,,"(-0.75, 0.04)",images/min1.png,1,0.0642281025648,0.626252718037,[-0.25625    -0.09166667],,,,2018_Jun_17_1149,60.1028220881,sequenceLearningTask,001,136,
min1.png,min2.png,min3.png,min4.png,images/allBlank.png,"['num_7', 'num_4', 'num_1', 'num_0']",['num_4'],num_4,[2],'num_4',images/min2.png,"[(0.45, 0.79)]",,,,,0,-1,-1,0,0,0,0,1,,,,,"(0.75, 0.04)",images/min4.png,1,0.0616832820233,0.529115897371,[-0.6765625  -0.21388889],,,,2018_Jun_17_1149,60.1028220881,sequenceLearningTask,001,136,
min1.png,min2.png,min3.png,min4.png,images/allBlank.png,"['num_7', 'num_4', 'num_1', 'num_0']",['num_1'],num_1,[3],'num_1',images/min3.png,"[(0.45, 0.79)]",,,,,0,-1,-1,0,0,1,1,2,,,,,"(-0.25, 0.04)",images/min2.png,2,0.0562400000636,0.603150358889,[ 0.8171875  -0.08611111],,,,2018_Jun_17_1149,60.1028220881,sequenceLearningTask,001,136,
min1.png,min2.png,min3.png,min4.png,images/allBlank.png,"['num_7', 'num_4', 'num_1', 'num_0']",['num_1'],num_1,[3],'num_1',images/min3.png,"[(0.45, 0.79)]",,,,,0,-1,-1,0,0,1,1,2,,,,,"(-0.75, 0.04)",images/min1.png,2,0.0576004101895,0.706171897473,[-0.2828125  -0.14444444],,,,2018_Jun_17_1149,60.1028220881,sequenceLearningTask,001,136,
min1.png,min2.png,min3.png,min4.png,images/allBlank.png,"['num_7', 'num_4', 'num_1', 'num_0']",['num_1'],num_1,[3],'num_1',images/min3.png,"[(0.45, 0.79)]",,,,,0,-1,-1,0,0,1,1,2,,,,,"(0.75, 0.04)",images/min4.png,2,0.0642367179971,0.590874256333,[-0.6640625  -0.21111111],,,,2018_Jun_17_1149,60.1028220881,sequenceLearningTask,001,136,
min1.png,min2.png,min3.png,min4.png,images/allBlank.png,"['num_7', 'num_4', 'num_1', 'num_0']",['num_1'],num_1,[3],'num_1',images/min3.png,"[(0.45, 0.79)]",,,,,0,-1,-1,0,0,1,1,2,,,,,"(0.25, 0.04)",images/min3.png,2,0.0574826665688,0.520855794894,[ 0.671875   -0.11388889],,,,2018_Jun_17_1149,60.1028220881,sequenceLearningTask,001,136,
min1.png,min2.png,min3.png,min4.png,images/allBlank.png,"['num_7', 'num_4', 'num_1', 'num_0']",['num_0'],num_0,[4],'num_0',images/min4.png,"[(0.45, 0.79)]",,,,,0,-1,-1,0,0,2,2,3,,,,,"(0.25, 0.04)",images/min3.png,3,0.0575089231133,0.540299077053,[ 0.2234375  -0.23888889],,,,2018_Jun_17_1149,60.1028220881,sequenceLearningTask,001,136,
min1.png,min2.png,min3.png,min4.png,images/allBlank.png,"['num_7', 'num_4', 'num_1', 'num_0']",['num_0'],num_0,[4],'num_0',images/min4.png,"[(0.45, 0.79)]",,,,,0,-1,-1,0,0,2,2,3,,,,,"(0.75, 0.04)",images/min4.png,3,0.0609193847049,0.584852102678,[ 0.2390625  -0.11111111],,,,2018_Jun_17_1149,60.1028220881,sequenceLearningTask,001,136,
min1.png,min2.png,min3.png,min4.png,images/allBlank.png,"['num_7', 'num_4', 'num_1', 'num_0']",['num_0'],num_0,[4],'num_0',images/min4.png,"[(0.45, 0.79)]",,,,,0,-1,-1,0,0,2,2,3,,,,,"(0.25, 0.04)",images/min3.png,3,0.0628172305878,0.513687794795,[ 0.75       -0.10555556],,,,2018_Jun_17_1149,60.1028220881,sequenceLearningTask,001,136,
min1.png,min2.png,min3.png,min4.png,images/allBlank.png,"['num_7', 'num_4', 'num_1', 'num_0']",['num_0'],num_0,[4],'num_0',images/min4.png,"[(0.45, 0.79)]",,,,,0,-1,-1,0,0,2,2,3,,,,,"(0.75, 0.04)",images/min4.png,3,0.0578301537316,0.555225435877,[ 0.2515625  -0.10833333],,,,2018_Jun_17_1149,60.1028220881,sequenceLearningTask,001,136,
min1.png,min2.png,min3.png,min4.png,images/allBlank.png,"['num_7', 'num_4', 'num_1', 'num_0']",['num_7'],num_7,[1],'num_7',images/min1.png,"[(0.45, 0.79)]",,,,,0,-1,-1,0,0,3,3,0,,,,,"(0.25, 0.04)",images/min3.png,4,0.0597813331988,0.49481723085,[ 0.7046875  -0.10833333],,,,2018_Jun_17_1149,60.1028220881,sequenceLearningTask,001,136,
min1.png,min2.png,min3.png,min4.png,images/allBlank.png,"['num_7', 'num_4', 'num_1', 'num_0']",['num_7'],num_7,[1],'num_7',images/min1.png,"[(0.45, 0.79)]",,,,,0,-1,-1,0,0,3,3,0,,,,,"(-0.25, 0.04)",images/min2.png,4,0.0579306664877,0.610767589649,[ 0.075 -0.325],,,,2018_Jun_17_1149,60.1028220881,sequenceLearningTask,001,136,
min1.png,min2.png,min3.png,min4.png,images/allBlank.png,"['num_7', 'num_4', 'num_1', 'num_0']",['num_7'],num_7,[1],'num_7',images/min1.png,"[(0.45, 0.79)]",,,,,0,-1,-1,0,0,3,3,0,,,,,"(-0.75, 0.04)",images/min1.png,4,0.0598531281576,0.582527179504,[-0.209375   -0.26111111],,,,2018_Jun_17_1149,60.1028220881,sequenceLearningTask,001,136,
min1.png,min2.png,min3.png,min4.png,images/allBlank.png,"['num_7', 'num_4', 'num_1', 'num_0']",['num_7'],num_7,[1],'num_7',images/min1.png,"[(0.45, 0.79)]",,,,,0,-1,-1,0,0,3,3,0,,,,,"(0.25, 0.04)",images/min3.png,4,0.0568955896888,0.695996718016,[-0.7578125  -0.28055556],,,,2018_Jun_17_1149,60.1028220881,sequenceLearningTask,001,136,
min1.png,min2.png,min3.png,min4.png,images/allBlank.png,"['num_7', 'num_4', 'num_1', 'num_0']",['num_7'],num_7,[1],'num_7',images/min1.png,"[(0.45, 0.79)]",,,,,0,-1,-1,0,1,0,4,0,,,,,"(-0.75, 0.04)",images/min1.png,5,0.0688722052146,0.780969846062,[ 0.2703125  -0.13055556],,,,2018_Jun_17_1149,60.1028220881,sequenceLearningTask,001,136,
min1.png,min2.png,min3.png,min4.png,images/allBlank.png,"['num_7', 'num_4', 'num_1', 'num_0']",['num_7'],num_7,[1],'num_7',images/min1.png,"[(0.45, 0.79)]",,,,,0,-1,-1,0,1,0,4,0,,,,,"(0.25, 0.04)",images/min3.png,5,0.0562908716965,0.538103794912,[-0.703125   -0.14722222],,,,2018_Jun_17_1149,60.1028220881,sequenceLearningTask,001,136,
min1.png,min2.png,min3.png,min4.png,images/allBlank.png,"['num_7', 'num_4', 'num_1', 'num_0']",['num_7'],num_7,[1],'num_7',images/min1.png,"[(0.45, 0.79)]",,,,,0,-1,-1,0,1,0,4,0,,,,,"(0.25, 0.04)",images/min3.png,5,0.0636426666752,0.59416943579,[ 0.1328125  -0.28055556],,,,2018_Jun_17_1149,60.1028220881,sequenceLearningTask,001,136,
min1.png,min2.png,min3.png,min4.png,images/allBlank.png,"['num_7', 'num_4', 'num_1', 'num_0']",['num_7'],num_7,[1],'num_7',images/min1.png,"[(0.45, 0.79)]",,,,,0,-1,-1,0,1,0,4,0,,,,,"(-0.25, 0.04)",images/min2.png,5,0.0563950769138,0.72074420494,[ 0.1765625  -0.23611111],,,,2018_Jun_17_1149,60.1028220881,sequenceLearningTask,001,136,
min1.png,min2.png,min3.png,min4.png,images/allBlank.png,"['num_7', 'num_4', 'num_1', 'num_0']",['num_0'],num_0,[4],'num_0',images/min4.png,"[(0.45, 0.79)]",,,,,0,-1,-1,0,1,1,5,3,,,,,"(0.25, 0.04)",images/min3.png,6,0.0576188717969,0.660155076999,[-0.321875   -0.08611111],,,,2018_Jun_17_1149,60.1028220881,sequenceLearningTask,001,136,
min1.png,min2.png,min3.png,min4.png,images/allBlank.png,"['num_7', 'num_4', 'num_1', 'num_0']",['num_0'],num_0,[4],'num_0',images/min4.png,"[(0.45, 0.79)]",,,,,0,-1,-1,0,1,1,5,3,,,,,"(0.75, 0.04)",images/min4.png,6,0.062617846299,0.49520984618,[ 0.1359375  -0.25277778],,,,2018_Jun_17_1149,60.1028220881,sequenceLearningTask,001,136,
min1.png,min2.png,min3.png,min4.png,images/allBlank.png,"['num_7', 'num_4', 'num_1', 'num_0']",['num_0'],num_0,[4],'num_0',images/min4.png,"[(0.45, 0.79)]",,,,,0,-1,-1,0,1,1,5,3,,,,,"(0.75, 0.04)",images/min4.png,6,0.0602765129879,0.548913230887,[ 0.6046875  -0.19444444],,,,2018_Jun_17_1149,60.1028220881,sequenceLearningTask,001,136,
min1.png,min2.png,min3.png,min4.png,images/allBlank.png,"['num_7', 'num_4', 'num_1', 'num_0']",['num_0'],num_0,[4],'num_0',images/min4.png,"[(0.45, 0.79)]",,,,,0,-1,-1,0,1,1,5,3,,,,,"(-0.75, 0.04)",images/min1.png,6,0.0550494359341,0.814946461469,[ 0.64375    -0.23611111],,,,2018_Jun_17_1149,60.1028220881,sequenceLearningTask,001,136,
min1.png,min2.png,min3.png,min4.png,images/allBlank.png,"['num_7', 'num_4', 'num_1', 'num_0']",['num_1'],num_1,[3],'num_1',images/min3.png,"[(0.45, 0.79)]",,,,,0,-1,-1,0,1,2,6,2,,,,,"(-0.25, 0.04)",images/min2.png,7,0.0574404101353,0.533341538394,[-0.7828125 -0.175    ],,,,2018_Jun_17_1149,60.1028220881,sequenceLearningTask,001,136,
min1.png,min2.png,min3.png,min4.png,images/allBlank.png,"['num_7', 'num_4', 'num_1', 'num_0']",['num_1'],num_1,[3],'num_1',images/min3.png,"[(0.45, 0.79)]",,,,,0,-1,-1,0,1,2,6,2,,,,,"(-0.75, 0.04)",images/min1.png,7,0.0562428717967,0.804198974511,[-0.2171875  -0.24166667],,,,2018_Jun_17_1149,60.1028220881,sequenceLearningTask,001,136,
min1.png,min2.png,min3.png,min4.png,images/allBlank.png,"['num_7', 'num_4', 'num_1', 'num_0']",['num_1'],num_1,[3],'num_1',images/min3.png,"[(0.45, 0.79)]",,,,,0,-1,-1,0,1,2,6,2,,,,,"(0.25, 0.04)",images/min3.png,7,0.066628923174,0.592335179448,[-0.6578125  -0.24722222],,,,2018_Jun_17_1149,60.1028220881,sequenceLearningTask,001,136,
min1.png,min2.png,min3.png,min4.png,images/allBlank.png,"['num_7', 'num_4', 'num_1', 'num_0']",['num_1'],num_1,[3],'num_1',images/min3.png,"[(0.45, 0.79)]",,,,,0,-1,-1,0,1,2,6,2,,,,,"(-0.25, 0.04)",images/min2.png,7,0.0615864614956,0.644786871737,[ 0.0890625  -0.18055556],,,,2018_Jun_17_1149,60.1028220881,sequenceLearningTask,001,136,
min1.png,min2.png,min3.png,min4.png,images/allBlank.png,"['num_7', 'num_4', 'num_1', 'num_0']",['num_4'],num_4,[2],'num_4',images/min2.png,"[(0.45, 0.79)]",,,,,0,-1,-1,0,1,3,7,1,,,,,"(0.75, 0.04)",images/min4.png,8,0.0581493333448,0.531801025616,[-0.2359375  -0.16944444],,,,2018_Jun_17_1149,60.1028220881,sequenceLearningTask,001,136,
min1.png,min2.png,min3.png,min4.png,images/allBlank.png,"['num_7', 'num_4', 'num_1', 'num_0']",['num_4'],num_4,[2],'num_4',images/min2.png,"[(0.45, 0.79)]",,,,,0,-1,-1,0,1,3,7,1,,,,,"(0.75, 0.04)",images/min4.png,8,0.0618055383675,0.659051076975,[ 0.6953125  -0.14166667],,,,2018_Jun_17_1149,60.1028220881,sequenceLearningTask,001,136,
min1.png,min2.png,min3.png,min4.png,images/allBlank.png,"['num_7', 'num_4', 'num_1', 'num_0']",['num_4'],num_4,[2],'num_4',images/min2.png,"[(0.45, 0.79)]",,,,,0,-1,-1,0,1,3,7,1,,,,,"(0.75, 0.04)",images/min4.png,8,0.0606535384431,0.865789128235,[ 0.7265625  -0.13055556],,,,2018_Jun_17_1149,60.1028220881,sequenceLearningTask,001,136,
min1.png,min2.png,min3.png,min4.png,images/allBlank.png,"['num_7', 'num_4', 'num_1', 'num_0']",['num_4'],num_4,[2],'num_4',images/min2.png,"[(0.45, 0.79)]",,,,,0,-1,-1,0,1,3,7,1,,,,,"(-0.75, 0.04)",images/min1.png,8,0.0616869742516,0.799617640907,[ 0.6578125  -0.12777778],,,,2018_Jun_17_1149,60.1028220881,sequenceLearningTask,001,136,
min1.png,min2.png,min3.png,min4.png,images/allBlank.png,"['num_7', 'num_4', 'num_1', 'num_0']",['num_0'],num_0,[4],'num_0',images/min4.png,"[(0.45, 0.79)]",,,,,0,-1,-1,0,2,0,8,3,,,,,"(-0.75, 0.04)",images/min1.png,9,0.0598957948387,0.696401230758,[-0.7765625  -0.21666667],,,,2018_Jun_17_1149,60.1028220881,sequenceLearningTask,001,136,
min1.png,min2.png,min3.png,min4.png,images/allBlank.png,"['num_7', 'num_4', 'num_1', 'num_0']",['num_0'],num_0,[4],'num_0',images/min4.png,"[(0.45, 0.79)]",,,,,0,-1,-1,0,2,0,8,3,,,,,"(-0.75, 0.04)",images/min1.png,9,0.0547134359367,0.506263384596,[-0.6734375  -0.26666667],,,,2018_Jun_17_1149,60.1028220881,sequenceLearningTask,001,136,
min1.png,min2.png,min3.png,min4.png,images/allBlank.png,"['num_7', 'num_4', 'num_1', 'num_0']",['num_0'],num_0,[4],'num_0',images/min4.png,"[(0.45, 0.79)]",,,,,0,-1,-1,0,2,0,8,3,,,,,"(-0.25, 0.04)",images/min2.png,9,0.0626301539596,0.61414605123,[-0.6015625  -0.26944444],,,,2018_Jun_17_1149,60.1028220881,sequenceLearningTask,001,136,
min1.png,min2.png,min3.png,min4.png,images/allBlank.png,"['num_7', 'num_4', 'num_1', 'num_0']",['num_0'],num_0,[4],'num_0',images/min4.png,"[(0.45, 0.79)]",,,,,0,-1,-1,0,2,0,8,3,,,,,"(-0.75, 0.04)",images/min1.png,9,0.0631749744061,0.66364020505,[-0.2578125  -0.11944444],,,,2018_Jun_17_1149,60.1028220881,sequenceLearningTask,001,136,
min1.png,min2.png,min3.png,min4.png,images/allBlank.png,"['num_7', 'num_4', 'num_1', 'num_0']",['num_1'],num_1,[3],'num_1',images/min3.png,"[(0.45, 0.79)]",,,,,0,-1,-1,0,2,1,9,2,,,,,"(-0.25, 0.04)",images/min2.png,10,0.0532463588752,0.46915610251,[-0.6078125  -0.29166667],,,,2018_Jun_17_1149,60.1028220881,sequenceLearningTask,001,136,
min1.png,min2.png,min3.png,min4.png,images/allBlank.png,"['num_7', 'num_4', 'num_1', 'num_0']",['num_1'],num_1,[3],'num_1',images/min3.png,"[(0.45, 0.79)]",,,,,0,-1,-1,0,2,1,9,2,,,,,"(-0.25, 0.04)",images/min2.png,10,0.0534330257215,0.725952000124,[-0.2125 -0.15  ],0.405690256506,1,,2018_Jun_17_1149,60.1028220881,sequenceLearningTask,001,136,
min1.png,min2.png,min3.png,min4.png,images/allBlank.png,"['num_7', 'num_4', 'num_1', 'num_0']",['num_1'],num_1,[3],'num_1',images/min3.png,"[(0.45, 0.79)]",,,,,0,-1,-1,0,2,1,9,2,,,,,"(0.25, 0.04)",images/min3.png,10,0.0562736410648,0.584066051291,[-0.2875     -0.09166667],,,,2018_Jun_17_1149,60.1028220881,sequenceLearningTask,001,136,
min1.png,min2.png,min3.png,min4.png,images/allBlank.png,"['num_7', 'num_4', 'num_1', 'num_0']",['num_1'],num_1,[3],'num_1',images/min3.png,"[(0.45, 0.79)]",,,,,0,-1,-1,0,2,1,9,2,,,,,"(0.75, 0.04)",images/min4.png,10,0.0563647178933,1.07620430761,[ 0.175      -0.19166667],,,,2018_Jun_17_1149,60.1028220881,sequenceLearningTask,001,136,
min1.png,min2.png,min3.png,min4.png,images/allBlank.png,"['num_7', 'num_4', 'num_1', 'num_0']",['num_4'],num_4,[2],'num_4',images/min2.png,"[(0.45, 0.79)]",,,,,0,-1,-1,0,2,2,10,1,,,,,"(0.25, 0.04)",images/min3.png,11,0.0590912820771,0.527726769214,[ 0.6921875  -0.19722222],,,,2018_Jun_17_1149,60.1028220881,sequenceLearningTask,001,136,
min1.png,min2.png,min3.png,min4.png,images/allBlank.png,"['num_7', 'num_4', 'num_1', 'num_0']",['num_4'],num_4,[2],'num_4',images/min2.png,"[(0.45, 0.79)]",,,,,0,-1,-1,0,2,2,10,1,,,,,"(0.25, 0.04)",images/min3.png,11,0.0537542565726,0.841888410272,[ 0.2265625  -0.13888889],,,,2018_Jun_17_1149,60.1028220881,sequenceLearningTask,001,136,
min1.png,min2.png,min3.png,min4.png,images/allBlank.png,"['num_7', 'num_4', 'num_1', 'num_0']",['num_4'],num_4,[2],'num_4',images/min2.png,"[(0.45, 0.79)]",,,,,0,-1,-1,0,2,2,10,1,,,,,"(-0.75, 0.04)",images/min1.png,11,0.0626112821046,0.699003897374,[ 0.190625   -0.06388889],,,,2018_Jun_17_1149,60.1028220881,sequenceLearningTask,001,136,
min1.png,min2.png,min3.png,min4.png,images/allBlank.png,"['num_7', 'num_4', 'num_1', 'num_0']",['num_4'],num_4,[2],'num_4',images/min2.png,"[(0.45, 0.79)]",,,,,0,-1,-1,0,2,2,10,1,,,,,"(-0.75, 0.04)",images/min1.png,11,0.0576812305953,1.0698962051,[-0.7015625  -0.25833333],0.594545230735,1,,2018_Jun_17_1149,60.1028220881,sequenceLearningTask,001,136,
min1.png,min2.png,min3.png,min4.png,images/allBlank.png,"['num_7', 'num_4', 'num_1', 'num_0']",['num_7'],num_7,[1],'num_7',images/min1.png,"[(0.45, 0.79)]",,,,,0,-1,-1,0,2,3,11,0,,,,,"(-0.25, 0.04)",images/min2.png,12,0.084036512766,0.826570666628,[-0.6203125  -0.30555556],,,,2018_Jun_17_1149,60.1028220881,sequenceLearningTask,001,136,
min1.png,min2.png,min3.png,min4.png,images/allBlank.png,"['num_7', 'num_4', 'num_1', 'num_0']",['num_7'],num_7,[1],'num_7',images/min1.png,"[(0.45, 0.79)]",,,,,0,-1,-1,0,2,3,11,0,,,,,"(-0.75, 0.04)",images/min1.png,12,0.0668841025326,0.589560205117,[-0.2421875  -0.35277778],,,,2018_Jun_17_1149,60.1028220881,sequenceLearningTask,001,136,
min1.png,min2.png,min3.png,min4.png,images/allBlank.png,"['num_7', 'num_4', 'num_1', 'num_0']",['num_7'],num_7,[1],'num_7',images/min1.png,"[(0.45, 0.79)]",,,,,0,-1,-1,0,2,3,11,0,,,,,"(0.75, 0.04)",images/min4.png,12,0.0609854357317,0.675684512826,[-0.6140625  -0.18611111],,,,2018_Jun_17_1149,60.1028220881,sequenceLearningTask,001,136,
min1.png,min2.png,min3.png,min4.png,images/allBlank.png,"['num_7', 'num_4', 'num_1', 'num_0']",['num_7'],num_7,[1],'num_7',images/min1.png,"[(0.45, 0.79)]",,,,,0,-1,-1,0,2,3,11,0,,,,,"(-0.75, 0.04)",images/min1.png,12,0.0661070768256,0.740876717959,[ 0.7078125  -0.03611111],,,,2018_Jun_17_1149,60.1028220881,sequenceLearningTask,001,136,
min1.png,min2.png,min3.png,min4.png,images/allBlank.png,"['num_7', 'num_4', 'num_1', 'num_0']",['num_0'],num_0,[4],'num_0',images/min4.png,"[(0.45, 0.79)]",,,,,0,-1,-1,0,3,0,12,3,,,,,"(-0.25, 0.04)",images/min2.png,13,0.0675097436178,0.538765538484,[-0.5859375  -0.17777778],,,,2018_Jun_17_1149,60.1028220881,sequenceLearningTask,001,136,
min1.png,min2.png,min3.png,min4.png,images/allBlank.png,"['num_7', 'num_4', 'num_1', 'num_0']",['num_0'],num_0,[4],'num_0',images/min4.png,"[(0.45, 0.79)]",,,,,0,-1,-1,0,3,0,12,3,,,,,"(0.75, 0.04)",images/min4.png,13,0.0536898463033,0.644075897522,[-0.1140625  -0.23333333],,,,2018_Jun_17_1149,60.1028220881,sequenceLearningTask,001,136,
min1.png,min2.png,min3.png,min4.png,images/allBlank.png,"['num_7', 'num_4', 'num_1', 'num_0']",['num_0'],num_0,[4],'num_0',images/min4.png,"[(0.45, 0.79)]",,,,,0,-1,-1,0,3,0,12,3,,,,,"(-0.75, 0.04)",images/min1.png,13,0.0565308718942,0.868959589629,[ 0.6078125  -0.19166667],,,,2018_Jun_17_1149,60.1028220881,sequenceLearningTask,001,136,
min1.png,min2.png,min3.png,min4.png,images/allBlank.png,"['num_7', 'num_4', 'num_1', 'num_0']",['num_0'],num_0,[4],'num_0',images/min4.png,"[(0.45, 0.79)]",,,,,0,-1,-1,0,3,0,12,3,,,,,"(-0.75, 0.04)",images/min1.png,13,0.059918358922,1.4345764101,[-0.6578125  -0.24444444],0.7478740511,1,,2018_Jun_17_1149,60.1028220881,sequenceLearningTask,001,136,
min1.png,min2.png,min3.png,min4.png,images/allBlank.png,"['num_7', 'num_4', 'num_1', 'num_0']",['num_4'],num_4,[2],'num_4',images/min2.png,"[(0.45, 0.79)]",,,,,0,-1,-1,0,3,1,13,1,,,,,"(-0.25, 0.04)",images/min2.png,14,0.0555376410484,1.15471261553,[-0.5359375  -0.23611111],,,,2018_Jun_17_1149,60.1028220881,sequenceLearningTask,001,136,
min1.png,min2.png,min3.png,min4.png,images/allBlank.png,"['num_7', 'num_4', 'num_1', 'num_0']",['num_4'],num_4,[2],'num_4',images/min2.png,"[(0.45, 0.79)]",,,,,0,-1,-1,0,3,1,13,1,,,,,"(-0.25, 0.04)",images/min2.png,14,0.0608771280386,0.717886358965,[-0.1546875  -0.06388889],,,,2018_Jun_17_1149,60.1028220881,sequenceLearningTask,001,136,
min1.png,min2.png,min3.png,min4.png,images/allBlank.png,"['num_7', 'num_4', 'num_1', 'num_0']",['num_4'],num_4,[2],'num_4',images/min2.png,"[(0.45, 0.79)]",,,,,0,-1,-1,0,3,1,13,1,,,,,"(0.75, 0.04)",images/min4.png,14,0.0625558975153,0.762844718061,[-0.153125   -0.27222222],,,,2018_Jun_17_1149,60.1028220881,sequenceLearningTask,001,136,
min1.png,min2.png,min3.png,min4.png,images/allBlank.png,"['num_7', 'num_4', 'num_1', 'num_0']",['num_4'],num_4,[2],'num_4',images/min2.png,"[(0.45, 0.79)]",,,,,0,-1,-1,0,3,1,13,1,,,,,"(0.25, 0.04)",images/min3.png,14,0.0679716921877,0.440705230692,[ 0.721875   -0.01111111],,,,2018_Jun_17_1149,60.1028220881,sequenceLearningTask,001,136,
min1.png,min2.png,min3.png,min4.png,images/allBlank.png,"['num_7', 'num_4', 'num_1', 'num_0']",['num_1'],num_1,[3],'num_1',images/min3.png,"[(0.45, 0.79)]",,,,,0,-1,-1,0,3,2,14,2,,,,,"(0.75, 0.04)",images/min4.png,15,0.0546728204936,1.50439179502,[ 0.1828125  -0.10833333],,,,2018_Jun_17_1149,60.1028220881,sequenceLearningTask,001,136,
min1.png,min2.png,min3.png,min4.png,images/allBlank.png,"['num_7', 'num_4', 'num_1', 'num_0']",['num_1'],num_1,[3],'num_1',images/min3.png,"[(0.45, 0.79)]",,,,,0,-1,-1,0,3,2,14,2,,,,,"(0.75, 0.04)",images/min4.png,15,0.0572418461088,1.15627076919,[ 0.6984375  -0.03055556],,,,2018_Jun_17_1149,60.1028220881,sequenceLearningTask,001,136,
min1.png,min2.png,min3.png,min4.png,images/allBlank.png,"['num_7', 'num_4', 'num_1', 'num_0']",['num_1'],num_1,[3],'num_1',images/min3.png,"[(0.45, 0.79)]",,,,,0,-1,-1,0,3,2,14,2,,,,,"(-0.75, 0.04)",images/min1.png,15,0.0563593846746,1.05704820529,[ 0.684375   -0.01944444],,,,2018_Jun_17_1149,60.1028220881,sequenceLearningTask,001,136,
min1.png,min2.png,min3.png,min4.png,images/allBlank.png,"['num_7', 'num_4', 'num_1', 'num_0']",['num_1'],num_1,[3],'num_1',images/min3.png,"[(0.45, 0.79)]",,,,,0,-1,-1,0,3,2,14,2,,,,,"(0.25, 0.04)",images/min3.png,15,0.0637280000374,0.493584410287,[-0.70625    -0.16944444],,,,2018_Jun_17_1149,60.1028220881,sequenceLearningTask,001,136,
min1.png,min2.png,min3.png,min4.png,images/allBlank.png,"['num_7', 'num_4', 'num_1', 'num_0']",['num_7'],num_7,[1],'num_7',images/min1.png,"[(0.45, 0.79)]",,,,,0,-1,-1,0,3,3,15,0,,,,,"(-0.75, 0.04)",images/min1.png,16,0.06106461538,1.89909169218,[ 0.2296875  -0.08055556],1.21945805126,1,,2018_Jun_17_1149,60.1028220881,sequenceLearningTask,001,136,
min1.png,min2.png,min3.png,min4.png,images/allBlank.png,"['num_7', 'num_4', 'num_1', 'num_0']",['num_7'],num_7,[1],'num_7',images/min1.png,"[(0.45, 0.79)]",,,,,0,-1,-1,0,3,3,15,0,,,,,"(0.25, 0.04)",images/min3.png,16,0.0594334360212,1.26936861547,[-0.7828125  -0.13055556],,,,2018_Jun_17_1149,60.1028220881,sequenceLearningTask,001,136,
min1.png,min2.png,min3.png,min4.png,images/allBlank.png,"['num_7', 'num_4', 'num_1', 'num_0']",['num_7'],num_7,[1],'num_7',images/min1.png,"[(0.45, 0.79)]",,,,,0,-1,-1,0,3,3,15,0,,,,,"(-0.25, 0.04)",images/min2.png,16,0.0622215382755,0.664978461573,[ 0.240625   -0.06666667],,,,2018_Jun_17_1149,60.1028220881,sequenceLearningTask,001,136,
min1.png,min2.png,min3.png,min4.png,images/allBlank.png,"['num_7', 'num_4', 'num_1', 'num_0']",['num_7'],num_7,[1],'num_7',images/min1.png,"[(0.45, 0.79)]",,,,,0,-1,-1,0,3,3,15,0,,,,,"(0.75, 0.04)",images/min4.png,16,0.056372923078,0.719858461525,[-0.2703125  -0.19444444],,,,2018_Jun_17_1149,60.1028220881,sequenceLearningTask,001,136,
min1.png,min2.png,min3.png,min4.png,images/allBlank.png,"['num_7', 'num_4', 'num_1', 'num_0']",['num_1'],num_1,[3],'num_1',images/min3.png,"[(0.45, 0.79)]",,,,,0,-1,-1,0,4,0,16,2,,,,,"(0.75, 0.04)",images/min4.png,17,0.0631688204594,0.907602871768,[ 0.734375   -0.14444444],,,,2018_Jun_17_1149,60.1028220881,sequenceLearningTask,001,136,
min1.png,min2.png,min3.png,min4.png,images/allBlank.png,"['num_7', 'num_4', 'num_1', 'num_0']",['num_1'],num_1,[3],'num_1',images/min3.png,"[(0.45, 0.79)]",,,,,0,-1,-1,0,4,0,16,2,,,,,"(0.75, 0.04)",images/min4.png,17,0.059308307711,0.834724102402,[ 0.6625     -0.13888889],,,,2018_Jun_17_1149,60.1028220881,sequenceLearningTask,001,136,
min1.png,min2.png,min3.png,min4.png,images/allBlank.png,"['num_7', 'num_4', 'num_1', 'num_0']",['num_1'],num_1,[3],'num_1',images/min3.png,"[(0.45, 0.79)]",,,,,0,-1,-1,0,4,0,16,2,,,,,"(0.75, 0.04)",images/min4.png,17,0.0552590768784,0.838063179515,[ 0.603125 -0.075   ],,,,2018_Jun_17_1149,60.1028220881,sequenceLearningTask,001,136,
min1.png,min2.png,min3.png,min4.png,images/allBlank.png,"['num_7', 'num_4', 'num_1', 'num_0']",['num_1'],num_1,[3],'num_1',images/min3.png,"[(0.45, 0.79)]",,,,,0,-1,-1,0,4,0,16,2,,,,,"(-0.25, 0.04)",images/min2.png,17,0.0625842050649,0.727409230778,[ 0.66875 -0.05   ],,,,2018_Jun_17_1149,60.1028220881,sequenceLearningTask,001,136,
min1.png,min2.png,min3.png,min4.png,images/allBlank.png,"['num_7', 'num_4', 'num_1', 'num_0']",['num_0'],num_0,[4],'num_0',images/min4.png,"[(0.45, 0.79)]",,,,,0,-1,-1,0,4,1,17,3,,,,,"(-0.25, 0.04)",images/min2.png,18,0.0604410257656,0.555128205102,[-0.1609375  -0.00833333],,,,2018_Jun_17_1149,60.1028220881,sequenceLearningTask,001,136,
min1.png,min2.png,min3.png,min4.png,images/allBlank.png,"['num_7', 'num_4', 'num_1', 'num_0']",['num_0'],num_0,[4],'num_0',images/min4.png,"[(0.45, 0.79)]",,,,,0,-1,-1,0,4,1,17,3,,,,,"(0.25, 0.04)",images/min3.png,18,0.0657587691676,0.760546871927,[-0.2640625  -0.11666667],,,,2018_Jun_17_1149,60.1028220881,sequenceLearningTask,001,136,
min1.png,min2.png,min3.png,min4.png,images/allBlank.png,"['num_7', 'num_4', 'num_1', 'num_0']",['num_0'],num_0,[4],'num_0',images/min4.png,"[(0.45, 0.79)]",,,,,0,-1,-1,0,4,1,17,3,,,,,"(-0.75, 0.04)",images/min1.png,18,0.0571544615086,0.531886769226,[ 0.1609375  -0.25277778],,,,2018_Jun_17_1149,60.1028220881,sequenceLearningTask,001,136,
min1.png,min2.png,min3.png,min4.png,images/allBlank.png,"['num_7', 'num_4', 'num_1', 'num_0']",['num_0'],num_0,[4],'num_0',images/min4.png,"[(0.45, 0.79)]",,,,,0,-1,-1,0,4,1,17,3,,,,,"(0.25, 0.04)",images/min3.png,18,0.0535675897263,0.606895999983,[-0.709375    0.13333333],,,,2018_Jun_17_1149,60.1028220881,sequenceLearningTask,001,136,
min1.png,min2.png,min3.png,min4.png,images/allBlank.png,"['num_7', 'num_4', 'num_1', 'num_0']",['num_4'],num_4,[2],'num_4',images/min2.png,"[(0.45, 0.79)]",,,,,0,-1,-1,0,4,2,18,1,,,,,"(-0.75, 0.04)",images/min1.png,19,0.0661485127639,0.689476923086,[ 0.190625   -0.11666667],,,,2018_Jun_17_1149,60.1028220881,sequenceLearningTask,001,136,
min1.png,min2.png,min3.png,min4.png,images/allBlank.png,"['num_7', 'num_4', 'num_1', 'num_0']",['num_4'],num_4,[2],'num_4',images/min2.png,"[(0.45, 0.79)]",,,,,0,-1,-1,0,4,2,18,1,,,,,"(-0.75, 0.04)",images/min1.png,19,0.0636582563166,0.692770871799,[-0.7765625   0.11666667],,,,2018_Jun_17_1149,60.1028220881,sequenceLearningTask,001,136,
min1.png,min2.png,min3.png,min4.png,images/allBlank.png,"['num_7', 'num_4', 'num_1', 'num_0']",['num_4'],num_4,[2],'num_4',images/min2.png,"[(0.45, 0.79)]",,,,,0,-1,-1,0,4,2,18,1,,,,,"(-0.25, 0.04)",images/min2.png,19,0.0679770256393,0.874397538602,[-0.7546875   0.02222222],,,,2018_Jun_17_1149,60.1028220881,sequenceLearningTask,001,136,
min1.png,min2.png,min3.png,min4.png,images/allBlank.png,"['num_7', 'num_4', 'num_1', 'num_0']",['num_4'],num_4,[2],'num_4',images/min2.png,"[(0.45, 0.79)]",,,,,0,-1,-1,0,4,2,18,1,,,,,"(-0.25, 0.04)",images/min2.png,19,0.0634313847404,0.744041435886,[-0.2578125  -0.19166667],,,,2018_Jun_17_1149,60.1028220881,sequenceLearningTask,001,136,
min1.png,min2.png,min3.png,min4.png,images/allBlank.png,"['num_7', 'num_4', 'num_1', 'num_0']",['num_7'],num_7,[1],'num_7',images/min1.png,"[(0.45, 0.79)]",,,,,0,-1,-1,0,4,3,19,0,,,,,"(-0.75, 0.04)",images/min1.png,20,0.0608250256628,0.973711179337,[-0.3046875  -0.11388889],,,,2018_Jun_17_1149,60.1028220881,sequenceLearningTask,001,136,
min1.png,min2.png,min3.png,min4.png,images/allBlank.png,"['num_7', 'num_4', 'num_1', 'num_0']",['num_7'],num_7,[1],'num_7',images/min1.png,"[(0.45, 0.79)]",,,,,0,-1,-1,0,4,3,19,0,,,,,"(0.75, 0.04)",images/min4.png,20,0.0635376409627,0.961043692427,[-0.6203125   0.03611111],,,,2018_Jun_17_1149,60.1028220881,sequenceLearningTask,001,136,
min1.png,min2.png,min3.png,min4.png,images/allBlank.png,"['num_7', 'num_4', 'num_1', 'num_0']",['num_7'],num_7,[1],'num_7',images/min1.png,"[(0.45, 0.79)]",,,,,0,-1,-1,0,4,3,19,0,,,,,"(0.25, 0.04)",images/min3.png,20,0.0601481024642,0.666707281955,[ 0.6984375   0.06388889],,,,2018_Jun_17_1149,60.1028220881,sequenceLearningTask,001,136,
min1.png,min2.png,min3.png,min4.png,images/allBlank.png,"['num_7', 'num_4', 'num_1', 'num_0']",['num_7'],num_7,[1],'num_7',images/min1.png,"[(0.45, 0.79)]",,,,,0,-1,-1,0,4,3,19,0,,,,,"(-0.75, 0.04)",images/min1.png,20,0.0615257436875,0.705867897486,[ 0.140625   -0.08611111],,,,2018_Jun_17_1149,60.1028220881,sequenceLearningTask,001,136,
min1.png,min2.png,min3.png,min4.png,allBlank.png,"['num_7', 'num_4', 'num_1', 'num_0']",['num_7'],num_7,[1],'num_7',images/min1.png,"[(0.45, 0.79)]",,,,,0,0,0,0,4,3,19,0,,,,,"(-0.75, -0.04)",images/min1.png,1,0.0381747693755,2.43610297446,[-0.65        0.06111111],,,,2018_Jun_17_1149,60.1028220881,sequenceLearningTask,001,136,
min1.png,min2.png,min3.png,min4.png,allBlank.png,"['num_7', 'num_4', 'num_1', 'num_0']",['num_7'],num_7,[1],'num_7',images/min1.png,"[(0.45, 0.79)]",,,,,0,0,0,0,4,3,19,0,,,,,"(0.25, -0.04)",images/min3.png,1,0.0627306667157,0.644966564141,[-0.6796875  -0.20833333],,,,2018_Jun_17_1149,60.1028220881,sequenceLearningTask,001,136,
min1.png,min2.png,min3.png,min4.png,allBlank.png,"['num_7', 'num_4', 'num_1', 'num_0']",['num_7'],num_7,[1],'num_7',images/min1.png,"[(0.45, 0.79)]",,,,,0,0,0,0,4,3,19,0,,,,,"(-0.25, -0.04)",images/min2.png,1,0.0568816410378,0.515122051351,[ 0.2875     -0.05833333],,,,2018_Jun_17_1149,60.1028220881,sequenceLearningTask,001,136,
min1.png,min2.png,min3.png,min4.png,allBlank.png,"['num_7', 'num_4', 'num_1', 'num_0']",['num_7'],num_7,[1],'num_7',images/min1.png,"[(0.45, 0.79)]",,,,,0,0,0,0,4,3,19,0,,,,,"(0.75, -0.04)",images/min4.png,1,0.0531725129113,1.03982810257,[-0.1984375  -0.16666667],,,,2018_Jun_17_1149,60.1028220881,sequenceLearningTask,001,136,
min1.png,min2.png,min3.png,min4.png,allBlank.png,"['num_7', 'num_4', 'num_1', 'num_0']",['num_7'],num_7,[1],'num_7',images/min1.png,"[(0.45, 0.79)]",,,,,0,0,0,0,4,3,19,0,,,,,"(0.75, -0.04)",images/min4.png,1,0.0559380510822,1.49327589758,[ 0.771875   -0.12222222],,,,2018_Jun_17_1149,60.1028220881,sequenceLearningTask,001,136,
min1.png,min2.png,min3.png,min4.png,allBlank.png,"['num_7', 'num_4', 'num_1', 'num_0']",['num_7'],num_7,[1],'num_7',images/min1.png,"[(0.45, 0.79)]",,,,,0,0,0,0,4,3,19,0,,,,,"(-0.25, -0.04)",images/min2.png,1,0.0558051280677,1.10672615399,[ 0.7203125  -0.03333333],,,,2018_Jun_17_1149,60.1028220881,sequenceLearningTask,001,136,
min1.png,min2.png,min3.png,min4.png,allBlank.png,"['num_7', 'num_4', 'num_1', 'num_0']",['num_7'],num_7,[1],'num_7',images/min1.png,"[(0.45, 0.79)]",,,,,0,0,0,0,4,3,19,0,,,,,"(0.25, -0.04)",images/min3.png,1,0.0668172307778,0.468753230758,[-0.24375    -0.14722222],,,,2018_Jun_17_1149,60.1028220881,sequenceLearningTask,001,136,
min1.png,min2.png,min3.png,min4.png,allBlank.png,"['num_7', 'num_4', 'num_1', 'num_0']",['num_7'],num_7,[1],'num_7',images/min1.png,"[(0.45, 0.79)]",,,,,0,0,0,0,4,3,19,0,,,,,"(0.75, -0.04)",images/min4.png,1,0.0562006153632,2.3619692307,[ 0.2765625  -0.08888889],,,,2018_Jun_17_1149,60.1028220881,sequenceLearningTask,001,136,
min1.png,min2.png,min3.png,min4.png,allBlank.png,"['num_7', 'num_4', 'num_1', 'num_0']",['num_7'],num_7,[1],'num_7',images/min1.png,"[(0.45, 0.79)]",,,,,0,1,1,1,4,3,19,0,,,,,"(-0.75, -0.04)",images/min1.png,2,0.0608758975286,0.590325333411,[ 0.7078125  -0.04166667],,,,2018_Jun_17_1149,60.1028220881,sequenceLearningTask,001,136,
min1.png,min2.png,min3.png,min4.png,allBlank.png,"['num_7', 'num_4', 'num_1', 'num_0']",['num_7'],num_7,[1],'num_7',images/min1.png,"[(0.45, 0.79)]",,,,,0,1,1,1,4,3,19,0,,,,,"(0.25, -0.04)",images/min3.png,2,0.0612274871673,2.18102892302,[-0.7265625  -0.08888889],,,,2018_Jun_17_1149,60.1028220881,sequenceLearningTask,001,136,
min1.png,min2.png,min3.png,min4.png,allBlank.png,"['num_7', 'num_4', 'num_1', 'num_0']",['num_7'],num_7,[1],'num_7',images/min1.png,"[(0.45, 0.79)]",,,,,0,1,1,1,4,3,19,0,,,,,"(-0.25, -0.04)",images/min2.png,2,0.0620045128744,0.595410871785,[ 0.4015625  -0.19722222],,,,2018_Jun_17_1149,60.1028220881,sequenceLearningTask,001,136,
min1.png,min2.png,min3.png,min4.png,allBlank.png,"['num_7', 'num_4', 'num_1', 'num_0']",['num_7'],num_7,[1],'num_7',images/min1.png,"[(0.45, 0.79)]",,,,,0,1,1,1,4,3,19,0,,,,,"(0.75, -0.04)",images/min4.png,2,0.0556340513285,0.553989333333,[-0.1765625  -0.00277778],,,,2018_Jun_17_1149,60.1028220881,sequenceLearningTask,001,136,
min1.png,min2.png,min3.png,min4.png,allBlank.png,"['num_7', 'num_4', 'num_1', 'num_0']",['num_7'],num_7,[1],'num_7',images/min1.png,"[(0.45, 0.79)]",,,,,0,1,1,1,4,3,19,0,,,,,"(0.75, -0.04)",images/min4.png,2,0.0569349743892,0.800833641086,[ 0.7328125  -0.10833333],,,,2018_Jun_17_1149,60.1028220881,sequenceLearningTask,001,136,
min1.png,min2.png,min3.png,min4.png,allBlank.png,"['num_7', 'num_4', 'num_1', 'num_0']",['num_7'],num_7,[1],'num_7',images/min1.png,"[(0.45, 0.79)]",,,,,0,1,1,1,4,3,19,0,,,,,"(-0.25, -0.04)",images/min2.png,2,0.0546354870312,0.600840615574,[ 0.7734375   0.00555556],,,,2018_Jun_17_1149,60.1028220881,sequenceLearningTask,001,136,
min1.png,min2.png,min3.png,min4.png,allBlank.png,"['num_7', 'num_4', 'num_1', 'num_0']",['num_7'],num_7,[1],'num_7',images/min1.png,"[(0.45, 0.79)]",,,,,0,1,1,1,4,3,19,0,,,,,"(0.25, -0.04)",images/min3.png,2,0.0583798973821,2.25819692295,[-0.3296875  -0.04444444],,,,2018_Jun_17_1149,60.1028220881,sequenceLearningTask,001,136,
min1.png,min2.png,min3.png,min4.png,allBlank.png,"['num_7', 'num_4', 'num_1', 'num_0']",['num_7'],num_7,[1],'num_7',images/min1.png,"[(0.45, 0.79)]",,,,,0,1,1,1,4,3,19,0,,,,,"(0.75, -0.04)",images/min4.png,2,0.0615023588762,0.47820348735,[ 0.3        -0.04166667],,,,2018_Jun_17_1149,60.1028220881,sequenceLearningTask,001,136,
min1.png,min2.png,min3.png,min4.png,allBlank.png,"['num_7', 'num_4', 'num_1', 'num_0']",['num_7'],num_7,[1],'num_7',images/min1.png,"[(0.45, 0.79)]",,,,,0,2,2,2,4,3,19,0,,,,,"(-0.75, -0.04)",images/min1.png,3,0.0544242050964,0.652605128242,[ 0.7375     -0.16944444],,,,2018_Jun_17_1149,60.1028220881,sequenceLearningTask,001,136,
min1.png,min2.png,min3.png,min4.png,allBlank.png,"['num_7', 'num_4', 'num_1', 'num_0']",['num_7'],num_7,[1],'num_7',images/min1.png,"[(0.45, 0.79)]",,,,,0,2,2,2,4,3,19,0,,,,,"(0.25, -0.04)",images/min3.png,3,0.0570256409701,0.479593436001,[-0.7671875  -0.33333333],,,,2018_Jun_17_1149,60.1028220881,sequenceLearningTask,001,136,
min1.png,min2.png,min3.png,min4.png,allBlank.png,"['num_7', 'num_4', 'num_1', 'num_0']",['num_7'],num_7,[1],'num_7',images/min1.png,"[(0.45, 0.79)]",,,,,0,2,2,2,4,3,19,0,,,,,"(-0.25, -0.04)",images/min2.png,3,0.0577173333149,0.580529641127,[ 0.2234375  -0.11944444],,,,2018_Jun_17_1149,60.1028220881,sequenceLearningTask,001,136,
min1.png,min2.png,min3.png,min4.png,allBlank.png,"['num_7', 'num_4', 'num_1', 'num_0']",['num_7'],num_7,[1],'num_7',images/min1.png,"[(0.45, 0.79)]",,,,,0,2,2,2,4,3,19,0,,,,,"(0.75, -0.04)",images/min4.png,3,0.0529444103595,0.467627897393,[-0.2359375  -0.15277778],,,,2018_Jun_17_1149,60.1028220881,sequenceLearningTask,001,136,
min1.png,min2.png,min3.png,min4.png,allBlank.png,"['num_7', 'num_4', 'num_1', 'num_0']",['num_7'],num_7,[1],'num_7',images/min1.png,"[(0.45, 0.79)]",,,,,0,2,2,2,4,3,19,0,,,,,"(0.75, -0.04)",images/min4.png,3,0.0660270769149,0.544043076923,[ 0.8125 -0.175 ],,,,2018_Jun_17_1149,60.1028220881,sequenceLearningTask,001,136,
min1.png,min2.png,min3.png,min4.png,allBlank.png,"['num_7', 'num_4', 'num_1', 'num_0']",['num_7'],num_7,[1],'num_7',images/min1.png,"[(0.45, 0.79)]",,,,,0,2,2,2,4,3,19,0,,,,,"(-0.25, -0.04)",images/min2.png,3,0.0590309742838,0.701150358887,[ 0.7546875  -0.13611111],,,,2018_Jun_17_1149,60.1028220881,sequenceLearningTask,001,136,
min1.png,min2.png,min3.png,min4.png,allBlank.png,"['num_7', 'num_4', 'num_1', 'num_0']",['num_7'],num_7,[1],'num_7',images/min1.png,"[(0.45, 0.79)]",,,,,0,2,2,2,4,3,19,0,,,,,"(0.25, -0.04)",images/min3.png,3,0.0575183590408,0.529619282112,[-0.234375   -0.10833333],,,,2018_Jun_17_1149,60.1028220881,sequenceLearningTask,001,136,
min1.png,min2.png,min3.png,min4.png,allBlank.png,"['num_7', 'num_4', 'num_1', 'num_0']",['num_7'],num_7,[1],'num_7',images/min1.png,"[(0.45, 0.79)]",,,,,0,2,2,2,4,3,19,0,,,,,"(0.75, -0.04)",images/min4.png,3,0.0578412306495,0.796178051271,[ 0.2796875  -0.11944444],,,,2018_Jun_17_1149,60.1028220881,sequenceLearningTask,001,136,
min1.png,min2.png,min3.png,min4.png,allBlank.png,"['num_7', 'num_4', 'num_1', 'num_0']",['num_7'],num_7,[1],'num_7',images/min1.png,"[(0.45, 0.79)]",,,,,0,3,3,3,4,3,19,0,,,,,"(-0.75, -0.04)",images/min1.png,4,0.0540447179228,0.731214769185,[ 0.7671875   0.03611111],,,,2018_Jun_17_1149,60.1028220881,sequenceLearningTask,001,136,
min1.png,min2.png,min3.png,min4.png,allBlank.png,"['num_7', 'num_4', 'num_1', 'num_0']",['num_7'],num_7,[1],'num_7',images/min1.png,"[(0.45, 0.79)]",,,,,0,3,3,3,4,3,19,0,,,,,"(0.25, -0.04)",images/min3.png,4,0.0540205128491,0.465552410111,[-0.7484375  -0.08055556],,,,2018_Jun_17_1149,60.1028220881,sequenceLearningTask,001,136,
min1.png,min2.png,min3.png,min4.png,allBlank.png,"['num_7', 'num_4', 'num_1', 'num_0']",['num_7'],num_7,[1],'num_7',images/min1.png,"[(0.45, 0.79)]",,,,,0,3,3,3,4,3,19,0,,,,,"(-0.25, -0.04)",images/min2.png,4,0.0583117948845,0.650988307782,[ 0.265625   -0.25555556],,,,2018_Jun_17_1149,60.1028220881,sequenceLearningTask,001,136,
min1.png,min2.png,min3.png,min4.png,allBlank.png,"['num_7', 'num_4', 'num_1', 'num_0']",['num_7'],num_7,[1],'num_7',images/min1.png,"[(0.45, 0.79)]",,,,,0,3,3,3,4,3,19,0,,,,,"(0.75, -0.04)",images/min4.png,4,0.0518748718314,0.45029210276,[-0.2125     -0.13055556],,,,2018_Jun_17_1149,60.1028220881,sequenceLearningTask,001,136,
min1.png,min2.png,min3.png,min4.png,allBlank.png,"['num_7', 'num_4', 'num_1', 'num_0']",['num_7'],num_7,[1],'num_7',images/min1.png,"[(0.45, 0.79)]",,,,,0,3,3,3,4,3,19,0,,,,,"(0.75, -0.04)",images/min4.png,4,0.0588709744625,0.535332923057,[ 0.7828125  -0.06111111],,,,2018_Jun_17_1149,60.1028220881,sequenceLearningTask,001,136,
min1.png,min2.png,min3.png,min4.png,allBlank.png,"['num_7', 'num_4', 'num_1', 'num_0']",['num_7'],num_7,[1],'num_7',images/min1.png,"[(0.45, 0.79)]",,,,,0,3,3,3,4,3,19,0,,,,,"(-0.25, -0.04)",images/min2.png,4,0.0559421540238,0.637482256396,[ 0.7265625  -0.13333333],,,,2018_Jun_17_1149,60.1028220881,sequenceLearningTask,001,136,
min1.png,min2.png,min3.png,min4.png,allBlank.png,"['num_7', 'num_4', 'num_1', 'num_0']",['num_7'],num_7,[1],'num_7',images/min1.png,"[(0.45, 0.79)]",,,,,0,3,3,3,4,3,19,0,,,,,"(0.25, -0.04)",images/min3.png,4,0.0608324103523,0.4810711795,[-0.2609375  -0.11111111],,,,2018_Jun_17_1149,60.1028220881,sequenceLearningTask,001,136,
min1.png,min2.png,min3.png,min4.png,allBlank.png,"['num_7', 'num_4', 'num_1', 'num_0']",['num_7'],num_7,[1],'num_7',images/min1.png,"[(0.45, 0.79)]",,,,,0,3,3,3,4,3,19,0,,,,,"(0.75, -0.04)",images/min4.png,4,0.052761846222,0.556772923097,[ 0.2140625  -0.00833333],,,,2018_Jun_17_1149,60.1028220881,sequenceLearningTask,001,136,
min1.png,min2.png,min3.png,min4.png,allBlank.png,"['num_7', 'num_4', 'num_1', 'num_0']",['num_7'],num_7,[1],'num_7',images/min1.png,"[(0.45, 0.79)]",,,,,0,4,4,4,4,3,19,0,,,,,"(-0.75, -0.04)",images/min1.png,5,0.0540258463006,0.671991794836,[ 0.778125    0.01666667],,,,2018_Jun_17_1149,60.1028220881,sequenceLearningTask,001,136,
min1.png,min2.png,min3.png,min4.png,allBlank.png,"['num_7', 'num_4', 'num_1', 'num_0']",['num_7'],num_7,[1],'num_7',images/min1.png,"[(0.45, 0.79)]",,,,,0,4,4,4,4,3,19,0,,,,,"(0.25, -0.04)",images/min3.png,5,0.0572959999554,0.728674871847,[-0.5890625  -0.05555556],,,,2018_Jun_17_1149,60.1028220881,sequenceLearningTask,001,136,
min1.png,min2.png,min3.png,min4.png,allBlank.png,"['num_7', 'num_4', 'num_1', 'num_0']",['num_7'],num_7,[1],'num_7',images/min1.png,"[(0.45, 0.79)]",,,,,0,4,4,4,4,3,19,0,,,,,"(-0.25, -0.04)",images/min2.png,5,0.0566740513314,0.537858461495,[ 0.2515625   0.00833333],,,,2018_Jun_17_1149,60.1028220881,sequenceLearningTask,001,136,
min1.png,min2.png,min3.png,min4.png,allBlank.png,"['num_7', 'num_4', 'num_1', 'num_0']",['num_7'],num_7,[1],'num_7',images/min1.png,"[(0.45, 0.79)]",,,,,0,4,4,4,4,3,19,0,,,,,"(0.75, -0.04)",images/min4.png,5,0.0574486155529,0.453020717949,[-0.3390625  -0.21388889],,,,2018_Jun_17_1149,60.1028220881,sequenceLearningTask,001,136,
min1.png,min2.png,min3.png,min4.png,allBlank.png,"['num_7', 'num_4', 'num_1', 'num_0']",['num_7'],num_7,[1],'num_7',images/min1.png,"[(0.45, 0.79)]",,,,,0,4,4,4,4,3,19,0,,,,,"(0.75, -0.04)",images/min4.png,5,0.054240410449,0.487573333317,[ 0.85625    -0.11944444],,,,2018_Jun_17_1149,60.1028220881,sequenceLearningTask,001,136,
min1.png,min2.png,min3.png,min4.png,allBlank.png,"['num_7', 'num_4', 'num_1', 'num_0']",['num_7'],num_7,[1],'num_7',images/min1.png,"[(0.45, 0.79)]",,,,,0,4,4,4,4,3,19,0,,,,,"(-0.25, -0.04)",images/min2.png,5,0.0595384617336,0.679003487341,[ 0.7359375  -0.11666667],,,,2018_Jun_17_1149,60.1028220881,sequenceLearningTask,001,136,
min1.png,min2.png,min3.png,min4.png,allBlank.png,"['num_7', 'num_4', 'num_1', 'num_0']",['num_7'],num_7,[1],'num_7',images/min1.png,"[(0.45, 0.79)]",,,,,0,4,4,4,4,3,19,0,,,,,"(0.25, -0.04)",images/min3.png,5,0.0588537435979,0.461613538442,[-0.2953125  -0.08611111],,,,2018_Jun_17_1149,60.1028220881,sequenceLearningTask,001,136,
min1.png,min2.png,min3.png,min4.png,allBlank.png,"['num_7', 'num_4', 'num_1', 'num_0']",['num_7'],num_7,[1],'num_7',images/min1.png,"[(0.45, 0.79)]",,,,,0,4,4,4,4,3,19,0,,,,,"(0.75, -0.04)",images/min4.png,5,0.0585403076839,0.633424820378,[ 0.2140625  -0.25833333],,,,2018_Jun_17_1149,60.1028220881,sequenceLearningTask,001,136,
min1.png,min2.png,min3.png,min4.png,allBlank.png,"['num_7', 'num_4', 'num_1', 'num_0']",['num_7'],num_7,[1],'num_7',images/min1.png,"[(0.45, 0.79)]",,,,,0,5,5,5,4,3,19,0,,,,,"(-0.75, -0.04)",images/min1.png,6,0.0549070769921,0.85295056412,[ 0.7421875  -0.13611111],,,,2018_Jun_17_1149,60.1028220881,sequenceLearningTask,001,136,
min1.png,min2.png,min3.png,min4.png,allBlank.png,"['num_7', 'num_4', 'num_1', 'num_0']",['num_7'],num_7,[1],'num_7',images/min1.png,"[(0.45, 0.79)]",,,,,0,5,5,5,4,3,19,0,,,,,"(0.25, -0.04)",images/min3.png,6,0.0572328204289,0.486456205137,[-0.73125 -0.175  ],,,,2018_Jun_17_1149,60.1028220881,sequenceLearningTask,001,136,
min1.png,min2.png,min3.png,min4.png,allBlank.png,"['num_7', 'num_4', 'num_1', 'num_0']",['num_7'],num_7,[1],'num_7',images/min1.png,"[(0.45, 0.79)]",,,,,0,5,5,5,4,3,19,0,,,,,"(-0.25, -0.04)",images/min2.png,6,0.0547606153414,0.550518563949,[ 0.2875  0.075 ],,,,2018_Jun_17_1149,60.1028220881,sequenceLearningTask,001,136,
min1.png,min2.png,min3.png,min4.png,allBlank.png,"['num_7', 'num_4', 'num_1', 'num_0']",['num_7'],num_7,[1],'num_7',images/min1.png,"[(0.45, 0.79)]",,,,,0,5,5,5,4,3,19,0,,,,,"(0.75, -0.04)",images/min4.png,6,0.0530916922726,0.505734974518,[-0.2        -0.20555556],,,,2018_Jun_17_1149,60.1028220881,sequenceLearningTask,001,136,
min1.png,min2.png,min3.png,min4.png,allBlank.png,"['num_7', 'num_4', 'num_1', 'num_0']",['num_7'],num_7,[1],'num_7',images/min1.png,"[(0.45, 0.79)]",,,,,0,5,5,5,4,3,19,0,,,,,"(0.75, -0.04)",images/min4.png,6,0.0596631793305,0.482621128205,[ 0.7640625  -0.19166667],,,,2018_Jun_17_1149,60.1028220881,sequenceLearningTask,001,136,
min1.png,min2.png,min3.png,min4.png,allBlank.png,"['num_7', 'num_4', 'num_1', 'num_0']",['num_7'],num_7,[1],'num_7',images/min1.png,"[(0.45, 0.79)]",,,,,0,5,5,5,4,3,19,0,,,,,"(-0.25, -0.04)",images/min2.png,6,0.0598843076732,0.667737846263,[ 0.7328125 -0.2      ],,,,2018_Jun_17_1149,60.1028220881,sequenceLearningTask,001,136,
min1.png,min2.png,min3.png,min4.png,allBlank.png,"['num_7', 'num_4', 'num_1', 'num_0']",['num_7'],num_7,[1],'num_7',images/min1.png,"[(0.45, 0.79)]",,,,,0,5,5,5,4,3,19,0,,,,,"(0.25, -0.04)",images/min3.png,6,0.0537870768458,0.503043282079,[-0.3171875  -0.13055556],,,,2018_Jun_17_1149,60.1028220881,sequenceLearningTask,001,136,
min1.png,min2.png,min3.png,min4.png,allBlank.png,"['num_7', 'num_4', 'num_1', 'num_0']",['num_7'],num_7,[1],'num_7',images/min1.png,"[(0.45, 0.79)]",,,,,0,5,5,5,4,3,19,0,,,,,"(0.75, -0.04)",images/min4.png,6,0.0500828719232,0.594067282043,[ 0.1734375  -0.20555556],,,,2018_Jun_17_1149,60.1028220881,sequenceLearningTask,001,136,
min1.png,min2.png,min3.png,min4.png,allBlank.png,"['num_7', 'num_4', 'num_1', 'num_0']",['num_7'],num_7,[1],'num_7',images/min1.png,"[(0.45, 0.79)]",,,,,0,6,6,6,4,3,19,0,,,,,"(-0.75, -0.04)",images/min1.png,7,0.04956061556,0.77533415379,[ 0.6828125 -0.175    ],,,,2018_Jun_17_1149,60.1028220881,sequenceLearningTask,001,136,
min1.png,min2.png,min3.png,min4.png,allBlank.png,"['num_7', 'num_4', 'num_1', 'num_0']",['num_7'],num_7,[1],'num_7',images/min1.png,"[(0.45, 0.79)]",,,,,0,6,6,6,4,3,19,0,,,,,"(0.25, -0.04)",images/min3.png,7,0.0612976409029,0.549128205283,[-0.734375 -0.025   ],,,,2018_Jun_17_1149,60.1028220881,sequenceLearningTask,001,136,
min1.png,min2.png,min3.png,min4.png,allBlank.png,"['num_7', 'num_4', 'num_1', 'num_0']",['num_7'],num_7,[1],'num_7',images/min1.png,"[(0.45, 0.79)]",,,,,0,6,6,6,4,3,19,0,,,,,"(-0.25, -0.04)",images/min2.png,7,0.0435031794477,0.755513846176,[ 0.2359375  -0.13055556],,,,2018_Jun_17_1149,60.1028220881,sequenceLearningTask,001,136,
min1.png,min2.png,min3.png,min4.png,allBlank.png,"['num_7', 'num_4', 'num_1', 'num_0']",['num_7'],num_7,[1],'num_7',images/min1.png,"[(0.45, 0.79)]",,,,,0,6,6,6,4,3,19,0,,,,,"(0.75, -0.04)",images/min4.png,7,0.0579643077217,0.652598974295,[-0.2078125  -0.21111111],,,,2018_Jun_17_1149,60.1028220881,sequenceLearningTask,001,136,
min1.png,min2.png,min3.png,min4.png,allBlank.png,"['num_7', 'num_4', 'num_1', 'num_0']",['num_7'],num_7,[1],'num_7',images/min1.png,"[(0.45, 0.79)]",,,,,0,6,6,6,4,3,19,0,,,,,"(0.75, -0.04)",images/min4.png,7,0.0543265640736,0.543565128231,[ 0.7296875 -0.075    ],,,,2018_Jun_17_1149,60.1028220881,sequenceLearningTask,001,136,
min1.png,min2.png,min3.png,min4.png,allBlank.png,"['num_7', 'num_4', 'num_1', 'num_0']",['num_7'],num_7,[1],'num_7',images/min1.png,"[(0.45, 0.79)]",,,,,0,6,6,6,4,3,19,0,,,,,"(-0.25, -0.04)",images/min2.png,7,0.0601731280331,0.541354256449,[ 0.6953125 -0.1      ],,,,2018_Jun_17_1149,60.1028220881,sequenceLearningTask,001,136,
min1.png,min2.png,min3.png,min4.png,allBlank.png,"['num_7', 'num_4', 'num_1', 'num_0']",['num_7'],num_7,[1],'num_7',images/min1.png,"[(0.45, 0.79)]",,,,,0,6,6,6,4,3,19,0,,,,,"(0.25, -0.04)",images/min3.png,7,0.0627975384705,0.581120820483,[-0.2328125 -0.15     ],,,,2018_Jun_17_1149,60.1028220881,sequenceLearningTask,001,136,
min1.png,min2.png,min3.png,min4.png,allBlank.png,"['num_7', 'num_4', 'num_1', 'num_0']",['num_7'],num_7,[1],'num_7',images/min1.png,"[(0.45, 0.79)]",,,,,0,6,6,6,4,3,19,0,,,,,"(0.75, -0.04)",images/min4.png,7,0.0575618462171,0.46999917971,[ 0.33125    -0.01944444],,,,2018_Jun_17_1149,60.1028220881,sequenceLearningTask,001,136,
min1.png,min2.png,min3.png,min4.png,allBlank.png,"['num_7', 'num_4', 'num_1', 'num_0']",['num_7'],num_7,[1],'num_7',images/min1.png,"[(0.45, 0.79)]",,,,,0,7,7,7,4,3,19,0,,,,,"(-0.75, -0.04)",images/min1.png,8,0.0576631794684,0.643041230738,[ 0.621875   -0.08055556],,,,2018_Jun_17_1149,60.1028220881,sequenceLearningTask,001,136,
min1.png,min2.png,min3.png,min4.png,allBlank.png,"['num_7', 'num_4', 'num_1', 'num_0']",['num_7'],num_7,[1],'num_7',images/min1.png,"[(0.45, 0.79)]",,,,,0,7,7,7,4,3,19,0,,,,,"(0.25, -0.04)",images/min3.png,8,0.0552410257515,0.458927999949,[-0.6546875  -0.11944444],,,,2018_Jun_17_1149,60.1028220881,sequenceLearningTask,001,136,
min1.png,min2.png,min3.png,min4.png,allBlank.png,"['num_7', 'num_4', 'num_1', 'num_0']",['num_7'],num_7,[1],'num_7',images/min1.png,"[(0.45, 0.79)]",,,,,0,7,7,7,4,3,19,0,,,,,"(-0.25, -0.04)",images/min2.png,8,0.0568935384508,0.453158564167,[ 0.2203125  -0.30277778],,,,2018_Jun_17_1149,60.1028220881,sequenceLearningTask,001,136,
min1.png,min2.png,min3.png,min4.png,allBlank.png,"['num_7', 'num_4', 'num_1', 'num_0']",['num_7'],num_7,[1],'num_7',images/min1.png,"[(0.45, 0.79)]",,,,,0,7,7,7,4,3,19,0,,,,,"(0.75, -0.04)",images/min4.png,8,0.0422137435526,0.394465641119,[-0.1578125  -0.20277778],,,,2018_Jun_17_1149,60.1028220881,sequenceLearningTask,001,136,
min1.png,min2.png,min3.png,min4.png,allBlank.png,"['num_7', 'num_4', 'num_1', 'num_0']",['num_7'],num_7,[1],'num_7',images/min1.png,"[(0.45, 0.79)]",,,,,0,7,7,7,4,3,19,0,,,,,"(0.75, -0.04)",images/min4.png,8,0.0587323077489,0.482321640942,[ 0.6359375  -0.18055556],,,,2018_Jun_17_1149,60.1028220881,sequenceLearningTask,001,136,
min1.png,min2.png,min3.png,min4.png,allBlank.png,"['num_7', 'num_4', 'num_1', 'num_0']",['num_7'],num_7,[1],'num_7',images/min1.png,"[(0.45, 0.79)]",,,,,0,7,7,7,4,3,19,0,,,,,"(-0.25, -0.04)",images/min2.png,8,0.0569760000799,0.888936615549,[ 0.7125     -0.25277778],,,,2018_Jun_17_1149,60.1028220881,sequenceLearningTask,001,136,
min1.png,min2.png,min3.png,min4.png,allBlank.png,"['num_7', 'num_4', 'num_1', 'num_0']",['num_7'],num_7,[1],'num_7',images/min1.png,"[(0.45, 0.79)]",,,,,0,7,7,7,4,3,19,0,,,,,"(0.25, -0.04)",images/min3.png,8,0.0533074871637,0.722138666548,[-0.1296875  -0.15833333],,,,2018_Jun_17_1149,60.1028220881,sequenceLearningTask,001,136,
min1.png,min2.png,min3.png,min4.png,allBlank.png,"['num_7', 'num_4', 'num_1', 'num_0']",['num_7'],num_7,[1],'num_7',images/min1.png,"[(0.45, 0.79)]",,,,,0,7,7,7,4,3,19,0,,,,,"(0.75, -0.04)",images/min4.png,8,0.057070359122,0.680858666543,[ 0.375       0.00277778],,,,2018_Jun_17_1149,60.1028220881,sequenceLearningTask,001,136,
min1.png,min2.png,min3.png,min4.png,allBlank.png,"['num_7', 'num_4', 'num_1', 'num_0']",['num_7'],num_7,[1],'num_7',images/min1.png,"[(0.45, 0.79)]",,,,,0,8,8,8,4,3,19,0,,,,,"(-0.75, -0.04)",images/min1.png,9,0.0536229743157,0.614421333419,[ 0.6921875  -0.11944444],,,,2018_Jun_17_1149,60.1028220881,sequenceLearningTask,001,136,
min1.png,min2.png,min3.png,min4.png,allBlank.png,"['num_7', 'num_4', 'num_1', 'num_0']",['num_7'],num_7,[1],'num_7',images/min1.png,"[(0.45, 0.79)]",,,,,0,8,8,8,4,3,19,0,,,,,"(0.25, -0.04)",images/min3.png,9,0.0555265641306,0.46771241026,[-0.828125   -0.05833333],,,,2018_Jun_17_1149,60.1028220881,sequenceLearningTask,001,136,
min1.png,min2.png,min3.png,min4.png,allBlank.png,"['num_7', 'num_4', 'num_1', 'num_0']",['num_7'],num_7,[1],'num_7',images/min1.png,"[(0.45, 0.79)]",,,,,0,8,8,8,4,3,19,0,,,,,"(-0.25, -0.04)",images/min2.png,9,0.0307011283003,0.579107281985,[ 0.1375     -0.24722222],,,,2018_Jun_17_1149,60.1028220881,sequenceLearningTask,001,136,
min1.png,min2.png,min3.png,min4.png,allBlank.png,"['num_7', 'num_4', 'num_1', 'num_0']",['num_7'],num_7,[1],'num_7',images/min1.png,"[(0.45, 0.79)]",,,,,0,8,8,8,4,3,19,0,,,,,"(0.75, -0.04)",images/min4.png,9,0.0542100514285,1.44305558992,[-0.2609375  -0.21666667],,,,2018_Jun_17_1149,60.1028220881,sequenceLearningTask,001,136,
min1.png,min2.png,min3.png,min4.png,allBlank.png,"['num_7', 'num_4', 'num_1', 'num_0']",['num_7'],num_7,[1],'num_7',images/min1.png,"[(0.45, 0.79)]",,,,,0,8,8,8,4,3,19,0,,,,,"(0.75, -0.04)",images/min4.png,9,0.0624619487207,0.928082871949,[ 0.6953125 -0.225    ],,,,2018_Jun_17_1149,60.1028220881,sequenceLearningTask,001,136,
min1.png,min2.png,min3.png,min4.png,allBlank.png,"['num_7', 'num_4', 'num_1', 'num_0']",['num_7'],num_7,[1],'num_7',images/min1.png,"[(0.45, 0.79)]",,,,,0,8,8,8,4,3,19,0,,,,,"(-0.25, -0.04)",images/min2.png,9,0.0522518975195,0.551077743759,[ 0.7703125  -0.09722222],,,,2018_Jun_17_1149,60.1028220881,sequenceLearningTask,001,136,
min1.png,min2.png,min3.png,min4.png,allBlank.png,"['num_7', 'num_4', 'num_1', 'num_0']",['num_7'],num_7,[1],'num_7',images/min1.png,"[(0.45, 0.79)]",,,,,0,8,8,8,4,3,19,0,,,,,"(0.25, -0.04)",images/min3.png,9,0.0603770257439,0.502207179554,[-0.2171875  -0.16944444],,,,2018_Jun_17_1149,60.1028220881,sequenceLearningTask,001,136,
min1.png,min2.png,min3.png,min4.png,allBlank.png,"['num_7', 'num_4', 'num_1', 'num_0']",['num_7'],num_7,[1],'num_7',images/min1.png,"[(0.45, 0.79)]",,,,,0,8,8,8,4,3,19,0,,,,,"(0.75, -0.04)",images/min4.png,9,0.0530953847338,0.557430153713,[ 0.2109375 -0.175    ],,,,2018_Jun_17_1149,60.1028220881,sequenceLearningTask,001,136,
min1.png,min2.png,min3.png,min4.png,allBlank.png,"['num_7', 'num_4', 'num_1', 'num_0']",['num_7'],num_7,[1],'num_7',images/min1.png,"[(0.45, 0.79)]",,,,,0,9,9,9,4,3,19,0,,,,,"(-0.75, -0.04)",images/min1.png,10,0.0534498461057,0.671205743682,[ 0.65625    -0.11388889],,,,2018_Jun_17_1149,60.1028220881,sequenceLearningTask,001,136,
min1.png,min2.png,min3.png,min4.png,allBlank.png,"['num_7', 'num_4', 'num_1', 'num_0']",['num_7'],num_7,[1],'num_7',images/min1.png,"[(0.45, 0.79)]",,,,,0,9,9,9,4,3,19,0,,,,,"(0.25, -0.04)",images/min3.png,10,0.0560738462955,1.40749292308,[-0.6359375  -0.16944444],,,,2018_Jun_17_1149,60.1028220881,sequenceLearningTask,001,136,
min1.png,min2.png,min3.png,min4.png,allBlank.png,"['num_7', 'num_4', 'num_1', 'num_0']",['num_7'],num_7,[1],'num_7',images/min1.png,"[(0.45, 0.79)]",,,,,0,9,9,9,4,3,19,0,,,,,"(-0.25, -0.04)",images/min2.png,10,0.0558802052401,0.601758769248,[ 0.159375   -0.29444444],,,,2018_Jun_17_1149,60.1028220881,sequenceLearningTask,001,136,
min1.png,min2.png,min3.png,min4.png,allBlank.png,"['num_7', 'num_4', 'num_1', 'num_0']",['num_7'],num_7,[1],'num_7',images/min1.png,"[(0.45, 0.79)]",,,,,0,9,9,9,4,3,19,0,,,,,"(0.75, -0.04)",images/min4.png,10,0.0590925128199,0.519051076844,[-0.2453125  -0.16944444],,,,2018_Jun_17_1149,60.1028220881,sequenceLearningTask,001,136,
min1.png,min2.png,min3.png,min4.png,allBlank.png,"['num_7', 'num_4', 'num_1', 'num_0']",['num_7'],num_7,[1],'num_7',images/min1.png,"[(0.45, 0.79)]",,,,,0,9,9,9,4,3,19,0,,,,,"(0.75, -0.04)",images/min4.png,10,0.0280028716661,0.53252676921,[ 0.6484375  -0.13055556],,,,2018_Jun_17_1149,60.1028220881,sequenceLearningTask,001,136,
min1.png,min2.png,min3.png,min4.png,allBlank.png,"['num_7', 'num_4', 'num_1', 'num_0']",['num_7'],num_7,[1],'num_7',images/min1.png,"[(0.45, 0.79)]",,,,,0,9,9,9,4,3,19,0,,,,,"(-0.25, -0.04)",images/min2.png,10,0.0574978459626,0.620386871975,[ 0.709375   -0.07222222],,,,2018_Jun_17_1149,60.1028220881,sequenceLearningTask,001,136,
min1.png,min2.png,min3.png,min4.png,allBlank.png,"['num_7', 'num_4', 'num_1', 'num_0']",['num_7'],num_7,[1],'num_7',images/min1.png,"[(0.45, 0.79)]",,,,,0,9,9,9,4,3,19,0,,,,,"(0.25, -0.04)",images/min3.png,10,0.0610879999585,0.528879179619,[-0.25       -0.26388889],,,,2018_Jun_17_1149,60.1028220881,sequenceLearningTask,001,136,
min1.png,min2.png,min3.png,min4.png,allBlank.png,"['num_7', 'num_4', 'num_1', 'num_0']",['num_7'],num_7,[1],'num_7',images/min1.png,"[(0.45, 0.79)]",,,,,0,9,9,9,4,3,19,0,,,,,"(0.75, -0.04)",images/min4.png,10,0.0571474872995,0.650847179582,[ 0.3109375  -0.04444444],,,,2018_Jun_17_1149,60.1028220881,sequenceLearningTask,001,136,
min1.png,min2.png,min3.png,min4.png,allBlank.png,"['num_7', 'num_4', 'num_1', 'num_0']",['num_7'],num_7,[1],'num_7',images/min1.png,"[(0.45, 0.79)]",,,,,0,9,9,9,4,3,19,0,0,-1,-1,0,,,,,,,,,,2018_Jun_17_1149,60.1028220881,sequenceLearningTask,001,136,
