pawPatrol1,pawPatrol2,pawPatrol3,pawPatrol4,blank,allowableKey,correctKey,correctKeyPressNum,posLoc,correctKeyPress,randomPaw,im_size,trials.thisRepN,trials.thisTrialN,trials.thisN,trials.thisIndex,trials_3.thisRepN,trials_3.thisTrialN,trials_3.thisN,trials_3.thisIndex,trials_2.thisRepN,trials_2.thisTrialN,trials_2.thisN,trials_2.thisIndex,trials_questions.thisRepN,trials_questions.thisTrialN,trials_questions.thisN,trials_questions.thisIndex,trials_test.thisRepN,trials_test.thisTrialN,trials_test.thisN,trials_test.thisIndex,trials_recogtest.thisRepN,trials_recogtest.thisTrialN,trials_recogtest.thisN,trials_recogtest.thisIndex,correctKey,repetitionNumber,stimulusPresent.t,trialCorrect,key_resp_9.keys,key_resp_9.corr,key_resp_9.rt,keyRespCorrect,questionsResponses,AnswerFinished.keys,AnswerFinished.rt,RecordAnswer.keys,RecordAnswer.rt,recallResponse,recallResponseTime,date,frameRate,expName,session,participant,
min1.png,min2.png,min3.png,min4.png,allBlank.png,,['num_7'],,,,,,,,,,0,0,0,0,,,,,,,,,,,,,,,,,['num_7'],1,0.0691667692736,1,['num_7'],0,[0.34325743606314063],,,,,,,,,2018_Jun_10_1759,60.0220142301,sequenceLearningTask,001,132,
min1.png,min2.png,min3.png,min4.png,allBlank.png,,['num_1'],,,,,,,,,,0,0,0,0,,,,,,,,,,,,,,,,,['num_1'],1,0.0565423588268,1,['num_1'],0,[0.3870871795807034],,,,,,,,,2018_Jun_10_1759,60.0220142301,sequenceLearningTask,001,132,
min1.png,min2.png,min3.png,min4.png,allBlank.png,,['num_4'],,,,,,,,,,0,0,0,0,,,,,,,,,,,,,,,,,['num_4'],1,0.0556422565132,1,['num_4'],0,[0.3388923075981438],,,,,,,,,2018_Jun_10_1759,60.0220142301,sequenceLearningTask,001,132,
min1.png,min2.png,min3.png,min4.png,allBlank.png,,['num_0'],,,,,,,,,,0,0,0,0,,,,,,,,,,,,,,,,,['num_0'],1,0.0554867691826,1,['num_0'],0,[0.30562625639140606],,,,,,,,,2018_Jun_10_1759,60.0220142301,sequenceLearningTask,001,132,
min1.png,min2.png,min3.png,min4.png,allBlank.png,,['num_0'],,,,,,,,,,0,0,0,0,,,,,,,,,,,,,,,,,['num_0'],1,0.056393025443,1,['num_0'],0,[0.42106953845359385],,,,,,,,,2018_Jun_10_1759,60.0220142301,sequenceLearningTask,001,132,
min1.png,min2.png,min3.png,min4.png,allBlank.png,,['num_4'],,,,,,,,,,0,0,0,0,,,,,,,,,,,,,,,,,['num_4'],1,0.0595208203886,1,['num_4'],0,[0.45246235909871757],,,,,,,,,2018_Jun_10_1759,60.0220142301,sequenceLearningTask,001,132,
min1.png,min2.png,min3.png,min4.png,allBlank.png,,['num_1'],,,,,,,,,,0,0,0,0,,,,,,,,,,,,,,,,,['num_1'],1,0.0512923076749,1,['num_1'],0,[0.37571323080919683],,,,,,,,,2018_Jun_10_1759,60.0220142301,sequenceLearningTask,001,132,
min1.png,min2.png,min3.png,min4.png,allBlank.png,,['num_0'],,,,,,,,,,0,0,0,0,,,,,,,,,,,,,,,,,['num_0'],1,0.0572348716669,1,['num_0'],0,[0.40425805118866265],,,,,,,,,2018_Jun_10_1759,60.0220142301,sequenceLearningTask,001,132,
min1.png,min2.png,min3.png,min4.png,allBlank.png,,['num_7'],,,,,,,,,,0,1,1,1,,,,,,,,,,,,,,,,,['num_7'],2,0.0566633846611,0,"['num_4', 'num_7']",0,"[0.3033403076697141, 0.41873312811367214]",,,,,,,,,2018_Jun_10_1759,60.0220142301,sequenceLearningTask,001,132,
min1.png,min2.png,min3.png,min4.png,allBlank.png,,['num_1'],,,,,,,,,,0,1,1,1,,,,,,,,,,,,,,,,,['num_1'],2,0.0507975383662,0,"['num_4', 'num_1']",0,"[0.3100447179749608, 0.6771721024997532]",,,,,,,,,2018_Jun_10_1759,60.0220142301,sequenceLearningTask,001,132,
min1.png,min2.png,min3.png,min4.png,allBlank.png,,['num_4'],,,,,,,,,,0,1,1,1,,,,,,,,,,,,,,,,,['num_4'],2,0.0586744614411,1,['num_4'],0,[0.38609476923011243],,,,,,,,,2018_Jun_10_1759,60.0220142301,sequenceLearningTask,001,132,
min1.png,min2.png,min3.png,min4.png,allBlank.png,,['num_0'],,,,,,,,,,0,1,1,1,,,,,,,,,,,,,,,,,['num_0'],2,0.0513829742558,1,['num_0'],0,[0.3096447179559618],,,,,,,,,2018_Jun_10_1759,60.0220142301,sequenceLearningTask,001,132,
min1.png,min2.png,min3.png,min4.png,allBlank.png,,['num_0'],,,,,,,,,,0,1,1,1,,,,,,,,,,,,,,,,,['num_0'],2,0.0558576411568,1,['num_0'],0,[0.4044348718598485],,,,,,,,,2018_Jun_10_1759,60.0220142301,sequenceLearningTask,001,132,
min1.png,min2.png,min3.png,min4.png,allBlank.png,,['num_4'],,,,,,,,,,0,1,1,1,,,,,,,,,,,,,,,,,['num_4'],2,0.0495286155492,1,['num_4'],0,[0.31183466664515436],,,,,,,,,2018_Jun_10_1759,60.0220142301,sequenceLearningTask,001,132,
min1.png,min2.png,min3.png,min4.png,allBlank.png,,['num_1'],,,,,,,,,,0,1,1,1,,,,,,,,,,,,,,,,,['num_1'],2,0.0508336408529,1,['num_1'],0,[0.29319384624250233],,,,,,,,,2018_Jun_10_1759,60.0220142301,sequenceLearningTask,001,132,
min1.png,min2.png,min3.png,min4.png,allBlank.png,,['num_0'],,,,,,,,,,0,1,1,1,,,,,,,,,,,,,,,,,['num_0'],2,0.0582432821393,1,['num_0'],0,[0.319961846107617],,,,,,,,,2018_Jun_10_1759,60.0220142301,sequenceLearningTask,001,132,
min1.png,min2.png,min3.png,min4.png,allBlank.png,,['num_7'],,,,,,,,,,0,2,2,2,,,,,,,,,,,,,,,,,['num_7'],3,0.053016615333,1,['num_7'],0,[0.28911261539906263],,,,,,,,,2018_Jun_10_1759,60.0220142301,sequenceLearningTask,001,132,
min1.png,min2.png,min3.png,min4.png,allBlank.png,,['num_1'],,,,,,,,,,0,2,2,2,,,,,,,,,,,,,,,,,['num_1'],3,0.0499175384175,1,['num_1'],0,[0.2943528206087649],,,,,,,,,2018_Jun_10_1759,60.0220142301,sequenceLearningTask,001,132,
min1.png,min2.png,min3.png,min4.png,allBlank.png,,['num_4'],,,,,,,,,,0,2,2,2,,,,,,,,,,,,,,,,,['num_4'],3,0.0460283076391,1,['num_4'],0,[0.26573825627565384],,,,,,,,,2018_Jun_10_1759,60.0220142301,sequenceLearningTask,001,132,
min1.png,min2.png,min3.png,min4.png,allBlank.png,,['num_0'],,,,,,,,,,0,2,2,2,,,,,,,,,,,,,,,,,['num_0'],3,0.0524795898236,1,['num_0'],0,[0.29199712816625834],,,,,,,,,2018_Jun_10_1759,60.0220142301,sequenceLearningTask,001,132,
min1.png,min2.png,min3.png,min4.png,allBlank.png,,['num_0'],,,,,,,,,,0,2,2,2,,,,,,,,,,,,,,,,,['num_0'],3,0.091445743572,0,"['num_7', 'num_0']",0,"[0.18573251273483038, 0.45269907684996724]",,,,,,,,,2018_Jun_10_1759,60.0220142301,sequenceLearningTask,001,132,
min1.png,min2.png,min3.png,min4.png,allBlank.png,,['num_4'],,,,,,,,,,0,2,2,2,,,,,,,,,,,,,,,,,['num_4'],3,0.0518211282324,0,"['num_7', 'num_4', 'num_4']",0,"[0.42749292287044227, 2.4422346665523946]",,,,,,,,,2018_Jun_10_1759,60.0220142301,sequenceLearningTask,001,132,
min1.png,min2.png,min3.png,min4.png,allBlank.png,,['num_1'],,,,,,,,,,0,2,2,2,,,,,,,,,,,,,,,,,['num_1'],3,0.0519922052044,1,['num_1'],0,[0.3926133334171027],,,,,,,,,2018_Jun_10_1759,60.0220142301,sequenceLearningTask,001,132,
min1.png,min2.png,min3.png,min4.png,allBlank.png,,['num_0'],,,,,,,,,,0,2,2,2,,,,,,,,,,,,,,,,,['num_0'],3,0.0542797949165,1,['num_0'],0,[0.28931241016834974],,,,,,,,,2018_Jun_10_1759,60.0220142301,sequenceLearningTask,001,132,
min1.png,min2.png,min3.png,min4.png,allBlank.png,,['num_7'],,,,,,,,,,0,3,3,3,,,,,,,,,,,,,,,,,['num_7'],4,0.051194666652,0,"['num_4', 'num_7']",0,"[0.2569284101482481, 0.4740168205462396]",,,,,,,,,2018_Jun_10_1759,60.0220142301,sequenceLearningTask,001,132,
min1.png,min2.png,min3.png,min4.png,allBlank.png,,['num_1'],,,,,,,,,,0,3,3,3,,,,,,,,,,,,,,,,,['num_1'],4,0.0590285127982,1,['num_1'],0,[0.35175712825730443],,,,,,,,,2018_Jun_10_1759,60.0220142301,sequenceLearningTask,001,132,
min1.png,min2.png,min3.png,min4.png,allBlank.png,,['num_4'],,,,,,,,,,0,3,3,3,,,,,,,,,,,,,,,,,['num_4'],4,0.0546211281326,0,"['num_7', 'num_4']",0,"[0.3730133331846446, 0.6074962050188333]",,,,,,,,,2018_Jun_10_1759,60.0220142301,sequenceLearningTask,001,132,
min1.png,min2.png,min3.png,min4.png,allBlank.png,,['num_0'],,,,,,,,,,0,3,3,3,,,,,,,,,,,,,,,,,['num_0'],4,0.0512205129489,1,['num_0'],0,[0.3758043076377362],,,,,,,,,2018_Jun_10_1759,60.0220142301,sequenceLearningTask,001,132,
min1.png,min2.png,min3.png,min4.png,allBlank.png,,['num_0'],,,,,,,,,,0,3,3,3,,,,,,,,,,,,,,,,,['num_0'],4,0.0514043075964,1,['num_0'],0,[0.4089932308997959],,,,,,,,,2018_Jun_10_1759,60.0220142301,sequenceLearningTask,001,132,
min1.png,min2.png,min3.png,min4.png,allBlank.png,,['num_4'],,,,,,,,,,0,3,3,3,,,,,,,,,,,,,,,,,['num_4'],4,0.0510141539853,0,"['num_1', 'num_4']",0,"[0.00032820506021380424, 0.32660594885237515]",,,,,,,,,2018_Jun_10_1759,60.0220142301,sequenceLearningTask,001,132,
min1.png,min2.png,min3.png,min4.png,allBlank.png,,['num_1'],,,,,,,,,,0,3,3,3,,,,,,,,,,,,,,,,,['num_1'],4,0.054148102412,1,['num_1'],0,[0.32356841024011374],,,,,,,,,2018_Jun_10_1759,60.0220142301,sequenceLearningTask,001,132,
min1.png,min2.png,min3.png,min4.png,allBlank.png,,['num_0'],,,,,,,,,,0,3,3,3,,,,,,,,,,,,,,,,,['num_0'],4,0.0516246154439,1,['num_0'],0,[0.310163282090798],,,,,,,,,2018_Jun_10_1759,60.0220142301,sequenceLearningTask,001,132,
min1.png,min2.png,min3.png,min4.png,allBlank.png,,['num_7'],,,,,,,,,,0,4,4,4,,,,,,,,,,,,,,,,,['num_7'],5,0.051021538442,1,['num_7'],0,[0.39263179479166865],,,,,,,,,2018_Jun_10_1759,60.0220142301,sequenceLearningTask,001,132,
min1.png,min2.png,min3.png,min4.png,allBlank.png,,['num_1'],,,,,,,,,,0,4,4,4,,,,,,,,,,,,,,,,,['num_1'],5,0.0542719999794,0,"['num_4', 'num_1']",0,"[0.4072356924880296, 1.0742974360473454]",,,,,,,,,2018_Jun_10_1759,60.0220142301,sequenceLearningTask,001,132,
min1.png,min2.png,min3.png,min4.png,allBlank.png,,['num_4'],,,,,,,,,,0,4,4,4,,,,,,,,,,,,,,,,,['num_4'],5,0.0518129230477,1,['num_4'],0,[0.5926104616373777],,,,,,,,,2018_Jun_10_1759,60.0220142301,sequenceLearningTask,001,132,
min1.png,min2.png,min3.png,min4.png,allBlank.png,,['num_0'],,,,,,,,,,0,4,4,4,,,,,,,,,,,,,,,,,['num_0'],5,0.0548336410429,1,['num_0'],0,[0.34050707682035863],,,,,,,,,2018_Jun_10_1759,60.0220142301,sequenceLearningTask,001,132,
min1.png,min2.png,min3.png,min4.png,allBlank.png,,['num_0'],,,,,,,,,,0,4,4,4,,,,,,,,,,,,,,,,,['num_0'],5,0.0563922051806,1,['num_0'],0,[0.40555815398693085],,,,,,,,,2018_Jun_10_1759,60.0220142301,sequenceLearningTask,001,132,
min1.png,min2.png,min3.png,min4.png,allBlank.png,,['num_4'],,,,,,,,,,0,4,4,4,,,,,,,,,,,,,,,,,['num_4'],5,0.0550941538531,0,"['num_7', 'num_4', 'num_4']",0,"[0.42215015389956534, 1.239090871764347]",,,,,,,,,2018_Jun_10_1759,60.0220142301,sequenceLearningTask,001,132,
min1.png,min2.png,min3.png,min4.png,allBlank.png,,['num_1'],,,,,,,,,,0,4,4,4,,,,,,,,,,,,,,,,,['num_1'],5,0.0543766152114,1,['num_1'],0,[0.3069468718022108],,,,,,,,,2018_Jun_10_1759,60.0220142301,sequenceLearningTask,001,132,
min1.png,min2.png,min3.png,min4.png,allBlank.png,,['num_0'],,,,,,,,,,0,4,4,4,,,,,,,,,,,,,,,,,['num_0'],5,0.0559413332958,1,['num_0'],0,[0.28996225632727146],,,,,,,,,2018_Jun_10_1759,60.0220142301,sequenceLearningTask,001,132,
min1.png,min2.png,min3.png,min4.png,allBlank.png,,['num_7'],,,,,,,,,,0,5,5,5,,,,,,,,,,,,,,,,,['num_7'],6,0.0525636922102,1,['num_7'],0,[0.47380676912143826],,,,,,,,,2018_Jun_10_1759,60.0220142301,sequenceLearningTask,001,132,
min1.png,min2.png,min3.png,min4.png,allBlank.png,,['num_1'],,,,,,,,,,0,5,5,5,,,,,,,,,,,,,,,,,['num_1'],6,0.0591429742053,1,['num_1'],0,[0.4350506665650755],,,,,,,,,2018_Jun_10_1759,60.0220142301,sequenceLearningTask,001,132,
min1.png,min2.png,min3.png,min4.png,allBlank.png,,['num_4'],,,,,,,,,,0,5,5,5,,,,,,,,,,,,,,,,,['num_4'],6,0.0531983589754,1,['num_4'],0,[0.30824492289684713],,,,,,,,,2018_Jun_10_1759,60.0220142301,sequenceLearningTask,001,132,
min1.png,min2.png,min3.png,min4.png,allBlank.png,,['num_0'],,,,,,,,,,0,5,5,5,,,,,,,,,,,,,,,,,['num_0'],6,0.0559224616736,1,['num_0'],0,[0.2889431796502322],,,,,,,,,2018_Jun_10_1759,60.0220142301,sequenceLearningTask,001,132,
min1.png,min2.png,min3.png,min4.png,allBlank.png,,['num_0'],,,,,,,,,,0,5,5,5,,,,,,,,,,,,,,,,,['num_0'],6,0.055977025535,1,['num_0'],0,[0.42130543594248593],,,,,,,,,2018_Jun_10_1759,60.0220142301,sequenceLearningTask,001,132,
min1.png,min2.png,min3.png,min4.png,allBlank.png,,['num_4'],,,,,,,,,,0,5,5,5,,,,,,,,,,,,,,,,,['num_4'],6,0.0572668716777,0,"['num_0', 'num_7', 'num_4']",0,"[0.27217682055197656, 0.4699437948875129, 0.4870252306573093]",,,,,,,,,2018_Jun_10_1759,60.0220142301,sequenceLearningTask,001,132,
min1.png,min2.png,min3.png,min4.png,allBlank.png,,['num_1'],,,,,,,,,,0,5,5,5,,,,,,,,,,,,,,,,,['num_1'],6,0.0565476922784,1,['num_1'],0,[0.28737682034261525],,,,,,,,,2018_Jun_10_1759,60.0220142301,sequenceLearningTask,001,132,
min1.png,min2.png,min3.png,min4.png,allBlank.png,,['num_0'],,,,,,,,,,0,5,5,5,,,,,,,,,,,,,,,,,['num_0'],6,0.0514490255155,1,['num_0'],0,[0.3087478973902762],,,,,,,,,2018_Jun_10_1759,60.0220142301,sequenceLearningTask,001,132,
min1.png,min2.png,min3.png,min4.png,allBlank.png,,['num_7'],,,,,,,,,,0,6,6,6,,,,,,,,,,,,,,,,,['num_7'],7,0.0524480000604,1,['num_7'],0,[0.3238367179874331],,,,,,,,,2018_Jun_10_1759,60.0220142301,sequenceLearningTask,001,132,
min1.png,min2.png,min3.png,min4.png,allBlank.png,,['num_1'],,,,,,,,,,0,6,6,6,,,,,,,,,,,,,,,,,['num_1'],7,0.0499511794187,1,['num_1'],0,[0.2943971282802522],,,,,,,,,2018_Jun_10_1759,60.0220142301,sequenceLearningTask,001,132,
min1.png,min2.png,min3.png,min4.png,allBlank.png,,['num_4'],,,,,,,,,,0,6,6,6,,,,,,,,,,,,,,,,,['num_4'],7,0.0553796924651,1,['num_4'],0,[0.2885620512533933],,,,,,,,,2018_Jun_10_1759,60.0220142301,sequenceLearningTask,001,132,
min1.png,min2.png,min3.png,min4.png,allBlank.png,,['num_0'],,,,,,,,,,0,6,6,6,,,,,,,,,,,,,,,,,['num_0'],7,0.0505152822006,1,['num_0'],0,[0.24406605120748281],,,,,,,,,2018_Jun_10_1759,60.0220142301,sequenceLearningTask,001,132,
min1.png,min2.png,min3.png,min4.png,allBlank.png,,['num_0'],,,,,,,,,,0,6,6,6,,,,,,,,,,,,,,,,,['num_0'],7,0.0546867691446,1,['num_0'],0,[0.38946871785447],,,,,,,,,2018_Jun_10_1759,60.0220142301,sequenceLearningTask,001,132,
min1.png,min2.png,min3.png,min4.png,allBlank.png,,['num_4'],,,,,,,,,,0,6,6,6,,,,,,,,,,,,,,,,,['num_4'],7,0.0498646153137,0,"['num_7', 'num_4']",0,"[0.27767753857187927, 0.4612320000305772]",,,,,,,,,2018_Jun_10_1759,60.0220142301,sequenceLearningTask,001,132,
min1.png,min2.png,min3.png,min4.png,allBlank.png,,['num_1'],,,,,,,,,,0,6,6,6,,,,,,,,,,,,,,,,,['num_1'],7,0.0533563075587,1,['num_1'],0,[0.24060758971609175],,,,,,,,,2018_Jun_10_1759,60.0220142301,sequenceLearningTask,001,132,
min1.png,min2.png,min3.png,min4.png,allBlank.png,,['num_0'],,,,,,,,,,0,6,6,6,,,,,,,,,,,,,,,,,['num_0'],7,0.0533821538556,1,['num_0'],0,[0.2746921025682241],,,,,,,,,2018_Jun_10_1759,60.0220142301,sequenceLearningTask,001,132,
min1.png,min2.png,min3.png,min4.png,allBlank.png,,['num_7'],,,,,,,,,,0,7,7,7,,,,,,,,,,,,,,,,,['num_7'],8,0.0539544613566,1,['num_7'],0,[0.25528861535713077],,,,,,,,,2018_Jun_10_1759,60.0220142301,sequenceLearningTask,001,132,
min1.png,min2.png,min3.png,min4.png,allBlank.png,,['num_1'],,,,,,,,,,0,7,7,7,,,,,,,,,,,,,,,,,['num_1'],8,0.0530855383258,1,['num_1'],0,[0.47389907692559063],,,,,,,,,2018_Jun_10_1759,60.0220142301,sequenceLearningTask,001,132,
min1.png,min2.png,min3.png,min4.png,allBlank.png,,['num_4'],,,,,,,,,,0,7,7,7,,,,,,,,,,,,,,,,,['num_4'],8,0.0578822565731,0,"['num_7', 'num_4']",0,"[0.4036787690129131, 0.41969394870102406]",,,,,,,,,2018_Jun_10_1759,60.0220142301,sequenceLearningTask,001,132,
min1.png,min2.png,min3.png,min4.png,allBlank.png,,['num_0'],,,,,,,,,,0,7,7,7,,,,,,,,,,,,,,,,,['num_0'],8,0.0536250255536,1,['num_0'],0,[0.29110112809576094],,,,,,,,,2018_Jun_10_1759,60.0220142301,sequenceLearningTask,001,132,
min1.png,min2.png,min3.png,min4.png,allBlank.png,,['num_0'],,,,,,,,,,0,7,7,7,,,,,,,,,,,,,,,,,['num_0'],8,0.0598166151904,1,['num_0'],0,[0.3855860512703657],,,,,,,,,2018_Jun_10_1759,60.0220142301,sequenceLearningTask,001,132,
min1.png,min2.png,min3.png,min4.png,allBlank.png,,['num_4'],,,,,,,,,,0,7,7,7,,,,,,,,,,,,,,,,,['num_4'],8,0.0513620513957,0,"['num_1', 'num_4']",0,"[0.293408410390839, 0.6421899488195777]",,,,,,,,,2018_Jun_10_1759,60.0220142301,sequenceLearningTask,001,132,
min1.png,min2.png,min3.png,min4.png,allBlank.png,,['num_1'],,,,,,,,,,0,7,7,7,,,,,,,,,,,,,,,,,['num_1'],8,0.0537796923891,1,['num_1'],0,[0.25603528204374015],,,,,,,,,2018_Jun_10_1759,60.0220142301,sequenceLearningTask,001,132,
min1.png,min2.png,min3.png,min4.png,allBlank.png,,['num_0'],,,,,,,,,,0,7,7,7,,,,,,,,,,,,,,,,,['num_0'],8,0.0650732307695,0,"['num_4', 'num_0']",0,"[0.2801628718152642, 0.34681969229131937]",,,,,,,,,2018_Jun_10_1759,60.0220142301,sequenceLearningTask,001,132,
min1.png,min2.png,min3.png,min4.png,allBlank.png,,['num_7'],,,,,,,,,,0,8,8,8,,,,,,,,,,,,,,,,,['num_7'],9,0.0531667692121,0,"['num_4', 'num_7']",0,"[0.23907282040454447, 0.40507938456721604]",,,,,,,,,2018_Jun_10_1759,60.0220142301,sequenceLearningTask,001,132,
min1.png,min2.png,min3.png,min4.png,allBlank.png,,['num_1'],,,,,,,,,,0,8,8,8,,,,,,,,,,,,,,,,,['num_1'],9,0.050548922969,0,"['num_0', 'num_1']",0,"[0.36088574351742864, 0.4101665641646832]",,,,,,,,,2018_Jun_10_1759,60.0220142301,sequenceLearningTask,001,132,
min1.png,min2.png,min3.png,min4.png,allBlank.png,,['num_4'],,,,,,,,,,0,8,8,8,,,,,,,,,,,,,,,,,['num_4'],9,0.0496902565937,0,"['num_7', 'num_4']",0,"[0.3282227690797299, 0.3942059485707432]",,,,,,,,,2018_Jun_10_1759,60.0220142301,sequenceLearningTask,001,132,
min1.png,min2.png,min3.png,min4.png,allBlank.png,,['num_0'],,,,,,,,,,0,8,8,8,,,,,,,,,,,,,,,,,['num_0'],9,0.0529403076507,0,"['num_1', 'num_0']",0,"[0.32401846162974834, 0.374090256402269]",,,,,,,,,2018_Jun_10_1759,60.0220142301,sequenceLearningTask,001,132,
min1.png,min2.png,min3.png,min4.png,allBlank.png,,['num_0'],,,,,,,,,,0,8,8,8,,,,,,,,,,,,,,,,,['num_0'],9,0.0538921025582,0,"['num_1', 'num_0']",0,"[0.3396344615612179, 0.37309497431851923]",,,,,,,,,2018_Jun_10_1759,60.0220142301,sequenceLearningTask,001,132,
min1.png,min2.png,min3.png,min4.png,allBlank.png,,['num_4'],,,,,,,,,,0,8,8,8,,,,,,,,,,,,,,,,,['num_4'],9,0.0522941537201,1,['num_4'],0,[0.32539076916873455],,,,,,,,,2018_Jun_10_1759,60.0220142301,sequenceLearningTask,001,132,
min1.png,min2.png,min3.png,min4.png,allBlank.png,,['num_1'],,,,,,,,,,0,8,8,8,,,,,,,,,,,,,,,,,['num_1'],9,0.0556422562804,0,"['num_0', 'num_0', 'num_4', 'num_1', 'num_1']",0,"[0.0002888203598558903, 0.322612923104316, 0.35717005119659007, 1.27292389748618]",,,,,,,,,2018_Jun_10_1759,60.0220142301,sequenceLearningTask,001,132,
min1.png,min2.png,min3.png,min4.png,allBlank.png,,['num_0'],,,,,,,,,,0,8,8,8,,,,,,,,,,,,,,,,,['num_0'],9,0.0558445127681,1,['num_0'],0,[0.32193517964333296],,,,,,,,,2018_Jun_10_1759,60.0220142301,sequenceLearningTask,001,132,
min1.png,min2.png,min3.png,min4.png,allBlank.png,,['num_7'],,,,,,,,,,0,9,9,9,,,,,,,,,,,,,,,,,['num_7'],10,0.0512287179008,0,"['num_1', 'num_0', 'num_7']",0,"[0.00033641024492681026, 0.3244283078238368, 0.4074921025894582]",,,,,,,,,2018_Jun_10_1759,60.0220142301,sequenceLearningTask,001,132,
min1.png,min2.png,min3.png,min4.png,allBlank.png,,['num_1'],,,,,,,,,,0,9,9,9,,,,,,,,,,,,,,,,,['num_1'],10,0.0596077947412,0,"['num_4', 'num_0', 'num_1']",0,"[0.0003126154188066721, 0.31794953835196793, 0.3511154870502651]",,,,,,,,,2018_Jun_10_1759,60.0220142301,sequenceLearningTask,001,132,
min1.png,min2.png,min3.png,min4.png,allBlank.png,,['num_4'],,,,,,,,,,0,9,9,9,,,,,,,,,,,,,,,,,['num_4'],10,0.0536229743157,0,"['num_0', 'num_4']",0,"[0.00030112825334072113, 0.24098420492373407]",,,,,,,,,2018_Jun_10_1759,60.0220142301,sequenceLearningTask,001,132,
min1.png,min2.png,min3.png,min4.png,allBlank.png,,['num_0'],,,,,,,,,,0,9,9,9,,,,,,,,,,,,,,,,,['num_0'],10,0.0554141537286,0,"['num_1', 'num_0']",0,"[0.272920205257833, 0.305705436039716]",,,,,,,,,2018_Jun_10_1759,60.0220142301,sequenceLearningTask,001,132,
min1.png,min2.png,min3.png,min4.png,allBlank.png,,['num_0'],,,,,,,,,,0,9,9,9,,,,,,,,,,,,,,,,,['num_0'],10,0.0572065641172,0,"['num_1', 'num_0', 'num_0']",0,"[0.4215819488745183, 1.753883077064529]",,,,,,,,,2018_Jun_10_1759,60.0220142301,sequenceLearningTask,001,132,
min1.png,min2.png,min3.png,min4.png,allBlank.png,,['num_4'],,,,,,,,,,0,9,9,9,,,,,,,,,,,,,,,,,['num_4'],10,0.0558990768623,1,['num_4'],0,[0.3044155896641314],,,,,,,,,2018_Jun_10_1759,60.0220142301,sequenceLearningTask,001,132,
min1.png,min2.png,min3.png,min4.png,allBlank.png,,['num_1'],,,,,,,,,,0,9,9,9,,,,,,,,,,,,,,,,,['num_1'],10,0.0539039999712,1,['num_1'],0,[0.2904028717894107],,,,,,,,,2018_Jun_10_1759,60.0220142301,sequenceLearningTask,001,132,
min1.png,min2.png,min3.png,min4.png,allBlank.png,,['num_0'],,,,,,,,,,0,9,9,9,,,,,,,,,,,,,,,,,['num_0'],10,0.0523909742478,1,['num_0'],0,[0.29224000009708107],,,,,,,,,2018_Jun_10_1759,60.0220142301,sequenceLearningTask,001,132,
min1.png,min2.png,min3.png,min4.png,allBlank.png,,['num_7'],,,,,,,,,,0,0,0,0,,,,,,,,,,,,,,,,,['num_7'],1,0.0415774357971,1,['num_7'],0,[0.44609887176193297],,,,,,,,,2018_Jun_10_1759,60.0220142301,sequenceLearningTask,001,132,
min1.png,min2.png,min3.png,min4.png,allBlank.png,,['num_1'],,,,,,,,,,0,0,0,0,,,,,,,,,,,,,,,,,['num_1'],1,0.0576886155177,1,['num_1'],0,[0.2700656410306692],,,,,,,,,2018_Jun_10_1759,60.0220142301,sequenceLearningTask,001,132,
min1.png,min2.png,min3.png,min4.png,allBlank.png,,['num_4'],,,,,,,,,,0,0,0,0,,,,,,,,,,,,,,,,,['num_4'],1,0.0607864614576,1,['num_4'],0,[0.2834088206291199],,,,,,,,,2018_Jun_10_1759,60.0220142301,sequenceLearningTask,001,132,
min1.png,min2.png,min3.png,min4.png,allBlank.png,,['num_0'],,,,,,,,,,0,0,0,0,,,,,,,,,,,,,,,,,['num_0'],1,0.0550822564401,1,['num_0'],0,[0.3047864616382867],,,,,,,,,2018_Jun_10_1759,60.0220142301,sequenceLearningTask,001,132,
min1.png,min2.png,min3.png,min4.png,allBlank.png,,['num_0'],,,,,,,,,,0,0,0,0,,,,,,,,,,,,,,,,,['num_0'],1,0.0545255383477,0,"['num_1', 'num_0']",0,"[0.35748758958652616, 0.7244886152911931]",,,,,,,,,2018_Jun_10_1759,60.0220142301,sequenceLearningTask,001,132,
min1.png,min2.png,min3.png,min4.png,allBlank.png,,['num_4'],,,,,,,,,,0,0,0,0,,,,,,,,,,,,,,,,,['num_4'],1,0.0699762052391,1,['num_4'],0,[0.3560369231272489],,,,,,,,,2018_Jun_10_1759,60.0220142301,sequenceLearningTask,001,132,
min1.png,min2.png,min3.png,min4.png,allBlank.png,,['num_1'],,,,,,,,,,0,0,0,0,,,,,,,,,,,,,,,,,['num_1'],1,0.0517074870877,1,['num_1'],0,[0.29376287176273763],,,,,,,,,2018_Jun_10_1759,60.0220142301,sequenceLearningTask,001,132,
min1.png,min2.png,min3.png,min4.png,allBlank.png,,['num_0'],,,,,,,,,,0,0,0,0,,,,,,,,,,,,,,,,,['num_0'],1,0.0543671795167,1,['num_0'],0,[0.27351794857531786],,,,,,,,,2018_Jun_10_1759,60.0220142301,sequenceLearningTask,001,132,
min1.png,min2.png,min3.png,min4.png,allBlank.png,,['num_7'],,,,,,,,,,0,1,1,1,,,,,,,,,,,,,,,,,['num_7'],2,0.0561493332498,0,"['num_4', 'num_4', 'num_4', 'num_7']",0,"[0.26902441028505564, 0.6028356922324747, 0.8699675896205008, 0.9192057435866445]",,,,,,,,,2018_Jun_10_1759,60.0220142301,sequenceLearningTask,001,132,
min1.png,min2.png,min3.png,min4.png,allBlank.png,,['num_1'],,,,,,,,,,0,1,1,1,,,,,,,,,,,,,,,,,['num_1'],2,0.0525423588697,0,"['num_4', 'num_1']",0,"[0.341787897516042, 0.6583351795561612]",,,,,,,,,2018_Jun_10_1759,60.0220142301,sequenceLearningTask,001,132,
min1.png,min2.png,min3.png,min4.png,allBlank.png,,['num_4'],,,,,,,,,,0,1,1,1,,,,,,,,,,,,,,,,,['num_4'],2,0.0583007179666,0,"['num_7', 'num_4']",0,"[0.4200742563698441, 0.4522088204976171]",,,,,,,,,2018_Jun_10_1759,60.0220142301,sequenceLearningTask,001,132,
min1.png,min2.png,min3.png,min4.png,allBlank.png,,['num_0'],,,,,,,,,,0,1,1,1,,,,,,,,,,,,,,,,,['num_0'],2,0.0601025640499,0,"['num_1', 'num_0', 'num_0']",0,"[0.319060102570802, 1.1510744616389275]",,,,,,,,,2018_Jun_10_1759,60.0220142301,sequenceLearningTask,001,132,
min1.png,min2.png,min3.png,min4.png,allBlank.png,,['num_0'],,,,,,,,,,0,1,1,1,,,,,,,,,,,,,,,,,['num_0'],2,0.0576430771034,1,['num_0'],0,[0.3694063590373844],,,,,,,,,2018_Jun_10_1759,60.0220142301,sequenceLearningTask,001,132,
min1.png,min2.png,min3.png,min4.png,allBlank.png,,['num_4'],,,,,,,,,,0,1,1,1,,,,,,,,,,,,,,,,,['num_4'],2,0.0552972306032,1,['num_4'],0,[0.3395031795371324],,,,,,,,,2018_Jun_10_1759,60.0220142301,sequenceLearningTask,001,132,
min1.png,min2.png,min3.png,min4.png,allBlank.png,,['num_1'],,,,,,,,,,0,1,1,1,,,,,,,,,,,,,,,,,['num_1'],2,0.0557727180421,1,['num_1'],0,[0.28690789733082056],,,,,,,,,2018_Jun_10_1759,60.0220142301,sequenceLearningTask,001,132,
min1.png,min2.png,min3.png,min4.png,allBlank.png,,['num_0'],,,,,,,,,,0,1,1,1,,,,,,,,,,,,,,,,,['num_0'],2,0.0517226667143,1,['num_0'],0,[0.27632615389302373],,,,,,,,,2018_Jun_10_1759,60.0220142301,sequenceLearningTask,001,132,
min1.png,min2.png,min3.png,min4.png,allBlank.png,,['num_7'],,,,,,,,,,0,2,2,2,,,,,,,,,,,,,,,,,['num_7'],3,0.0518555897288,0,"['num_4', 'num_4', 'num_7']",0,"[0.25843610242009163, 0.5583893333096057, 0.8578584613278508]",,,,,,,,,2018_Jun_10_1759,60.0220142301,sequenceLearningTask,001,132,
min1.png,min2.png,min3.png,min4.png,allBlank.png,,['num_1'],,,,,,,,,,0,2,2,2,,,,,,,,,,,,,,,,,['num_1'],3,0.0549136409536,0,"['num_4', 'num_1']",0,"[0.37168205133639276, 0.5056110769510269]",,,,,,,,,2018_Jun_10_1759,60.0220142301,sequenceLearningTask,001,132,
min1.png,min2.png,min3.png,min4.png,allBlank.png,,['num_4'],,,,,,,,,,0,2,2,2,,,,,,,,,,,,,,,,,['num_4'],3,0.0555515899323,1,['num_4'],0,[0.35606687190011144],,,,,,,,,2018_Jun_10_1759,60.0220142301,sequenceLearningTask,001,132,
min1.png,min2.png,min3.png,min4.png,allBlank.png,,['num_0'],,,,,,,,,,0,2,2,2,,,,,,,,,,,,,,,,,['num_0'],3,0.0559934359044,1,['num_0'],0,[0.3709591794759035],,,,,,,,,2018_Jun_10_1759,60.0220142301,sequenceLearningTask,001,132,
min1.png,min2.png,min3.png,min4.png,allBlank.png,,['num_0'],,,,,,,,,,0,2,2,2,,,,,,,,,,,,,,,,,['num_0'],3,0.0613731283229,1,['num_0'],0,[0.3655868717469275],,,,,,,,,2018_Jun_10_1759,60.0220142301,sequenceLearningTask,001,132,
min1.png,min2.png,min3.png,min4.png,allBlank.png,,['num_4'],,,,,,,,,,0,2,2,2,,,,,,,,,,,,,,,,,['num_4'],3,0.0604295386001,1,['num_4'],0,[0.267190974438563],,,,,,,,,2018_Jun_10_1759,60.0220142301,sequenceLearningTask,001,132,
min1.png,min2.png,min3.png,min4.png,allBlank.png,,['num_1'],,,,,,,,,,0,2,2,2,,,,,,,,,,,,,,,,,['num_1'],3,0.0527171280701,1,['num_1'],0,[0.3076090256217867],,,,,,,,,2018_Jun_10_1759,60.0220142301,sequenceLearningTask,001,132,
min1.png,min2.png,min3.png,min4.png,allBlank.png,,['num_0'],,,,,,,,,,0,2,2,2,,,,,,,,,,,,,,,,,['num_0'],3,0.0550781539641,1,['num_0'],0,[0.2839113846421242],,,,,,,,,2018_Jun_10_1759,60.0220142301,sequenceLearningTask,001,132,
min1.png,min2.png,min3.png,min4.png,allBlank.png,,['num_7'],,,,,,,,,,0,3,3,3,,,,,,,,,,,,,,,,,['num_7'],4,0.0576771281194,0,"['num_4', 'num_7']",0,"[0.23446317948400974, 0.3847261539194733]",,,,,,,,,2018_Jun_10_1759,60.0220142301,sequenceLearningTask,001,132,
min1.png,min2.png,min3.png,min4.png,allBlank.png,,['num_1'],,,,,,,,,,0,3,3,3,,,,,,,,,,,,,,,,,['num_1'],4,0.0510683078319,0,"['num_4', 'num_1']",0,"[0.2431831795256585, 0.32658420503139496]",,,,,,,,,2018_Jun_10_1759,60.0220142301,sequenceLearningTask,001,132,
min1.png,min2.png,min3.png,min4.png,allBlank.png,,['num_4'],,,,,,,,,,0,3,3,3,,,,,,,,,,,,,,,,,['num_4'],4,0.0573936409783,0,"['num_7', 'num_4']",0,"[0.288001230917871, 0.40326153859496117]",,,,,,,,,2018_Jun_10_1759,60.0220142301,sequenceLearningTask,001,132,
min1.png,min2.png,min3.png,min4.png,allBlank.png,,['num_0'],,,,,,,,,,0,3,3,3,,,,,,,,,,,,,,,,,['num_0'],4,0.0581234872807,1,['num_0'],0,[0.3358925129286945],,,,,,,,,2018_Jun_10_1759,60.0220142301,sequenceLearningTask,001,132,
min1.png,min2.png,min3.png,min4.png,allBlank.png,,['num_0'],,,,,,,,,,0,3,3,3,,,,,,,,,,,,,,,,,['num_0'],4,0.0541128204204,1,['num_0'],0,[0.35506994859315455],,,,,,,,,2018_Jun_10_1759,60.0220142301,sequenceLearningTask,001,132,
min1.png,min2.png,min3.png,min4.png,allBlank.png,,['num_4'],,,,,,,,,,0,3,3,3,,,,,,,,,,,,,,,,,['num_4'],4,0.06119999988,1,['num_4'],0,[0.28273928188718855],,,,,,,,,2018_Jun_10_1759,60.0220142301,sequenceLearningTask,001,132,
min1.png,min2.png,min3.png,min4.png,allBlank.png,,['num_1'],,,,,,,,,,0,3,3,3,,,,,,,,,,,,,,,,,['num_1'],4,0.0659917946905,1,['num_1'],0,[0.3109735385514796],,,,,,,,,2018_Jun_10_1759,60.0220142301,sequenceLearningTask,001,132,
min1.png,min2.png,min3.png,min4.png,allBlank.png,,['num_0'],,,,,,,,,,0,3,3,3,,,,,,,,,,,,,,,,,['num_0'],4,0.0526490255725,1,['num_0'],0,[0.3752447178121656],,,,,,,,,2018_Jun_10_1759,60.0220142301,sequenceLearningTask,001,132,
min1.png,min2.png,min3.png,min4.png,allBlank.png,,['num_7'],,,,,,,,,,0,4,4,4,,,,,,,,,,,,,,,,,['num_7'],5,0.0510059485678,1,['num_7'],0,[0.25894235889427364],,,,,,,,,2018_Jun_10_1759,60.0220142301,sequenceLearningTask,001,132,
min1.png,min2.png,min3.png,min4.png,allBlank.png,,['num_1'],,,,,,,,,,0,4,4,4,,,,,,,,,,,,,,,,,['num_1'],5,0.0583249230403,1,['num_1'],0,[0.33549538464285433],,,,,,,,,2018_Jun_10_1759,60.0220142301,sequenceLearningTask,001,132,
min1.png,min2.png,min3.png,min4.png,allBlank.png,,['num_4'],,,,,,,,,,0,4,4,4,,,,,,,,,,,,,,,,,['num_4'],5,0.0587122051511,1,['num_4'],0,[0.3363035898655653],,,,,,,,,2018_Jun_10_1759,60.0220142301,sequenceLearningTask,001,132,
min1.png,min2.png,min3.png,min4.png,allBlank.png,,['num_0'],,,,,,,,,,0,4,4,4,,,,,,,,,,,,,,,,,['num_0'],5,0.0582966152579,1,['num_0'],0,[0.3033382564317435],,,,,,,,,2018_Jun_10_1759,60.0220142301,sequenceLearningTask,001,132,
min1.png,min2.png,min3.png,min4.png,allBlank.png,,['num_0'],,,,,,,,,,0,4,4,4,,,,,,,,,,,,,,,,,['num_0'],5,0.0506223589182,1,['num_0'],0,[0.3769542563240975],,,,,,,,,2018_Jun_10_1759,60.0220142301,sequenceLearningTask,001,132,
min1.png,min2.png,min3.png,min4.png,allBlank.png,,['num_4'],,,,,,,,,,0,4,4,4,,,,,,,,,,,,,,,,,['num_4'],5,0.0592648205347,1,['num_4'],0,[0.3182432819157839],,,,,,,,,2018_Jun_10_1759,60.0220142301,sequenceLearningTask,001,132,
min1.png,min2.png,min3.png,min4.png,allBlank.png,,['num_1'],,,,,,,,,,0,4,4,4,,,,,,,,,,,,,,,,,['num_1'],5,0.0534482053481,1,['num_1'],0,[0.2905197946820408],,,,,,,,,2018_Jun_10_1759,60.0220142301,sequenceLearningTask,001,132,
min1.png,min2.png,min3.png,min4.png,allBlank.png,,['num_0'],,,,,,,,,,0,4,4,4,,,,,,,,,,,,,,,,,['num_0'],5,0.0502309743315,1,['num_0'],0,[0.3616295384708792],,,,,,,,,2018_Jun_10_1759,60.0220142301,sequenceLearningTask,001,132,
min1.png,min2.png,min3.png,min4.png,allBlank.png,,['num_7'],,,,,,,,,,0,5,5,5,,,,,,,,,,,,,,,,,['num_7'],6,0.0545193846337,1,['num_7'],0,[0.23779733339324594],,,,,,,,,2018_Jun_10_1759,60.0220142301,sequenceLearningTask,001,132,
min1.png,min2.png,min3.png,min4.png,allBlank.png,,['num_1'],,,,,,,,,,0,5,5,5,,,,,,,,,,,,,,,,,['num_1'],6,0.0530970257241,0,"['num_4', 'num_1']",0,"[0.2743089231662452, 0.3249329230748117]",,,,,,,,,2018_Jun_10_1759,60.0220142301,sequenceLearningTask,001,132,
min1.png,min2.png,min3.png,min4.png,allBlank.png,,['num_4'],,,,,,,,,,0,5,5,5,,,,,,,,,,,,,,,,,['num_4'],6,0.0590166153852,1,['num_4'],0,[0.302226051222533],,,,,,,,,2018_Jun_10_1759,60.0220142301,sequenceLearningTask,001,132,
min1.png,min2.png,min3.png,min4.png,allBlank.png,,['num_0'],,,,,,,,,,0,5,5,5,,,,,,,,,,,,,,,,,['num_0'],6,0.0545591795817,1,['num_0'],0,[0.10675446153618395],,,,,,,,,2018_Jun_10_1759,60.0220142301,sequenceLearningTask,001,132,
min1.png,min2.png,min3.png,min4.png,allBlank.png,,['num_0'],,,,,,,,,,0,5,5,5,,,,,,,,,,,,,,,,,['num_0'],6,0.0668931282125,1,['num_0'],0,[0.3603532307315618],,,,,,,,,2018_Jun_10_1759,60.0220142301,sequenceLearningTask,001,132,
min1.png,min2.png,min3.png,min4.png,allBlank.png,,['num_4'],,,,,,,,,,0,5,5,5,,,,,,,,,,,,,,,,,['num_4'],6,0.0551450254861,1,['num_4'],0,[0.339364102575928],,,,,,,,,2018_Jun_10_1759,60.0220142301,sequenceLearningTask,001,132,
min1.png,min2.png,min3.png,min4.png,allBlank.png,,['num_1'],,,,,,,,,,0,5,5,5,,,,,,,,,,,,,,,,,['num_1'],6,0.0522662561852,1,['num_1'],0,[0.2585304614622146],,,,,,,,,2018_Jun_10_1759,60.0220142301,sequenceLearningTask,001,132,
min1.png,min2.png,min3.png,min4.png,allBlank.png,,['num_0'],,,,,,,,,,0,5,5,5,,,,,,,,,,,,,,,,,['num_0'],6,0.0512467692606,1,['num_0'],0,[0.27529189735651016],,,,,,,,,2018_Jun_10_1759,60.0220142301,sequenceLearningTask,001,132,
min1.png,min2.png,min3.png,min4.png,allBlank.png,,['num_7'],,,,,,,,,,0,6,6,6,,,,,,,,,,,,,,,,,['num_7'],7,0.069805128267,1,['num_7'],0,[0.27224533329717815],,,,,,,,,2018_Jun_10_1759,60.0220142301,sequenceLearningTask,001,132,
min1.png,min2.png,min3.png,min4.png,allBlank.png,,['num_1'],,,,,,,,,,0,6,6,6,,,,,,,,,,,,,,,,,['num_1'],7,0.050256410148,1,['num_1'],0,[0.32706666667945683],,,,,,,,,2018_Jun_10_1759,60.0220142301,sequenceLearningTask,001,132,
min1.png,min2.png,min3.png,min4.png,allBlank.png,,['num_4'],,,,,,,,,,0,6,6,6,,,,,,,,,,,,,,,,,['num_4'],7,0.0630880000535,1,['num_4'],0,[0.3297349743079394],,,,,,,,,2018_Jun_10_1759,60.0220142301,sequenceLearningTask,001,132,
min1.png,min2.png,min3.png,min4.png,allBlank.png,,['num_0'],,,,,,,,,,0,6,6,6,,,,,,,,,,,,,,,,,['num_0'],7,0.0666219487321,1,['num_0'],0,[0.27631179499439895],,,,,,,,,2018_Jun_10_1759,60.0220142301,sequenceLearningTask,001,132,
min1.png,min2.png,min3.png,min4.png,allBlank.png,,['num_0'],,,,,,,,,,0,6,6,6,,,,,,,,,,,,,,,,,['num_0'],7,0.0534387691878,1,['num_0'],0,[0.35752615379169583],,,,,,,,,2018_Jun_10_1759,60.0220142301,sequenceLearningTask,001,132,
min1.png,min2.png,min3.png,min4.png,allBlank.png,,['num_4'],,,,,,,,,,0,6,6,6,,,,,,,,,,,,,,,,,['num_4'],7,0.0550424614921,1,['num_4'],0,[0.2900430769659579],,,,,,,,,2018_Jun_10_1759,60.0220142301,sequenceLearningTask,001,132,
min1.png,min2.png,min3.png,min4.png,allBlank.png,,['num_1'],,,,,,,,,,0,6,6,6,,,,,,,,,,,,,,,,,['num_1'],7,0.0526157948188,1,['num_1'],0,[0.2754190769046545],,,,,,,,,2018_Jun_10_1759,60.0220142301,sequenceLearningTask,001,132,
min1.png,min2.png,min3.png,min4.png,allBlank.png,,['num_0'],,,,,,,,,,0,6,6,6,,,,,,,,,,,,,,,,,['num_0'],7,0.0556570256595,1,['num_0'],0,[0.28858994878828526],,,,,,,,,2018_Jun_10_1759,60.0220142301,sequenceLearningTask,001,132,
min1.png,min2.png,min3.png,min4.png,allBlank.png,,['num_7'],,,,,,,,,,0,7,7,7,,,,,,,,,,,,,,,,,['num_7'],8,0.0500180511735,1,['num_7'],0,[0.24335917946882546],,,,,,,,,2018_Jun_10_1759,60.0220142301,sequenceLearningTask,001,132,
min1.png,min2.png,min3.png,min4.png,allBlank.png,,['num_1'],,,,,,,,,,0,7,7,7,,,,,,,,,,,,,,,,,['num_1'],8,0.0539019487333,0,"['num_4', 'num_1']",0,"[0.2569928204175085, 0.3070613332092762]",,,,,,,,,2018_Jun_10_1759,60.0220142301,sequenceLearningTask,001,132,
min1.png,min2.png,min3.png,min4.png,allBlank.png,,['num_4'],,,,,,,,,,0,7,7,7,,,,,,,,,,,,,,,,,['num_4'],8,0.0565099488012,1,['num_4'],0,[0.2714141539763659],,,,,,,,,2018_Jun_10_1759,60.0220142301,sequenceLearningTask,001,132,
min1.png,min2.png,min3.png,min4.png,allBlank.png,,['num_0'],,,,,,,,,,0,7,7,7,,,,,,,,,,,,,,,,,['num_0'],8,0.0576463588513,1,['num_0'],0,[0.25398687180131674],,,,,,,,,2018_Jun_10_1759,60.0220142301,sequenceLearningTask,001,132,
min1.png,min2.png,min3.png,min4.png,allBlank.png,,['num_0'],,,,,,,,,,0,7,7,7,,,,,,,,,,,,,,,,,['num_0'],8,0.0554465639871,0,"['num_7', 'num_0']",0,"[0.28938871808350086, 0.489354666788131]",,,,,,,,,2018_Jun_10_1759,60.0220142301,sequenceLearningTask,001,132,
min1.png,min2.png,min3.png,min4.png,allBlank.png,,['num_4'],,,,,,,,,,0,7,7,7,,,,,,,,,,,,,,,,,['num_4'],8,0.0539314870257,0,"['num_0', 'num_4']",0,"[0.29155487194657326, 0.45748594868928194]",,,,,,,,,2018_Jun_10_1759,60.0220142301,sequenceLearningTask,001,132,
min1.png,min2.png,min3.png,min4.png,allBlank.png,,['num_1'],,,,,,,,,,0,7,7,7,,,,,,,,,,,,,,,,,['num_1'],8,0.0565768205561,1,['num_1'],0,[0.30461497441865504],,,,,,,,,2018_Jun_10_1759,60.0220142301,sequenceLearningTask,001,132,
min1.png,min2.png,min3.png,min4.png,allBlank.png,,['num_0'],,,,,,,,,,0,7,7,7,,,,,,,,,,,,,,,,,['num_0'],8,0.05845866655,1,['num_0'],0,[0.26889230753295124],,,,,,,,,2018_Jun_10_1759,60.0220142301,sequenceLearningTask,001,132,
min1.png,min2.png,min3.png,min4.png,allBlank.png,,['num_7'],,,,,,,,,,0,8,8,8,,,,,,,,,,,,,,,,,['num_7'],9,0.0516028716229,0,"['num_4', 'num_7']",0,"[0.27456123079173267, 0.5906527179758996]",,,,,,,,,2018_Jun_10_1759,60.0220142301,sequenceLearningTask,001,132,
min1.png,min2.png,min3.png,min4.png,allBlank.png,,['num_1'],,,,,,,,,,0,8,8,8,,,,,,,,,,,,,,,,,['num_1'],9,0.0620430768467,1,['num_1'],0,[0.31551712821237743],,,,,,,,,2018_Jun_10_1759,60.0220142301,sequenceLearningTask,001,132,
min1.png,min2.png,min3.png,min4.png,allBlank.png,,['num_4'],,,,,,,,,,0,8,8,8,,,,,,,,,,,,,,,,,['num_4'],9,0.0560233846772,0,"['num_7', 'num_4']",0,"[0.3700480000115931, 0.3869944615289569]",,,,,,,,,2018_Jun_10_1759,60.0220142301,sequenceLearningTask,001,132,
min1.png,min2.png,min3.png,min4.png,allBlank.png,,['num_0'],,,,,,,,,,0,8,8,8,,,,,,,,,,,,,,,,,['num_0'],9,0.0604205129202,1,['num_0'],0,[0.2999893333762884],,,,,,,,,2018_Jun_10_1759,60.0220142301,sequenceLearningTask,001,132,
min1.png,min2.png,min3.png,min4.png,allBlank.png,,['num_0'],,,,,,,,,,0,8,8,8,,,,,,,,,,,,,,,,,['num_0'],9,0.0631269742735,1,['num_0'],0,[0.39654071792028844],,,,,,,,,2018_Jun_10_1759,60.0220142301,sequenceLearningTask,001,132,
min1.png,min2.png,min3.png,min4.png,allBlank.png,,['num_4'],,,,,,,,,,0,8,8,8,,,,,,,,,,,,,,,,,['num_4'],9,0.0802424615249,1,['num_4'],0,[0.24406605144031346],,,,,,,,,2018_Jun_10_1759,60.0220142301,sequenceLearningTask,001,132,
min1.png,min2.png,min3.png,min4.png,allBlank.png,,['num_1'],,,,,,,,,,0,8,8,8,,,,,,,,,,,,,,,,,['num_1'],9,0.073092923034,1,['num_1'],0,[0.18571364087983966],,,,,,,,,2018_Jun_10_1759,60.0220142301,sequenceLearningTask,001,132,
min1.png,min2.png,min3.png,min4.png,allBlank.png,,['num_0'],,,,,,,,,,0,8,8,8,,,,,,,,,,,,,,,,,['num_0'],9,0.0864873847459,1,['num_0'],0,[0.18782071792520583],,,,,,,,,2018_Jun_10_1759,60.0220142301,sequenceLearningTask,001,132,
min1.png,min2.png,min3.png,min4.png,allBlank.png,,['num_7'],,,,,,,,,,0,9,9,9,,,,,,,,,,,,,,,,,['num_7'],10,0.0376348719001,0,"['num_7', 'num_7']",0,"[0.020201025530695915, 0.6566785639151931]",,,,,,,,,2018_Jun_10_1759,60.0220142301,sequenceLearningTask,001,132,
min1.png,min2.png,min3.png,min4.png,allBlank.png,,['num_1'],,,,,,,,,,0,9,9,9,,,,,,,,,,,,,,,,,['num_1'],10,0.0530621539801,0,"['num_0', 'num_1']",0,"[0.37360328203067183, 0.5248676922637969]",,,,,,,,,2018_Jun_10_1759,60.0220142301,sequenceLearningTask,001,132,
min1.png,min2.png,min3.png,min4.png,allBlank.png,,['num_4'],,,,,,,,,,0,9,9,9,,,,,,,,,,,,,,,,,['num_4'],10,0.0560201026965,1,['num_4'],0,[0.25628184620290995],,,,,,,,,2018_Jun_10_1759,60.0220142301,sequenceLearningTask,001,132,
min1.png,min2.png,min3.png,min4.png,allBlank.png,,['num_0'],,,,,,,,,,0,9,9,9,,,,,,,,,,,,,,,,,['num_0'],10,0.076147692278,1,['num_0'],0,[0.24948307685554028],,,,,,,,,2018_Jun_10_1759,60.0220142301,sequenceLearningTask,001,132,
min1.png,min2.png,min3.png,min4.png,allBlank.png,,['num_0'],,,,,,,,,,0,9,9,9,,,,,,,,,,,,,,,,,['num_0'],10,0.060166974552,0,"['num_7', 'num_0']",0,"[0.0314116922672838, 0.49932307680137455]",,,,,,,,,2018_Jun_10_1759,60.0220142301,sequenceLearningTask,001,132,
min1.png,min2.png,min3.png,min4.png,allBlank.png,,['num_4'],,,,,,,,,,0,9,9,9,,,,,,,,,,,,,,,,,['num_4'],10,0.051330051152,0,"['num_0', 'num_4']",0,"[0.2601025642361492, 0.41037292312830687]",,,,,,,,,2018_Jun_10_1759,60.0220142301,sequenceLearningTask,001,132,
min1.png,min2.png,min3.png,min4.png,allBlank.png,,['num_1'],,,,,,,,,,0,9,9,9,,,,,,,,,,,,,,,,,['num_1'],10,0.0513230769429,1,['num_1'],0,[0.10931692295707762],,,,,,,,,2018_Jun_10_1759,60.0220142301,sequenceLearningTask,001,132,
min1.png,min2.png,min3.png,min4.png,allBlank.png,,['num_0'],,,,,,,,,,0,9,9,9,,,,,,,,,,,,,,,,,['num_0'],10,0.0489661537576,0,"['num_7', 'num_0']",0,"[0.1290949743706733, 0.4621390770189464]",,,,,,,,,2018_Jun_10_1759,60.0220142301,sequenceLearningTask,001,132,
min1.png,min2.png,min3.png,min4.png,images/allBlank.png,"['num_7', 'num_4', 'num_1', 'num_0']",['num_4'],num_4,[2],'num_4',images/min2.png,"[(0.45, 0.79)]",,,,,0,9,9,9,0,0,0,1,,,,,,,,,,,,,['num_4'],,0.0508771280292,0,"['num_7', 'num_1', 'num_4']",0,"[0.00021333340555429459, 0.26211938448250294, 0.34561969223432243]",0,,,,,,,,2018_Jun_10_1759,60.0220142301,sequenceLearningTask,001,132,
min1.png,min2.png,min3.png,min4.png,images/allBlank.png,"['num_7', 'num_4', 'num_1', 'num_0']",['num_0'],num_0,[4],'num_0',images/min4.png,"[(0.45, 0.79)]",,,,,0,9,9,9,0,1,1,3,,,,,,,,,,,,,['num_0'],,0.0637267690618,1,['num_0'],0,[0.3264225642196834],1,,,,,,,,2018_Jun_10_1759,60.0220142301,sequenceLearningTask,001,132,
min1.png,min2.png,min3.png,min4.png,images/allBlank.png,"['num_7', 'num_4', 'num_1', 'num_0']",['num_7'],num_7,[1],'num_7',images/min1.png,"[(0.45, 0.79)]",,,,,0,9,9,9,0,2,2,0,,,,,,,,,,,,,['num_7'],,0.0550978460815,1,['num_7'],0,[0.3038715897127986],1,,,,,,,,2018_Jun_10_1759,60.0220142301,sequenceLearningTask,001,132,
min1.png,min2.png,min3.png,min4.png,images/allBlank.png,"['num_7', 'num_4', 'num_1', 'num_0']",['num_1'],num_1,[3],'num_1',images/min3.png,"[(0.45, 0.79)]",,,,,0,9,9,9,0,3,3,2,,,,,,,,,,,,,['num_1'],,0.0630002052058,0,"['num_4', 'num_1']",0,"[0.24483856419101357, 0.3777144616469741]",0,,,,,,,,2018_Jun_10_1759,60.0220142301,sequenceLearningTask,001,132,
min1.png,min2.png,min3.png,min4.png,images/allBlank.png,"['num_7', 'num_4', 'num_1', 'num_0']",['num_7'],num_7,[1],'num_7',images/min1.png,"[(0.45, 0.79)]",,,,,0,9,9,9,1,0,4,0,,,,,,,,,,,,,['num_7'],,0.055278358981,1,['num_7'],0,[0.3362477947957814],1,,,,,,,,2018_Jun_10_1759,60.0220142301,sequenceLearningTask,001,132,
min1.png,min2.png,min3.png,min4.png,images/allBlank.png,"['num_7', 'num_4', 'num_1', 'num_0']",['num_0'],num_0,[4],'num_0',images/min4.png,"[(0.45, 0.79)]",,,,,0,9,9,9,1,1,5,3,,,,,,,,,,,,,['num_0'],,0.0547175386455,0,"['num_1', 'num_0']",0,"[0.3038962052669376, 0.620973948854953]",0,,,,,,,,2018_Jun_10_1759,60.0220142301,sequenceLearningTask,001,132,
min1.png,min2.png,min3.png,min4.png,images/allBlank.png,"['num_7', 'num_4', 'num_1', 'num_0']",['num_4'],num_4,[2],'num_4',images/min2.png,"[(0.45, 0.79)]",,,,,0,9,9,9,1,2,6,1,,,,,,,,,,,,,['num_4'],,0.0573833845556,0,"['num_7', 'num_4']",0,"[0.3674543590750545, 0.4164516923483461]",0,,,,,,,,2018_Jun_10_1759,60.0220142301,sequenceLearningTask,001,132,
min1.png,min2.png,min3.png,min4.png,images/allBlank.png,"['num_7', 'num_4', 'num_1', 'num_0']",['num_1'],num_1,[3],'num_1',images/min3.png,"[(0.45, 0.79)]",,,,,0,9,9,9,1,3,7,2,,,,,,,,,,,,,['num_1'],,0.0519565127324,1,['num_1'],0,[0.20653743599541485],1,,,,,,,,2018_Jun_10_1759,60.0220142301,sequenceLearningTask,001,132,
min1.png,min2.png,min3.png,min4.png,images/allBlank.png,"['num_7', 'num_4', 'num_1', 'num_0']",['num_4'],num_4,[2],'num_4',images/min2.png,"[(0.45, 0.79)]",,,,,0,9,9,9,2,0,8,1,,,,,,,,,,,,,['num_4'],,0.05210010265,0,"['num_7', 'num_4']",0,"[0.3240943590644747, 0.4071200001053512]",0,,,,,,,,2018_Jun_10_1759,60.0220142301,sequenceLearningTask,001,132,
min1.png,min2.png,min3.png,min4.png,images/allBlank.png,"['num_7', 'num_4', 'num_1', 'num_0']",['num_0'],num_0,[4],'num_0',images/min4.png,"[(0.45, 0.79)]",,,,,0,9,9,9,2,1,9,3,,,,,,,,,,,,,['num_0'],,0.0498576411046,1,['num_0'],0,[0.22618338465690613],1,,,,,,,,2018_Jun_10_1759,60.0220142301,sequenceLearningTask,001,132,
min1.png,min2.png,min3.png,min4.png,images/allBlank.png,"['num_7', 'num_4', 'num_1', 'num_0']",['num_1'],num_1,[3],'num_1',images/min3.png,"[(0.45, 0.79)]",,,,,0,9,9,9,2,2,10,2,,,,,,,,,,,,,['num_1'],,0.0498637950514,0,"['num_7', 'num_1']",0,"[0.25937435892410576, 0.3926740512251854]",0,,,,,,,,2018_Jun_10_1759,60.0220142301,sequenceLearningTask,001,132,
min1.png,min2.png,min3.png,min4.png,images/allBlank.png,"['num_7', 'num_4', 'num_1', 'num_0']",['num_7'],num_7,[1],'num_7',images/min1.png,"[(0.45, 0.79)]",,,,,0,9,9,9,2,3,11,0,,,,,,,,,,,,,['num_7'],,0.0510814357549,0,"['num_4', 'num_7']",0,"[0.29086194885894656, 0.4913591796066612]",0,,,,,,,,2018_Jun_10_1759,60.0220142301,sequenceLearningTask,001,132,
min1.png,min2.png,min3.png,min4.png,images/allBlank.png,"['num_7', 'num_4', 'num_1', 'num_0']",['num_7'],num_7,[1],'num_7',images/min1.png,"[(0.45, 0.79)]",,,,,0,9,9,9,3,0,12,0,,,,,,,,,,,,,['num_7'],,0.0523556924891,1,['num_7'],0,[0.4071039999835193],1,,,,,,,,2018_Jun_10_1759,60.0220142301,sequenceLearningTask,001,132,
min1.png,min2.png,min3.png,min4.png,images/allBlank.png,"['num_7', 'num_4', 'num_1', 'num_0']",['num_4'],num_4,[2],'num_4',images/min2.png,"[(0.45, 0.79)]",,,,,0,9,9,9,3,1,13,1,,,,,,,,,,,,,['num_4'],,0.0493636922911,1,['num_4'],0,[0.391935589723289],1,,,,,,,,2018_Jun_10_1759,60.0220142301,sequenceLearningTask,001,132,
min1.png,min2.png,min3.png,min4.png,images/allBlank.png,"['num_7', 'num_4', 'num_1', 'num_0']",['num_1'],num_1,[3],'num_1',images/min3.png,"[(0.45, 0.79)]",,,,,0,9,9,9,3,2,14,2,,,,,,,,,,,,,['num_1'],,0.0546822561882,1,['num_1'],0,[0.3698609231505543],1,,,,,,,,2018_Jun_10_1759,60.0220142301,sequenceLearningTask,001,132,
min1.png,min2.png,min3.png,min4.png,images/allBlank.png,"['num_7', 'num_4', 'num_1', 'num_0']",['num_0'],num_0,[4],'num_0',images/min4.png,"[(0.45, 0.79)]",,,,,0,9,9,9,3,3,15,3,,,,,,,,,,,,,['num_0'],,0.0530756923836,1,['num_0'],0,[0.28813046170398593],1,,,,,,,,2018_Jun_10_1759,60.0220142301,sequenceLearningTask,001,132,
min1.png,min2.png,min3.png,min4.png,images/allBlank.png,"['num_7', 'num_4', 'num_1', 'num_0']",['num_4'],num_4,[2],'num_4',images/min2.png,"[(0.45, 0.79)]",,,,,0,9,9,9,4,0,16,1,,,,,,,,,,,,,['num_4'],,0.0481321027037,1,['num_4'],0,[0.27748676924966276],1,,,,,,,,2018_Jun_10_1759,60.0220142301,sequenceLearningTask,001,132,
min1.png,min2.png,min3.png,min4.png,images/allBlank.png,"['num_7', 'num_4', 'num_1', 'num_0']",['num_7'],num_7,[1],'num_7',images/min1.png,"[(0.45, 0.79)]",,,,,0,9,9,9,4,1,17,0,,,,,,,,,,,,,['num_7'],,0.0509624613915,0,"['num_1', 'num_7']",0,"[0.19107241020537913, 0.4256389744114131]",0,,,,,,,,2018_Jun_10_1759,60.0220142301,sequenceLearningTask,001,132,
min1.png,min2.png,min3.png,min4.png,images/allBlank.png,"['num_7', 'num_4', 'num_1', 'num_0']",['num_0'],num_0,[4],'num_0',images/min4.png,"[(0.45, 0.79)]",,,,,0,9,9,9,4,2,18,3,,,,,,,,,,,,,['num_0'],,0.053194666747,0,"['num_1', 'num_0']",0,"[0.3217829742934555, 0.4210010254755616]",0,,,,,,,,2018_Jun_10_1759,60.0220142301,sequenceLearningTask,001,132,
min1.png,min2.png,min3.png,min4.png,images/allBlank.png,"['num_7', 'num_4', 'num_1', 'num_0']",['num_1'],num_1,[3],'num_1',images/min3.png,"[(0.45, 0.79)]",,,,,0,9,9,9,4,3,19,2,,,,,,,,,,,,,['num_1'],,0.0316114870366,0,"['num_7', 'num_1']",0,"[0.22832410247065127, 0.4117165128700435]",0,,,,,,,,2018_Jun_10_1759,60.0220142301,sequenceLearningTask,001,132,
min1.png,min2.png,min3.png,min4.png,images/allBlank.png,"['num_7', 'num_4', 'num_1', 'num_0']",['num_1'],num_1,[3],'num_1',images/min3.png,"[(0.45, 0.79)]",,,,,0,9,9,9,5,0,20,2,,,,,,,,,,,,,['num_1'],,0.034897641046,0,"['num_4', 'num_1', 'num_7', 'num_1']",0,"[0.00016205105930566788, 0.2928529230412096, 0.30922420509159565]",0,,,,,,,,2018_Jun_10_1759,60.0220142301,sequenceLearningTask,001,132,
min1.png,min2.png,min3.png,min4.png,images/allBlank.png,"['num_7', 'num_4', 'num_1', 'num_0']",['num_7'],num_7,[1],'num_7',images/min1.png,"[(0.45, 0.79)]",,,,,0,9,9,9,5,1,21,0,,,,,,,,,,,,,['num_7'],,0.0562305641361,0,"['num_0', 'num_7']",0,"[0.000218256376683712, 0.33624533331021667]",0,,,,,,,,2018_Jun_10_1759,60.0220142301,sequenceLearningTask,001,132,
min1.png,min2.png,min3.png,min4.png,images/allBlank.png,"['num_7', 'num_4', 'num_1', 'num_0']",['num_4'],num_4,[2],'num_4',images/min2.png,"[(0.45, 0.79)]",,,,,0,9,9,9,5,2,22,1,,,,,,,,,,,,,['num_4'],,0.056391794933,0,"['num_1', 'num_7', 'num_4']",0,"[0.26944082067348063, 0.3691835899371654, 0.48589251283556223]",0,,,,,,,,2018_Jun_10_1759,60.0220142301,sequenceLearningTask,001,132,
min1.png,min2.png,min3.png,min4.png,images/allBlank.png,"['num_7', 'num_4', 'num_1', 'num_0']",['num_0'],num_0,[4],'num_0',images/min4.png,"[(0.45, 0.79)]",,,,,0,9,9,9,5,3,23,3,,,,,,,,,,,,,['num_0'],,0.0555552819278,1,['num_0'],0,[0.32086687185801566],1,,,,,,,,2018_Jun_10_1759,60.0220142301,sequenceLearningTask,001,132,
min1.png,min2.png,min3.png,min4.png,images/allBlank.png,"['num_7', 'num_4', 'num_1', 'num_0']",['num_4'],num_4,[2],'num_4',images/min2.png,"[(0.45, 0.79)]",,,,,0,9,9,9,6,0,24,1,,,,,,,,,,,,,['num_4'],,0.0512496409938,1,['num_4'],0,[0.2750748717226088],1,,,,,,,,2018_Jun_10_1759,60.0220142301,sequenceLearningTask,001,132,
min1.png,min2.png,min3.png,min4.png,images/allBlank.png,"['num_7', 'num_4', 'num_1', 'num_0']",['num_0'],num_0,[4],'num_0',images/min4.png,"[(0.45, 0.79)]",,,,,0,9,9,9,6,1,25,3,,,,,,,,,,,,,['num_0'],,0.0577710769139,0,"['num_1', 'num_0']",0,"[0.2838482051156461, 0.5662367178592831]",0,,,,,,,,2018_Jun_10_1759,60.0220142301,sequenceLearningTask,001,132,
min1.png,min2.png,min3.png,min4.png,images/allBlank.png,"['num_7', 'num_4', 'num_1', 'num_0']",['num_7'],num_7,[1],'num_7',images/min1.png,"[(0.45, 0.79)]",,,,,0,9,9,9,6,2,26,0,,,,,,,,,,,,,['num_7'],,0.0562773332931,1,['num_7'],0,[0.2698079999536276],1,,,,,,,,2018_Jun_10_1759,60.0220142301,sequenceLearningTask,001,132,
min1.png,min2.png,min3.png,min4.png,images/allBlank.png,"['num_7', 'num_4', 'num_1', 'num_0']",['num_1'],num_1,[3],'num_1',images/min3.png,"[(0.45, 0.79)]",,,,,0,9,9,9,6,3,27,2,,,,,,,,,,,,,['num_1'],,0.0577119998634,1,['num_1'],0,[0.2512800002004951],1,,,,,,,,2018_Jun_10_1759,60.0220142301,sequenceLearningTask,001,132,
min1.png,min2.png,min3.png,min4.png,images/allBlank.png,"['num_7', 'num_4', 'num_1', 'num_0']",['num_4'],num_4,[2],'num_4',images/min2.png,"[(0.45, 0.79)]",,,,,0,9,9,9,7,0,28,1,,,,,,,,,,,,,['num_4'],,0.0558806152549,1,['num_4'],0,[0.3863076923880726],1,,,,,,,,2018_Jun_10_1759,60.0220142301,sequenceLearningTask,001,132,
min1.png,min2.png,min3.png,min4.png,images/allBlank.png,"['num_7', 'num_4', 'num_1', 'num_0']",['num_7'],num_7,[1],'num_7',images/min1.png,"[(0.45, 0.79)]",,,,,0,9,9,9,7,1,29,0,,,,,,,,,,,,,['num_7'],,0.0529374359176,0,"['num_4', 'num_7']",0,"[0.37169230775907636, 0.588768000015989]",0,,,,,,,,2018_Jun_10_1759,60.0220142301,sequenceLearningTask,001,132,
min1.png,min2.png,min3.png,min4.png,images/allBlank.png,"['num_7', 'num_4', 'num_1', 'num_0']",['num_0'],num_0,[4],'num_0',images/min4.png,"[(0.45, 0.79)]",,,,,0,9,9,9,7,2,30,3,,,,,,,,,,,,,['num_0'],,0.0568996923976,0,"['num_1', 'num_0']",0,"[0.3354071795474738, 0.36836020508781075]",0,,,,,,,,2018_Jun_10_1759,60.0220142301,sequenceLearningTask,001,132,
min1.png,min2.png,min3.png,min4.png,images/allBlank.png,"['num_7', 'num_4', 'num_1', 'num_0']",['num_1'],num_1,[3],'num_1',images/min3.png,"[(0.45, 0.79)]",,,,,0,9,9,9,7,3,31,2,,,,,,,,,,,,,['num_1'],,0.0531856410671,1,['num_1'],0,[0.40566728194244206],1,,,,,,,,2018_Jun_10_1759,60.0220142301,sequenceLearningTask,001,132,
min1.png,min2.png,min3.png,min4.png,images/allBlank.png,"['num_7', 'num_4', 'num_1', 'num_0']",['num_4'],num_4,[2],'num_4',images/min2.png,"[(0.45, 0.79)]",,,,,0,9,9,9,8,0,32,1,,,,,,,,,,,,,['num_4'],,0.0513435895555,0,"['num_7', 'num_4']",0,"[0.27487589744850993, 0.30769271799363196]",0,,,,,,,,2018_Jun_10_1759,60.0220142301,sequenceLearningTask,001,132,
min1.png,min2.png,min3.png,min4.png,images/allBlank.png,"['num_7', 'num_4', 'num_1', 'num_0']",['num_0'],num_0,[4],'num_0',images/min4.png,"[(0.45, 0.79)]",,,,,0,9,9,9,8,1,33,3,,,,,,,,,,,,,['num_0'],,0.0460910769179,0,"['num_0', 'num_1', 'num_0']",0,"[0.38250133325345814, 1.116460307734087]",0,,,,,,,,2018_Jun_10_1759,60.0220142301,sequenceLearningTask,001,132,
min1.png,min2.png,min3.png,min4.png,images/allBlank.png,"['num_7', 'num_4', 'num_1', 'num_0']",['num_7'],num_7,[1],'num_7',images/min1.png,"[(0.45, 0.79)]",,,,,0,9,9,9,8,2,34,0,,,,,,,,,,,,,['num_7'],,0.0495819486678,1,['num_7'],0,[0.3093825641553849],1,,,,,,,,2018_Jun_10_1759,60.0220142301,sequenceLearningTask,001,132,
min1.png,min2.png,min3.png,min4.png,images/allBlank.png,"['num_7', 'num_4', 'num_1', 'num_0']",['num_1'],num_1,[3],'num_1',images/min3.png,"[(0.45, 0.79)]",,,,,0,9,9,9,8,3,35,2,,,,,,,,,,,,,['num_1'],,0.0493928203359,1,['num_1'],0,[0.3092525126412511],1,,,,,,,,2018_Jun_10_1759,60.0220142301,sequenceLearningTask,001,132,
min1.png,min2.png,min3.png,min4.png,images/allBlank.png,"['num_7', 'num_4', 'num_1', 'num_0']",['num_0'],num_0,[4],'num_0',images/min4.png,"[(0.45, 0.79)]",,,,,0,9,9,9,9,0,36,3,,,,,,,,,,,,,['num_0'],,0.0514625641517,1,['num_0'],0,[0.2735803076066077],1,,,,,,,,2018_Jun_10_1759,60.0220142301,sequenceLearningTask,001,132,
min1.png,min2.png,min3.png,min4.png,images/allBlank.png,"['num_7', 'num_4', 'num_1', 'num_0']",['num_7'],num_7,[1],'num_7',images/min1.png,"[(0.45, 0.79)]",,,,,0,9,9,9,9,1,37,0,,,,,,,,,,,,,['num_7'],,0.0532795898616,0,"['num_4', 'num_7']",0,"[0.28799630771391094, 0.5052849231287837]",0,,,,,,,,2018_Jun_10_1759,60.0220142301,sequenceLearningTask,001,132,
min1.png,min2.png,min3.png,min4.png,images/allBlank.png,"['num_7', 'num_4', 'num_1', 'num_0']",['num_4'],num_4,[2],'num_4',images/min2.png,"[(0.45, 0.79)]",,,,,0,9,9,9,9,2,38,1,,,,,,,,,,,,,['num_4'],,0.0490748716984,1,['num_4'],0,[0.41035035881213844],1,,,,,,,,2018_Jun_10_1759,60.0220142301,sequenceLearningTask,001,132,
min1.png,min2.png,min3.png,min4.png,images/allBlank.png,"['num_7', 'num_4', 'num_1', 'num_0']",['num_1'],num_1,[3],'num_1',images/min3.png,"[(0.45, 0.79)]",,,,,0,9,9,9,9,3,39,2,,,,,,,,,,,,,['num_1'],,0.0570970256813,0,"['num_7', 'num_1']",0,"[0.00022400007583200932, 0.3004000000655651]",0,,,,,,,,2018_Jun_10_1759,60.0220142301,sequenceLearningTask,001,132,
min1.png,min2.png,min3.png,min4.png,images/allBlank.png,"['num_7', 'num_4', 'num_1', 'num_0']",['num_7'],num_7,[1],'num_7',images/min1.png,"[(0.45, 0.79)]",,,,,0,9,9,9,10,0,40,0,,,,,,,,,,,,,['num_7'],,0.0570658461656,1,['num_7'],0,[0.402275281958282],1,,,,,,,,2018_Jun_10_1759,60.0220142301,sequenceLearningTask,001,132,
min1.png,min2.png,min3.png,min4.png,images/allBlank.png,"['num_7', 'num_4', 'num_1', 'num_0']",['num_0'],num_0,[4],'num_0',images/min4.png,"[(0.45, 0.79)]",,,,,0,9,9,9,10,1,41,3,,,,,,,,,,,,,['num_0'],,0.055072410265,0,"['num_1', 'num_0', 'num_0']",0,"[0.40458338474854827, 1.0877107691485435]",0,,,,,,,,2018_Jun_10_1759,60.0220142301,sequenceLearningTask,001,132,
min1.png,min2.png,min3.png,min4.png,images/allBlank.png,"['num_7', 'num_4', 'num_1', 'num_0']",['num_1'],num_1,[3],'num_1',images/min3.png,"[(0.45, 0.79)]",,,,,0,9,9,9,10,2,42,2,,,,,,,,,,,,,['num_1'],,0.0568020511419,0,"['num_0', 'num_1']",0,"[0.3344533334020525, 0.5674855385441333]",0,,,,,,,,2018_Jun_10_1759,60.0220142301,sequenceLearningTask,001,132,
min1.png,min2.png,min3.png,min4.png,images/allBlank.png,"['num_7', 'num_4', 'num_1', 'num_0']",['num_4'],num_4,[2],'num_4',images/min2.png,"[(0.45, 0.79)]",,,,,0,9,9,9,10,3,43,1,,,,,,,,,,,,,['num_4'],,0.0626912820153,0,"['num_7', 'num_4', 'num_4']",0,"[0.32794912811368704, 0.8782789742108434]",0,,,,,,,,2018_Jun_10_1759,60.0220142301,sequenceLearningTask,001,132,
min1.png,min2.png,min3.png,min4.png,images/allBlank.png,"['num_7', 'num_4', 'num_1', 'num_0']",['num_4'],num_4,[2],'num_4',images/min2.png,"[(0.45, 0.79)]",,,,,0,9,9,9,11,0,44,1,,,,,,,,,,,,,['num_4'],,0.0242863590829,1,['num_4'],0,[0.33674297435209155],1,,,,,,,,2018_Jun_10_1759,60.0220142301,sequenceLearningTask,001,132,
min1.png,min2.png,min3.png,min4.png,images/allBlank.png,"['num_7', 'num_4', 'num_1', 'num_0']",['num_7'],num_7,[1],'num_7',images/min1.png,"[(0.45, 0.79)]",,,,,0,9,9,9,11,1,45,0,,,,,,,,,,,,,['num_7'],,0.0529739486519,1,['num_7'],0,[0.30684307706542313],1,,,,,,,,2018_Jun_10_1759,60.0220142301,sequenceLearningTask,001,132,
min1.png,min2.png,min3.png,min4.png,images/allBlank.png,"['num_7', 'num_4', 'num_1', 'num_0']",['num_1'],num_1,[3],'num_1',images/min3.png,"[(0.45, 0.79)]",,,,,0,9,9,9,11,2,46,2,,,,,,,,,,,,,['num_1'],,0.0577128205914,0,"['num_0', 'num_1']",0,"[0.36723733344115317, 0.5001407179515809]",0,,,,,,,,2018_Jun_10_1759,60.0220142301,sequenceLearningTask,001,132,
min1.png,min2.png,min3.png,min4.png,images/allBlank.png,"['num_7', 'num_4', 'num_1', 'num_0']",['num_0'],num_0,[4],'num_0',images/min4.png,"[(0.45, 0.79)]",,,,,0,9,9,9,11,3,47,3,,,,,,,,,,,,,['num_0'],,0.0385234870482,0,"['num_4', 'num_0']",0,"[0.2548291280400008, 0.4545620512217283]",0,,,,,,,,2018_Jun_10_1759,60.0220142301,sequenceLearningTask,001,132,
min1.png,min2.png,min3.png,min4.png,images/allBlank.png,"['num_7', 'num_4', 'num_1', 'num_0']",['num_0'],num_0,[4],'num_0',images/min4.png,"[(0.45, 0.79)]",,,,,0,9,9,9,12,0,48,3,,,,,,,,,,,,,['num_0'],,0.0604438974988,1,['num_0'],0,[0.34804348717443645],1,,,,,,,,2018_Jun_10_1759,60.0220142301,sequenceLearningTask,001,132,
min1.png,min2.png,min3.png,min4.png,images/allBlank.png,"['num_7', 'num_4', 'num_1', 'num_0']",['num_1'],num_1,[3],'num_1',images/min3.png,"[(0.45, 0.79)]",,,,,0,9,9,9,12,1,49,2,,,,,,,,,,,,,['num_1'],,0.0540988717694,0,"['num_4', 'num_1']",0,"[0.3203577434178442, 0.7871310769114643]",0,,,,,,,,2018_Jun_10_1759,60.0220142301,sequenceLearningTask,001,132,
min1.png,min2.png,min3.png,min4.png,images/allBlank.png,"['num_7', 'num_4', 'num_1', 'num_0']",['num_7'],num_7,[1],'num_7',images/min1.png,"[(0.45, 0.79)]",,,,,0,9,9,9,12,2,50,0,,,,,,,,,,,,,['num_7'],,0.0625813333318,0,"['num_4', 'num_7']",0,"[0.2955815384630114, 0.6125558973290026]",0,,,,,,,,2018_Jun_10_1759,60.0220142301,sequenceLearningTask,001,132,
min1.png,min2.png,min3.png,min4.png,images/allBlank.png,"['num_7', 'num_4', 'num_1', 'num_0']",['num_4'],num_4,[2],'num_4',images/min2.png,"[(0.45, 0.79)]",,,,,0,9,9,9,12,3,51,1,,,,,,,,,,,,,['num_4'],,0.0653366153128,1,['num_4'],0,[0.4082490256987512],1,,,,,,,,2018_Jun_10_1759,60.0220142301,sequenceLearningTask,001,132,
min1.png,min2.png,min3.png,min4.png,images/allBlank.png,"['num_7', 'num_4', 'num_1', 'num_0']",['num_1'],num_1,[3],'num_1',images/min3.png,"[(0.45, 0.79)]",,,,,0,9,9,9,13,0,52,2,,,,,,,,,,,,,['num_1'],,0.0483511793427,1,['num_1'],0,[0.24417641013860703],1,,,,,,,,2018_Jun_10_1759,60.0220142301,sequenceLearningTask,001,132,
min1.png,min2.png,min3.png,min4.png,images/allBlank.png,"['num_7', 'num_4', 'num_1', 'num_0']",['num_0'],num_0,[4],'num_0',images/min4.png,"[(0.45, 0.79)]",,,,,0,9,9,9,13,1,53,3,,,,,,,,,,,,,['num_0'],,0.053631589748,1,['num_0'],0,[0.32124882051721215],1,,,,,,,,2018_Jun_10_1759,60.0220142301,sequenceLearningTask,001,132,
min1.png,min2.png,min3.png,min4.png,images/allBlank.png,"['num_7', 'num_4', 'num_1', 'num_0']",['num_4'],num_4,[2],'num_4',images/min2.png,"[(0.45, 0.79)]",,,,,0,9,9,9,13,2,54,1,,,,,,,,,,,,,['num_4'],,0.0496955895796,0,"['num_7', 'num_4']",0,"[0.37606646167114377, 0.4091343590989709]",0,,,,,,,,2018_Jun_10_1759,60.0220142301,sequenceLearningTask,001,132,
min1.png,min2.png,min3.png,min4.png,images/allBlank.png,"['num_7', 'num_4', 'num_1', 'num_0']",['num_7'],num_7,[1],'num_7',images/min1.png,"[(0.45, 0.79)]",,,,,0,9,9,9,13,3,55,0,,,,,,,,,,,,,['num_7'],,0.0553936411161,1,['num_7'],0,[0.4543712818995118],1,,,,,,,,2018_Jun_10_1759,60.0220142301,sequenceLearningTask,001,132,
min1.png,min2.png,min3.png,min4.png,images/allBlank.png,"['num_7', 'num_4', 'num_1', 'num_0']",['num_0'],num_0,[4],'num_0',images/min4.png,"[(0.45, 0.79)]",,,,,0,9,9,9,14,0,56,3,,,,,,,,,,,,,['num_0'],,0.0592295383103,0,"['num_1', 'num_0']",0,"[0.33170010265894234, 0.38218174362555146]",0,,,,,,,,2018_Jun_10_1759,60.0220142301,sequenceLearningTask,001,132,
min1.png,min2.png,min3.png,min4.png,images/allBlank.png,"['num_7', 'num_4', 'num_1', 'num_0']",['num_4'],num_4,[2],'num_4',images/min2.png,"[(0.45, 0.79)]",,,,,0,9,9,9,14,1,57,1,,,,,,,,,,,,,['num_4'],,0.0538075896911,0,"['num_7', 'num_4']",0,"[0.3061005128547549, 0.6395770257804543]",0,,,,,,,,2018_Jun_10_1759,60.0220142301,sequenceLearningTask,001,132,
min1.png,min2.png,min3.png,min4.png,images/allBlank.png,"['num_7', 'num_4', 'num_1', 'num_0']",['num_7'],num_7,[1],'num_7',images/min1.png,"[(0.45, 0.79)]",,,,,0,9,9,9,14,2,58,0,,,,,,,,,,,,,['num_7'],,0.0518223589752,1,['num_7'],0,[0.4228077947627753],1,,,,,,,,2018_Jun_10_1759,60.0220142301,sequenceLearningTask,001,132,
min1.png,min2.png,min3.png,min4.png,images/allBlank.png,"['num_7', 'num_4', 'num_1', 'num_0']",['num_1'],num_1,[3],'num_1',images/min3.png,"[(0.45, 0.79)]",,,,,0,9,9,9,14,3,59,2,,,,,,,,,,,,,['num_1'],,0.0595396922436,1,['num_1'],0,[0.34761558985337615],1,,,,,,,,2018_Jun_10_1759,60.0220142301,sequenceLearningTask,001,132,
min1.png,min2.png,min3.png,min4.png,images/allBlank.png,"['num_7', 'num_4', 'num_1', 'num_0']",['num_0'],num_0,[4],'num_0',images/min4.png,"[(0.45, 0.79)]",,,,,0,9,9,9,15,0,60,3,,,,,,,,,,,,,['num_0'],,0.0483355897013,1,['num_0'],0,[0.31072041019797325],1,,,,,,,,2018_Jun_10_1759,60.0220142301,sequenceLearningTask,001,132,
min1.png,min2.png,min3.png,min4.png,images/allBlank.png,"['num_7', 'num_4', 'num_1', 'num_0']",['num_1'],num_1,[3],'num_1',images/min3.png,"[(0.45, 0.79)]",,,,,0,9,9,9,15,1,61,2,,,,,,,,,,,,,['num_1'],,0.058148102602,0,"['num_4', 'num_1']",0,"[0.3669956922531128, 0.7009538460988551]",0,,,,,,,,2018_Jun_10_1759,60.0220142301,sequenceLearningTask,001,132,
min1.png,min2.png,min3.png,min4.png,images/allBlank.png,"['num_7', 'num_4', 'num_1', 'num_0']",['num_7'],num_7,[1],'num_7',images/min1.png,"[(0.45, 0.79)]",,,,,0,9,9,9,15,2,62,0,,,,,,,,,,,,,['num_7'],,0.0571840000339,0,"['num_4', 'num_7']",0,"[0.2517883079126477, 0.5858190769795328]",0,,,,,,,,2018_Jun_10_1759,60.0220142301,sequenceLearningTask,001,132,
min1.png,min2.png,min3.png,min4.png,images/allBlank.png,"['num_7', 'num_4', 'num_1', 'num_0']",['num_4'],num_4,[2],'num_4',images/min2.png,"[(0.45, 0.79)]",,,,,0,9,9,9,15,3,63,1,,,,,,,,,,,,,['num_4'],,0.0529587690253,1,['num_4'],0,[0.60508923092857],1,,,,,,,,2018_Jun_10_1759,60.0220142301,sequenceLearningTask,001,132,
min1.png,min2.png,min3.png,min4.png,images/allBlank.png,"['num_7', 'num_4', 'num_1', 'num_0']",['num_7'],num_7,[1],'num_7',images/min1.png,"[(0.45, 0.79)]",,,,,0,9,9,9,16,0,64,0,,,,,,,,,,,,,['num_7'],,0.0548640000634,1,['num_7'],0,[0.7053805128671229],1,,,,,,,,2018_Jun_10_1759,60.0220142301,sequenceLearningTask,001,132,
min1.png,min2.png,min3.png,min4.png,images/allBlank.png,"['num_7', 'num_4', 'num_1', 'num_0']",['num_0'],num_0,[4],'num_0',images/min4.png,"[(0.45, 0.79)]",,,,,0,9,9,9,16,1,65,3,,,,,,,,,,,,,['num_0'],,0.0525513845496,1,['num_0'],0,[0.4904176408890635],1,,,,,,,,2018_Jun_10_1759,60.0220142301,sequenceLearningTask,001,132,
min1.png,min2.png,min3.png,min4.png,images/allBlank.png,"['num_7', 'num_4', 'num_1', 'num_0']",['num_1'],num_1,[3],'num_1',images/min3.png,"[(0.45, 0.79)]",,,,,0,9,9,9,16,2,66,2,,,,,,,,,,,,,['num_1'],,0.0520192820113,1,['num_1'],0,[0.44034420512616634],1,,,,,,,,2018_Jun_10_1759,60.0220142301,sequenceLearningTask,001,132,
min1.png,min2.png,min3.png,min4.png,images/allBlank.png,"['num_7', 'num_4', 'num_1', 'num_0']",['num_4'],num_4,[2],'num_4',images/min2.png,"[(0.45, 0.79)]",,,,,0,9,9,9,16,3,67,1,,,,,,,,,,,,,['num_4'],,0.0499716922641,1,['num_4'],0,[0.35856246156618],1,,,,,,,,2018_Jun_10_1759,60.0220142301,sequenceLearningTask,001,132,
min1.png,min2.png,min3.png,min4.png,images/allBlank.png,"['num_7', 'num_4', 'num_1', 'num_0']",['num_4'],num_4,[2],'num_4',images/min2.png,"[(0.45, 0.79)]",,,,,0,9,9,9,17,0,68,1,,,,,,,,,,,,,['num_4'],,0.0525128205772,0,"['num_7', 'num_4']",0,"[0.4405362051911652, 0.6403823590371758]",0,,,,,,,,2018_Jun_10_1759,60.0220142301,sequenceLearningTask,001,132,
min1.png,min2.png,min3.png,min4.png,images/allBlank.png,"['num_7', 'num_4', 'num_1', 'num_0']",['num_0'],num_0,[4],'num_0',images/min4.png,"[(0.45, 0.79)]",,,,,0,9,9,9,17,1,69,3,,,,,,,,,,,,,['num_0'],,0.0521362051368,0,"['num_4', 'num_0']",0,"[0.22444512811489403, 0.35753846145235]",0,,,,,,,,2018_Jun_10_1759,60.0220142301,sequenceLearningTask,001,132,
min1.png,min2.png,min3.png,min4.png,images/allBlank.png,"['num_7', 'num_4', 'num_1', 'num_0']",['num_7'],num_7,[1],'num_7',images/min1.png,"[(0.45, 0.79)]",,,,,0,9,9,9,17,2,70,0,,,,,,,,,,,,,['num_7'],,0.0491643077694,0,"['num_4', 'num_7']",0,"[0.3267466665711254, 0.4273587691131979]",0,,,,,,,,2018_Jun_10_1759,60.0220142301,sequenceLearningTask,001,132,
min1.png,min2.png,min3.png,min4.png,images/allBlank.png,"['num_7', 'num_4', 'num_1', 'num_0']",['num_1'],num_1,[3],'num_1',images/min3.png,"[(0.45, 0.79)]",,,,,0,9,9,9,17,3,71,2,,,,,,,,,,,,,['num_1'],,0.0498642050661,1,['num_1'],0,[0.44268266670405865],1,,,,,,,,2018_Jun_10_1759,60.0220142301,sequenceLearningTask,001,132,
min1.png,min2.png,min3.png,min4.png,images/allBlank.png,"['num_7', 'num_4', 'num_1', 'num_0']",['num_1'],num_1,[3],'num_1',images/min3.png,"[(0.45, 0.79)]",,,,,0,9,9,9,18,0,72,2,,,,,,,,,,,,,['num_1'],,0.0631790768821,0,"['num_4', 'num_1']",0,"[0.37643897417001426, 0.7606141536962241]",0,,,,,,,,2018_Jun_10_1759,60.0220142301,sequenceLearningTask,001,132,
min1.png,min2.png,min3.png,min4.png,images/allBlank.png,"['num_7', 'num_4', 'num_1', 'num_0']",['num_7'],num_7,[1],'num_7',images/min1.png,"[(0.45, 0.79)]",,,,,0,9,9,9,18,1,73,0,,,,,,,,,,,,,['num_7'],,0.0523803078104,0,"['num_7', 'num_4', 'num_7']",0,"[0.4243093333207071, 0.940041025634855]",0,,,,,,,,2018_Jun_10_1759,60.0220142301,sequenceLearningTask,001,132,
min1.png,min2.png,min3.png,min4.png,images/allBlank.png,"['num_7', 'num_4', 'num_1', 'num_0']",['num_0'],num_0,[4],'num_0',images/min4.png,"[(0.45, 0.79)]",,,,,0,9,9,9,18,2,74,3,,,,,,,,,,,,,['num_0'],,0.0528242050204,1,['num_0'],0,[0.3714153845794499],1,,,,,,,,2018_Jun_10_1759,60.0220142301,sequenceLearningTask,001,132,
min1.png,min2.png,min3.png,min4.png,images/allBlank.png,"['num_7', 'num_4', 'num_1', 'num_0']",['num_4'],num_4,[2],'num_4',images/min2.png,"[(0.45, 0.79)]",,,,,0,9,9,9,18,3,75,1,,,,,,,,,,,,,['num_4'],,0.0557308716234,0,"['num_7', 'num_4']",0,"[0.3361316923983395, 0.4516254358459264]",0,,,,,,,,2018_Jun_10_1759,60.0220142301,sequenceLearningTask,001,132,
min1.png,min2.png,min3.png,min4.png,images/allBlank.png,"['num_7', 'num_4', 'num_1', 'num_0']",['num_0'],num_0,[4],'num_0',images/min4.png,"[(0.45, 0.79)]",,,,,0,9,9,9,19,0,76,3,,,,,,,,,,,,,['num_0'],,0.0527893335093,1,['num_0'],0,[0.3550568204373121],1,,,,,,,,2018_Jun_10_1759,60.0220142301,sequenceLearningTask,001,132,
min1.png,min2.png,min3.png,min4.png,images/allBlank.png,"['num_7', 'num_4', 'num_1', 'num_0']",['num_4'],num_4,[2],'num_4',images/min2.png,"[(0.45, 0.79)]",,,,,0,9,9,9,19,1,77,1,,,,,,,,,,,,,['num_4'],,0.0568422563374,0,"['num_7', 'num_4']",0,"[0.30169764114543796, 0.4349005129188299]",0,,,,,,,,2018_Jun_10_1759,60.0220142301,sequenceLearningTask,001,132,
min1.png,min2.png,min3.png,min4.png,images/allBlank.png,"['num_7', 'num_4', 'num_1', 'num_0']",['num_1'],num_1,[3],'num_1',images/min3.png,"[(0.45, 0.79)]",,,,,0,9,9,9,19,2,78,2,,,,,,,,,,,,,['num_1'],,0.0577435898595,1,['num_1'],0,[0.31643651286140084],1,,,,,,,,2018_Jun_10_1759,60.0220142301,sequenceLearningTask,001,132,
min1.png,min2.png,min3.png,min4.png,images/allBlank.png,"['num_7', 'num_4', 'num_1', 'num_0']",['num_7'],num_7,[1],'num_7',images/min1.png,"[(0.45, 0.79)]",,,,,0,9,9,9,19,3,79,0,,,,,,,,,,,,,['num_7'],,0.0496984615456,0,"['num_0', 'num_7']",0,"[0.0002338462509214878, 0.32572964089922607]",0,,,,,,,,2018_Jun_10_1759,60.0220142301,sequenceLearningTask,001,132,
min1.png,min2.png,min3.png,min4.png,allBlank.png,,['num_7'],,,,,,,,,,0,0,0,0,,,,,,,,,,,,,,,,,['num_7'],1,0.0210769232363,0,"['num_4', 'num_7']",0,"[0.00021497439593076706, 0.38168902578763664]",,,,,,,,,2018_Jun_10_1759,60.0220142301,sequenceLearningTask,001,132,
min1.png,min2.png,min3.png,min4.png,allBlank.png,,['num_1'],,,,,,,,,,0,0,0,0,,,,,,,,,,,,,,,,,['num_1'],1,0.0592266665772,1,['num_1'],0,[0.26921928208321333],,,,,,,,,2018_Jun_10_1759,60.0220142301,sequenceLearningTask,001,132,
min1.png,min2.png,min3.png,min4.png,allBlank.png,,['num_4'],,,,,,,,,,0,0,0,0,,,,,,,,,,,,,,,,,['num_4'],1,0.0588365129661,1,['num_4'],0,[0.3693751795217395],,,,,,,,,2018_Jun_10_1759,60.0220142301,sequenceLearningTask,001,132,
min1.png,min2.png,min3.png,min4.png,allBlank.png,,['num_0'],,,,,,,,,,0,0,0,0,,,,,,,,,,,,,,,,,['num_0'],1,0.058297435753,1,['num_0'],0,[0.21921517956070602],,,,,,,,,2018_Jun_10_1759,60.0220142301,sequenceLearningTask,001,132,
min1.png,min2.png,min3.png,min4.png,allBlank.png,,['num_0'],,,,,,,,,,0,0,0,0,,,,,,,,,,,,,,,,,['num_0'],1,0.0567089230753,0,"['num_4', 'num_1', 'num_0', 'num_4', 'num_0']",0,"[0.22163815377280116, 0.3878006152808666, 0.9044898462016135, 1.0543253333307803]",,,,,,,,,2018_Jun_10_1759,60.0220142301,sequenceLearningTask,001,132,
min1.png,min2.png,min3.png,min4.png,allBlank.png,,['num_4'],,,,,,,,,,0,0,0,0,,,,,,,,,,,,,,,,,['num_4'],1,0.0575425641146,1,['num_4'],0,[0.3866203078068793],,,,,,,,,2018_Jun_10_1759,60.0220142301,sequenceLearningTask,001,132,
min1.png,min2.png,min3.png,min4.png,allBlank.png,,['num_1'],,,,,,,,,,0,0,0,0,,,,,,,,,,,,,,,,,['num_1'],1,0.0527282052208,1,['num_1'],0,[0.29081887169741094],,,,,,,,,2018_Jun_10_1759,60.0220142301,sequenceLearningTask,001,132,
min1.png,min2.png,min3.png,min4.png,allBlank.png,,['num_0'],,,,,,,,,,0,0,0,0,,,,,,,,,,,,,,,,,['num_0'],1,0.0596139486879,1,['num_0'],0,[0.3337378459982574],,,,,,,,,2018_Jun_10_1759,60.0220142301,sequenceLearningTask,001,132,
min1.png,min2.png,min3.png,min4.png,allBlank.png,,['num_7'],,,,,,,,,,0,1,1,1,,,,,,,,,,,,,,,,,['num_7'],2,0.0565825642552,0,"['num_0', 'num_4', 'num_7']",0,"[0.3369423591066152, 0.35314379492774606, 0.503376820590347]",,,,,,,,,2018_Jun_10_1759,60.0220142301,sequenceLearningTask,001,132,
min1.png,min2.png,min3.png,min4.png,allBlank.png,,['num_1'],,,,,,,,,,0,1,1,1,,,,,,,,,,,,,,,,,['num_1'],2,0.0535487178713,0,"['num_4', 'num_1']",0,"[0.37440041033551097, 0.6248557949438691]",,,,,,,,,2018_Jun_10_1759,60.0220142301,sequenceLearningTask,001,132,
min1.png,min2.png,min3.png,min4.png,allBlank.png,,['num_4'],,,,,,,,,,0,1,1,1,,,,,,,,,,,,,,,,,['num_4'],2,0.0599040000234,1,['num_4'],0,[0.4007294357288629],,,,,,,,,2018_Jun_10_1759,60.0220142301,sequenceLearningTask,001,132,
min1.png,min2.png,min3.png,min4.png,allBlank.png,,['num_0'],,,,,,,,,,0,1,1,1,,,,,,,,,,,,,,,,,['num_0'],2,0.0555261536501,1,['num_0'],0,[0.3052615385968238],,,,,,,,,2018_Jun_10_1759,60.0220142301,sequenceLearningTask,001,132,
min1.png,min2.png,min3.png,min4.png,allBlank.png,,['num_0'],,,,,,,,,,0,1,1,1,,,,,,,,,,,,,,,,,['num_0'],2,0.0560332306195,1,['num_0'],0,[0.3721784616354853],,,,,,,,,2018_Jun_10_1759,60.0220142301,sequenceLearningTask,001,132,
min1.png,min2.png,min3.png,min4.png,allBlank.png,,['num_4'],,,,,,,,,,0,1,1,1,,,,,,,,,,,,,,,,,['num_4'],2,0.0546781537123,1,['num_4'],0,[0.29050502576865256],,,,,,,,,2018_Jun_10_1759,60.0220142301,sequenceLearningTask,001,132,
min1.png,min2.png,min3.png,min4.png,allBlank.png,,['num_1'],,,,,,,,,,0,1,1,1,,,,,,,,,,,,,,,,,['num_1'],2,0.0517033846118,1,['num_1'],0,[0.3101275898516178],,,,,,,,,2018_Jun_10_1759,60.0220142301,sequenceLearningTask,001,132,
min1.png,min2.png,min3.png,min4.png,allBlank.png,,['num_0'],,,,,,,,,,0,1,1,1,,,,,,,,,,,,,,,,,['num_0'],2,0.0530342564452,1,['num_0'],0,[0.3252422562800348],,,,,,,,,2018_Jun_10_1759,60.0220142301,sequenceLearningTask,001,132,
min1.png,min2.png,min3.png,min4.png,allBlank.png,,['num_7'],,,,,,,,,,0,2,2,2,,,,,,,,,,,,,,,,,['num_7'],3,0.0593509743921,0,"['num_4', 'num_7']",0,"[0.45013415394350886, 0.9334674871060997]",,,,,,,,,2018_Jun_10_1759,60.0220142301,sequenceLearningTask,001,132,
min1.png,min2.png,min3.png,min4.png,allBlank.png,,['num_1'],,,,,,,,,,0,2,2,2,,,,,,,,,,,,,,,,,['num_1'],3,0.0480488205794,1,['num_1'],0,[0.5124012308660895],,,,,,,,,2018_Jun_10_1759,60.0220142301,sequenceLearningTask,001,132,
min1.png,min2.png,min3.png,min4.png,allBlank.png,,['num_4'],,,,,,,,,,0,2,2,2,,,,,,,,,,,,,,,,,['num_4'],3,0.0563532307278,0,"['num_7', 'num_4', 'num_4']",0,"[0.40420635882765055, 0.987812512787059]",,,,,,,,,2018_Jun_10_1759,60.0220142301,sequenceLearningTask,001,132,
min1.png,min2.png,min3.png,min4.png,allBlank.png,,['num_0'],,,,,,,,,,0,2,2,2,,,,,,,,,,,,,,,,,['num_0'],3,0.0584283077624,0,"['num_1', 'num_0']",0,"[0.3345009230542928, 0.3689444102346897]",,,,,,,,,2018_Jun_10_1759,60.0220142301,sequenceLearningTask,001,132,
min1.png,min2.png,min3.png,min4.png,allBlank.png,,['num_0'],,,,,,,,,,0,2,2,2,,,,,,,,,,,,,,,,,['num_0'],3,0.0539696409833,1,['num_0'],0,[0.3729046154767275],,,,,,,,,2018_Jun_10_1759,60.0220142301,sequenceLearningTask,001,132,
min1.png,min2.png,min3.png,min4.png,allBlank.png,,['num_4'],,,,,,,,,,0,2,2,2,,,,,,,,,,,,,,,,,['num_4'],3,0.0550412307493,1,['num_4'],0,[0.28954174369573593],,,,,,,,,2018_Jun_10_1759,60.0220142301,sequenceLearningTask,001,132,
min1.png,min2.png,min3.png,min4.png,allBlank.png,,['num_1'],,,,,,,,,,0,2,2,2,,,,,,,,,,,,,,,,,['num_1'],3,0.0506982565857,1,['num_1'],0,[0.2776061538606882],,,,,,,,,2018_Jun_10_1759,60.0220142301,sequenceLearningTask,001,132,
min1.png,min2.png,min3.png,min4.png,allBlank.png,,['num_0'],,,,,,,,,,0,2,2,2,,,,,,,,,,,,,,,,,['num_0'],3,0.0519979486708,0,"['num_7', 'num_0']",0,"[0.2095766153652221, 0.5918642051983625]",,,,,,,,,2018_Jun_10_1759,60.0220142301,sequenceLearningTask,001,132,
min1.png,min2.png,min3.png,min4.png,allBlank.png,,['num_7'],,,,,,,,,,0,3,3,3,,,,,,,,,,,,,,,,,['num_7'],4,0.0488036922179,1,['num_7'],0,[0.37803569226525724],,,,,,,,,2018_Jun_10_1759,60.0220142301,sequenceLearningTask,001,132,
min1.png,min2.png,min3.png,min4.png,allBlank.png,,['num_1'],,,,,,,,,,0,3,3,3,,,,,,,,,,,,,,,,,['num_1'],4,0.0575450256001,1,['num_1'],0,[0.42128943582065403],,,,,,,,,2018_Jun_10_1759,60.0220142301,sequenceLearningTask,001,132,
min1.png,min2.png,min3.png,min4.png,allBlank.png,,['num_4'],,,,,,,,,,0,3,3,3,,,,,,,,,,,,,,,,,['num_4'],4,0.0509271796327,0,"['num_4', 'num_4']",0,"[0.00030605122447013855, 0.2935298460070044]",,,,,,,,,2018_Jun_10_1759,60.0220142301,sequenceLearningTask,001,132,
min1.png,min2.png,min3.png,min4.png,allBlank.png,,['num_0'],,,,,,,,,,0,3,3,3,,,,,,,,,,,,,,,,,['num_0'],4,0.0578601027373,1,['num_0'],0,[0.32098297448828816],,,,,,,,,2018_Jun_10_1759,60.0220142301,sequenceLearningTask,001,132,
min1.png,min2.png,min3.png,min4.png,allBlank.png,,['num_0'],,,,,,,,,,0,3,3,3,,,,,,,,,,,,,,,,,['num_0'],4,0.0564717948437,1,['num_0'],0,[0.3710728206206113],,,,,,,,,2018_Jun_10_1759,60.0220142301,sequenceLearningTask,001,132,
min1.png,min2.png,min3.png,min4.png,allBlank.png,,['num_4'],,,,,,,,,,0,3,3,3,,,,,,,,,,,,,,,,,['num_4'],4,0.0538289230317,0,"['num_0', 'num_4']",0,"[0.3226732308976352, 0.5061813334468752]",,,,,,,,,2018_Jun_10_1759,60.0220142301,sequenceLearningTask,001,132,
min1.png,min2.png,min3.png,min4.png,allBlank.png,,['num_1'],,,,,,,,,,0,3,3,3,,,,,,,,,,,,,,,,,['num_1'],4,0.0586211280897,1,['num_1'],0,[0.3187368204817176],,,,,,,,,2018_Jun_10_1759,60.0220142301,sequenceLearningTask,001,132,
min1.png,min2.png,min3.png,min4.png,allBlank.png,,['num_0'],,,,,,,,,,0,3,3,3,,,,,,,,,,,,,,,,,['num_0'],4,0.0532939485274,1,['num_0'],0,[0.37549989740364254],,,,,,,,,2018_Jun_10_1759,60.0220142301,sequenceLearningTask,001,132,
min1.png,min2.png,min3.png,min4.png,allBlank.png,,['num_7'],,,,,,,,,,0,4,4,4,,,,,,,,,,,,,,,,,['num_7'],5,0.0503360000439,0,"['num_4', 'num_7']",0,"[0.29257887159474194, 0.6258219485171139]",,,,,,,,,2018_Jun_10_1759,60.0220142301,sequenceLearningTask,001,132,
min1.png,min2.png,min3.png,min4.png,allBlank.png,,['num_1'],,,,,,,,,,0,4,4,4,,,,,,,,,,,,,,,,,['num_1'],5,0.0567396923434,1,['num_1'],0,[0.3869567180518061],,,,,,,,,2018_Jun_10_1759,60.0220142301,sequenceLearningTask,001,132,
min1.png,min2.png,min3.png,min4.png,allBlank.png,,['num_4'],,,,,,,,,,0,4,4,4,,,,,,,,,,,,,,,,,['num_4'],5,0.0518432820681,0,"['num_7', 'num_4']",0,"[0.3421267692465335, 0.6419643077533692]",,,,,,,,,2018_Jun_10_1759,60.0220142301,sequenceLearningTask,001,132,
min1.png,min2.png,min3.png,min4.png,allBlank.png,,['num_0'],,,,,,,,,,0,4,4,4,,,,,,,,,,,,,,,,,['num_0'],5,0.0557743590325,1,['num_0'],0,[0.3551122050266713],,,,,,,,,2018_Jun_10_1759,60.0220142301,sequenceLearningTask,001,132,
min1.png,min2.png,min3.png,min4.png,allBlank.png,,['num_0'],,,,,,,,,,0,4,4,4,,,,,,,,,,,,,,,,,['num_0'],5,0.0568918974604,1,['num_0'],0,[0.43694153847172856],,,,,,,,,2018_Jun_10_1759,60.0220142301,sequenceLearningTask,001,132,
min1.png,min2.png,min3.png,min4.png,allBlank.png,,['num_4'],,,,,,,,,,0,4,4,4,,,,,,,,,,,,,,,,,['num_4'],5,0.0511126152705,1,['num_4'],0,[0.5430088203866035],,,,,,,,,2018_Jun_10_1759,60.0220142301,sequenceLearningTask,001,132,
min1.png,min2.png,min3.png,min4.png,allBlank.png,,['num_1'],,,,,,,,,,0,4,4,4,,,,,,,,,,,,,,,,,['num_1'],5,0.0545583588537,1,['num_1'],0,[0.27399302553385496],,,,,,,,,2018_Jun_10_1759,60.0220142301,sequenceLearningTask,001,132,
min1.png,min2.png,min3.png,min4.png,allBlank.png,,['num_0'],,,,,,,,,,0,4,4,4,,,,,,,,,,,,,,,,,['num_0'],5,0.0570921027102,0,"['num_7', 'num_0']",0,"[0.20395076903514564, 0.5047540511004627]",,,,,,,,,2018_Jun_10_1759,60.0220142301,sequenceLearningTask,001,132,
min1.png,min2.png,min3.png,min4.png,allBlank.png,,['num_7'],,,,,,,,,,0,5,5,5,,,,,,,,,,,,,,,,,['num_7'],6,0.0534285127651,1,['num_7'],0,[0.3887040000408888],,,,,,,,,2018_Jun_10_1759,60.0220142301,sequenceLearningTask,001,132,
min1.png,min2.png,min3.png,min4.png,allBlank.png,,['num_1'],,,,,,,,,,0,5,5,5,,,,,,,,,,,,,,,,,['num_1'],6,0.0557013333309,1,['num_1'],0,[0.3723540510982275],,,,,,,,,2018_Jun_10_1759,60.0220142301,sequenceLearningTask,001,132,
min1.png,min2.png,min3.png,min4.png,allBlank.png,,['num_4'],,,,,,,,,,0,5,5,5,,,,,,,,,,,,,,,,,['num_4'],6,0.0531027691904,1,['num_4'],0,[0.3253718975465745],,,,,,,,,2018_Jun_10_1759,60.0220142301,sequenceLearningTask,001,132,
min1.png,min2.png,min3.png,min4.png,allBlank.png,,['num_0'],,,,,,,,,,0,5,5,5,,,,,,,,,,,,,,,,,['num_0'],6,0.0492545641027,1,['num_0'],0,[0.2630157950334251],,,,,,,,,2018_Jun_10_1759,60.0220142301,sequenceLearningTask,001,132,
min1.png,min2.png,min3.png,min4.png,allBlank.png,,['num_0'],,,,,,,,,,0,5,5,5,,,,,,,,,,,,,,,,,['num_0'],6,0.0579462563619,0,"['num_7', 'num_1', 'num_0']",0,"[0.25347815384157, 0.4029288205783814, 0.5026112820487469]",,,,,,,,,2018_Jun_10_1759,60.0220142301,sequenceLearningTask,001,132,
min1.png,min2.png,min3.png,min4.png,allBlank.png,,['num_4'],,,,,,,,,,0,5,5,5,,,,,,,,,,,,,,,,,['num_4'],6,0.0512738463003,1,['num_4'],0,[0.2934506665915251],,,,,,,,,2018_Jun_10_1759,60.0220142301,sequenceLearningTask,001,132,
min1.png,min2.png,min3.png,min4.png,allBlank.png,,['num_1'],,,,,,,,,,0,5,5,5,,,,,,,,,,,,,,,,,['num_1'],6,0.0580619487446,1,['num_1'],0,[0.2865124102681875],,,,,,,,,2018_Jun_10_1759,60.0220142301,sequenceLearningTask,001,132,
min1.png,min2.png,min3.png,min4.png,allBlank.png,,['num_0'],,,,,,,,,,0,5,5,5,,,,,,,,,,,,,,,,,['num_0'],6,0.0543027692474,1,['num_0'],0,[0.3574592820368707],,,,,,,,,2018_Jun_10_1759,60.0220142301,sequenceLearningTask,001,132,
min1.png,min2.png,min3.png,min4.png,allBlank.png,,['num_7'],,,,,,,,,,0,6,6,6,,,,,,,,,,,,,,,,,['num_7'],7,0.0589468716644,0,"['num_4', 'num_7']",0,"[0.35080492310225964, 0.6670728204771876]",,,,,,,,,2018_Jun_10_1759,60.0220142301,sequenceLearningTask,001,132,
min1.png,min2.png,min3.png,min4.png,allBlank.png,,['num_1'],,,,,,,,,,0,6,6,6,,,,,,,,,,,,,,,,,['num_1'],7,0.0600402050186,1,['num_1'],0,[0.450181333348155],,,,,,,,,2018_Jun_10_1759,60.0220142301,sequenceLearningTask,001,132,
min1.png,min2.png,min3.png,min4.png,allBlank.png,,['num_4'],,,,,,,,,,0,6,6,6,,,,,,,,,,,,,,,,,['num_4'],7,0.0615983591415,1,['num_4'],0,[0.4484672821126878],,,,,,,,,2018_Jun_10_1759,60.0220142301,sequenceLearningTask,001,132,
min1.png,min2.png,min3.png,min4.png,allBlank.png,,['num_0'],,,,,,,,,,0,6,6,6,,,,,,,,,,,,,,,,,['num_0'],7,0.0501579488628,1,['num_0'],0,[0.32691035885363817],,,,,,,,,2018_Jun_10_1759,60.0220142301,sequenceLearningTask,001,132,
min1.png,min2.png,min3.png,min4.png,allBlank.png,,['num_0'],,,,,,,,,,0,6,6,6,,,,,,,,,,,,,,,,,['num_0'],7,0.0546334357932,1,['num_0'],0,[0.40697805117815733],,,,,,,,,2018_Jun_10_1759,60.0220142301,sequenceLearningTask,001,132,
min1.png,min2.png,min3.png,min4.png,allBlank.png,,['num_4'],,,,,,,,,,0,6,6,6,,,,,,,,,,,,,,,,,['num_4'],7,0.0536131281406,1,['num_4'],0,[0.3084000002127141],,,,,,,,,2018_Jun_10_1759,60.0220142301,sequenceLearningTask,001,132,
min1.png,min2.png,min3.png,min4.png,allBlank.png,,['num_1'],,,,,,,,,,0,6,6,6,,,,,,,,,,,,,,,,,['num_1'],7,0.0545099487063,1,['num_1'],0,[0.28991917963139713],,,,,,,,,2018_Jun_10_1759,60.0220142301,sequenceLearningTask,001,132,
min1.png,min2.png,min3.png,min4.png,allBlank.png,,['num_0'],,,,,,,,,,0,6,6,6,,,,,,,,,,,,,,,,,['num_0'],7,0.0519963076804,0,"['num_7', 'num_0']",0,"[0.15850502578541636, 0.40864246152341366]",,,,,,,,,2018_Jun_10_1759,60.0220142301,sequenceLearningTask,001,132,
min1.png,min2.png,min3.png,min4.png,allBlank.png,,['num_7'],,,,,,,,,,0,7,7,7,,,,,,,,,,,,,,,,,['num_7'],8,0.0528020511847,1,['num_7'],0,[0.3563753846101463],,,,,,,,,2018_Jun_10_1759,60.0220142301,sequenceLearningTask,001,132,
min1.png,min2.png,min3.png,min4.png,allBlank.png,,['num_1'],,,,,,,,,,0,7,7,7,,,,,,,,,,,,,,,,,['num_1'],8,0.0549989743158,1,['num_1'],0,[0.32309374352917075],,,,,,,,,2018_Jun_10_1759,60.0220142301,sequenceLearningTask,001,132,
min1.png,min2.png,min3.png,min4.png,allBlank.png,,['num_4'],,,,,,,,,,0,7,7,7,,,,,,,,,,,,,,,,,['num_4'],8,0.0510793847498,0,"['num_7', 'num_4']",0,"[0.27629989734850824, 0.476672820514068]",,,,,,,,,2018_Jun_10_1759,60.0220142301,sequenceLearningTask,001,132,
min1.png,min2.png,min3.png,min4.png,allBlank.png,,['num_0'],,,,,,,,,,0,7,7,7,,,,,,,,,,,,,,,,,['num_0'],8,0.0536722051911,0,"['num_1', 'num_0']",0,"[0.34161887178197503, 0.6416910768020898]",,,,,,,,,2018_Jun_10_1759,60.0220142301,sequenceLearningTask,001,132,
min1.png,min2.png,min3.png,min4.png,allBlank.png,,['num_0'],,,,,,,,,,0,7,7,7,,,,,,,,,,,,,,,,,['num_0'],8,0.054603897268,1,['num_0'],0,[0.3728882051073015],,,,,,,,,2018_Jun_10_1759,60.0220142301,sequenceLearningTask,001,132,
min1.png,min2.png,min3.png,min4.png,allBlank.png,,['num_4'],,,,,,,,,,0,7,7,7,,,,,,,,,,,,,,,,,['num_4'],8,0.0548742564861,0,"['num_0', 'num_4']",0,"[0.3393645128235221, 0.45679302560165524]",,,,,,,,,2018_Jun_10_1759,60.0220142301,sequenceLearningTask,001,132,
min1.png,min2.png,min3.png,min4.png,allBlank.png,,['num_1'],,,,,,,,,,0,7,7,7,,,,,,,,,,,,,,,,,['num_1'],8,0.0568209229968,1,['num_1'],0,[0.3209054358303547],,,,,,,,,2018_Jun_10_1759,60.0220142301,sequenceLearningTask,001,132,
min1.png,min2.png,min3.png,min4.png,allBlank.png,,['num_0'],,,,,,,,,,0,7,7,7,,,,,,,,,,,,,,,,,['num_0'],8,0.0527532307897,1,['num_0'],0,[0.4912918973714113],,,,,,,,,2018_Jun_10_1759,60.0220142301,sequenceLearningTask,001,132,
min1.png,min2.png,min3.png,min4.png,allBlank.png,,['num_7'],,,,,,,,,,0,8,8,8,,,,,,,,,,,,,,,,,['num_7'],9,0.052254359005,1,['num_7'],0,[0.4237813332583755],,,,,,,,,2018_Jun_10_1759,60.0220142301,sequenceLearningTask,001,132,
min1.png,min2.png,min3.png,min4.png,allBlank.png,,['num_1'],,,,,,,,,,0,8,8,8,,,,,,,,,,,,,,,,,['num_1'],9,0.052313025808,0,"['num_0', 'num_1']",0,"[0.4597025641705841, 0.6438748717773706]",,,,,,,,,2018_Jun_10_1759,60.0220142301,sequenceLearningTask,001,132,
min1.png,min2.png,min3.png,min4.png,allBlank.png,,['num_4'],,,,,,,,,,0,8,8,8,,,,,,,,,,,,,,,,,['num_4'],9,0.0517862564884,0,"['num_7', 'num_4']",0,"[0.3096233846154064, 0.7090605127159506]",,,,,,,,,2018_Jun_10_1759,60.0220142301,sequenceLearningTask,001,132,
min1.png,min2.png,min3.png,min4.png,allBlank.png,,['num_0'],,,,,,,,,,0,8,8,8,,,,,,,,,,,,,,,,,['num_0'],9,0.0487487178762,1,['num_0'],0,[0.32850707694888115],,,,,,,,,2018_Jun_10_1759,60.0220142301,sequenceLearningTask,001,132,
min1.png,min2.png,min3.png,min4.png,allBlank.png,,['num_0'],,,,,,,,,,0,8,8,8,,,,,,,,,,,,,,,,,['num_0'],9,0.0565001023933,0,"['num_4', 'num_0']",0,"[0.33769271802157164, 0.4369837949052453]",,,,,,,,,2018_Jun_10_1759,60.0220142301,sequenceLearningTask,001,132,
min1.png,min2.png,min3.png,min4.png,allBlank.png,,['num_4'],,,,,,,,,,0,8,8,8,,,,,,,,,,,,,,,,,['num_4'],9,0.0517550769728,1,['num_4'],0,[0.30961435893550515],,,,,,,,,2018_Jun_10_1759,60.0220142301,sequenceLearningTask,001,132,
min1.png,min2.png,min3.png,min4.png,allBlank.png,,['num_1'],,,,,,,,,,0,8,8,8,,,,,,,,,,,,,,,,,['num_1'],9,0.0566256409511,0,"['num_7', 'num_1']",0,"[0.0003154873847961426, 0.28695712820626795]",,,,,,,,,2018_Jun_10_1759,60.0220142301,sequenceLearningTask,001,132,
min1.png,min2.png,min3.png,min4.png,allBlank.png,,['num_0'],,,,,,,,,,0,8,8,8,,,,,,,,,,,,,,,,,['num_0'],9,0.0542235895991,1,['num_0'],0,[0.23964841035194695],,,,,,,,,2018_Jun_10_1759,60.0220142301,sequenceLearningTask,001,132,
min1.png,min2.png,min3.png,min4.png,allBlank.png,,['num_7'],,,,,,,,,,0,9,9,9,,,,,,,,,,,,,,,,,['num_7'],10,0.0534445126541,0,"['num_4', 'num_7']",0,"[0.2736845128238201, 0.5068562051746994]",,,,,,,,,2018_Jun_10_1759,60.0220142301,sequenceLearningTask,001,132,
min1.png,min2.png,min3.png,min4.png,allBlank.png,,['num_1'],,,,,,,,,,0,9,9,9,,,,,,,,,,,,,,,,,['num_1'],10,0.066163282143,0,"['num_1', 'num_0', 'num_4', 'num_1']",0,"[0.49489148729480803, 0.7453165128827095, 1.5288775383960456]",,,,,,,,,2018_Jun_10_1759,60.0220142301,sequenceLearningTask,001,132,
min1.png,min2.png,min3.png,min4.png,allBlank.png,,['num_4'],,,,,,,,,,0,9,9,9,,,,,,,,,,,,,,,,,['num_4'],10,0.0560036923271,1,['num_4'],0,[0.4556598972994834],,,,,,,,,2018_Jun_10_1759,60.0220142301,sequenceLearningTask,001,132,
min1.png,min2.png,min3.png,min4.png,allBlank.png,,['num_0'],,,,,,,,,,0,9,9,9,,,,,,,,,,,,,,,,,['num_0'],10,0.0554330255836,1,['num_0'],0,[0.32372061535716057],,,,,,,,,2018_Jun_10_1759,60.0220142301,sequenceLearningTask,001,132,
min1.png,min2.png,min3.png,min4.png,allBlank.png,,['num_0'],,,,,,,,,,0,9,9,9,,,,,,,,,,,,,,,,,['num_0'],10,0.055624615401,1,['num_0'],0,[0.38965415372513235],,,,,,,,,2018_Jun_10_1759,60.0220142301,sequenceLearningTask,001,132,
min1.png,min2.png,min3.png,min4.png,allBlank.png,,['num_4'],,,,,,,,,,0,9,9,9,,,,,,,,,,,,,,,,,['num_4'],10,0.0568459487986,0,"['num_7', 'num_4']",0,"[0.33680738462135196, 1.0370457435492426]",,,,,,,,,2018_Jun_10_1759,60.0220142301,sequenceLearningTask,001,132,
min1.png,min2.png,min3.png,min4.png,allBlank.png,,['num_1'],,,,,,,,,,0,9,9,9,,,,,,,,,,,,,,,,,['num_1'],10,0.0741969230585,1,['num_1'],0,[0.40224943589419127],,,,,,,,,2018_Jun_10_1759,60.0220142301,sequenceLearningTask,001,132,
min1.png,min2.png,min3.png,min4.png,allBlank.png,,['num_0'],,,,,,,,,,0,9,9,9,,,,,,,,,,,,,,,,,['num_0'],10,0.0576069743838,1,['num_0'],0,[0.28707569232210517],,,,,,,,,2018_Jun_10_1759,60.0220142301,sequenceLearningTask,001,132,
min1.png,min2.png,min3.png,min4.png,allBlank.png,,,,,,,,,,,,0,9,9,9,,,,,0,-1,-1,0,,,,,,,,,,,,,,,,,,,,,,,,2018_Jun_10_1759,60.0220142301,sequenceLearningTask,001,132,
min1.png,min2.png,min3.png,min4.png,allBlank.png,,,,,,,,,,,,0,9,9,9,,,,,0,-1,-1,0,,,,,,,,,,,,,,,,,['3'],,,,,,,2018_Jun_10_1759,60.0220142301,sequenceLearningTask,001,132,
min1.png,min2.png,min3.png,min4.png,allBlank.png,,,,,,,,,,,,0,9,9,9,,,,,0,-1,-1,0,,,,,,,,,,,,,,,,,['1'],,,,,,,2018_Jun_10_1759,60.0220142301,sequenceLearningTask,001,132,
min1.png,min2.png,min3.png,min4.png,allBlank.png,,,,,,,,,,,,0,9,9,9,,,,,0,-1,-1,0,,,,,,,,,,,,,,,,,['1'],,,,,,,2018_Jun_10_1759,60.0220142301,sequenceLearningTask,001,132,
min1.png,min2.png,min3.png,min4.png,allBlank.png,,,,,,,,,,,,0,9,9,9,,,,,0,-1,-1,0,,,,,,,,,,,,,,,,,['2'],,,,,,,2018_Jun_10_1759,60.0220142301,sequenceLearningTask,001,132,
min1.png,min2.png,min3.png,min4.png,allBlank.png,,,,,,,,0,0,0,0,0,9,9,9,,,,,0,-1,-1,0,,,,,,,,,,,,,,,,,,return,7.827158564, ,[5.331430564168841],,,2018_Jun_10_1759,60.0220142301,sequenceLearningTask,001,132,
min1.png,min2.png,min3.png,min4.png,allBlank.png,,['3'],,,,,,,,,,0,9,9,9,,,,,0,-1,-1,0,0,0,0,0,,,,,['3'],1,,1,,,,,,,,,,['3'],6.30806523073,2018_Jun_10_1759,60.0220142301,sequenceLearningTask,001,132,
min1.png,min2.png,min3.png,min4.png,allBlank.png,,['2'],,,,,,,,,,0,9,9,9,,,,,0,-1,-1,0,0,0,0,0,,,,,['2'],1,,1,,,,,,,,,,['2'],4.515739077,2018_Jun_10_1759,60.0220142301,sequenceLearningTask,001,132,
min1.png,min2.png,min3.png,min4.png,allBlank.png,,['4'],,,,,,,,,,0,9,9,9,,,,,0,-1,-1,0,0,0,0,0,,,,,['4'],1,,1,,,,,,,,,,['4'],3.93196266657,2018_Jun_10_1759,60.0220142301,sequenceLearningTask,001,132,
min1.png,min2.png,min3.png,min4.png,allBlank.png,,['4'],,,,,,,,,,0,9,9,9,,,,,0,-1,-1,0,0,0,0,0,,,,,['4'],1,,0,,,,,,,,,,['3'],3.94881723076,2018_Jun_10_1759,60.0220142301,sequenceLearningTask,001,132,
min1.png,min2.png,min3.png,min4.png,allBlank.png,,['2'],,,,,,,,,,0,9,9,9,,,,,0,-1,-1,0,0,0,0,0,,,,,['2'],1,,1,,,,,,,,,,['2'],2.83344246144,2018_Jun_10_1759,60.0220142301,sequenceLearningTask,001,132,
min1.png,min2.png,min3.png,min4.png,allBlank.png,,['3'],,,,,,,,,,0,9,9,9,,,,,0,-1,-1,0,0,0,0,0,,,,,['3'],1,,0,,,,,,,,,,['4'],3.031380923,2018_Jun_10_1759,60.0220142301,sequenceLearningTask,001,132,
min1.png,min2.png,min3.png,min4.png,allBlank.png,,['4'],,,,,,,,,,0,9,9,9,,,,,0,-1,-1,0,0,0,0,0,,,,,['4'],1,,0,,,,,,,,,,['1'],2.14907446154,2018_Jun_10_1759,60.0220142301,sequenceLearningTask,001,132,
min1.png,min2.png,min3.png,min4.png,allBlank.png,,['2'],,,,,,,,,,0,9,9,9,,,,,0,-1,-1,0,0,0,0,0,,,,,['2'],1,,0,,,,,,,,,,['1'],4.11609066674,2018_Jun_10_1759,60.0220142301,sequenceLearningTask,001,132,
min1.png,min2.png,min3.png,min4.png,allBlank.png,,['1'],,,,,,,,,,0,9,9,9,,,,,0,-1,-1,0,0,0,0,0,,,,,['1'],1,,0,,,,,,,,,,['3'],2.46554707689,2018_Jun_10_1759,60.0220142301,sequenceLearningTask,001,132,
min1.png,min2.png,min3.png,min4.png,allBlank.png,,['1'],,,,,,,,,,0,9,9,9,,,,,0,-1,-1,0,0,0,0,0,0,0,0,0,['1'],1,,0,,,,,,,,,,['3'],12.9838843078,2018_Jun_10_1759,60.0220142301,sequenceLearningTask,001,132,
min1.png,min2.png,min3.png,min4.png,allBlank.png,,['3'],,,,,,,,,,0,9,9,9,,,,,0,-1,-1,0,0,0,0,0,0,0,0,0,['3'],1,,0,,,,,,,,,,['2'],5.96369353845,2018_Jun_10_1759,60.0220142301,sequenceLearningTask,001,132,
