pawPatrol1,pawPatrol2,pawPatrol3,pawPatrol4,blank,allowableKey,correctKey,correctKeyPressNum,posLoc,correctKeyPress,randomPaw,im_size,trials.thisRepN,trials.thisTrialN,trials.thisN,trials.thisIndex,trials_3.thisRepN,trials_3.thisTrialN,trials_3.thisN,trials_3.thisIndex,trials_2.thisRepN,trials_2.thisTrialN,trials_2.thisN,trials_2.thisIndex,trials_questions.thisRepN,trials_questions.thisTrialN,trials_questions.thisN,trials_questions.thisIndex,correctKey,repetitionNumber,stimulusPresent.t,trialCorrect,key_resp_9.keys,key_resp_9.corr,key_resp_9.rt,keyRespCorrect,date,frameRate,expName,session,participant,
min1.png,min2.png,min3.png,min4.png,allBlank.png,,['num_7'],,,,,,,,,,0,0,0,0,,,,,,,,,['num_7'],1,0.0562740513124,1,['num_7'],0,[0.5874059486668557],,2018_Jun_10_1649,59.9946835505,sequenceLearningTask,001,131,
min1.png,min2.png,min3.png,min4.png,allBlank.png,,['num_1'],,,,,,,,,,0,0,0,0,,,,,,,,,['num_1'],1,0.0499544613995,1,['num_1'],0,[1.0611585639417171],,2018_Jun_10_1649,59.9946835505,sequenceLearningTask,001,131,
min1.png,min2.png,min3.png,min4.png,allBlank.png,,['num_4'],,,,,,,,,,0,0,0,0,,,,,,,,,['num_4'],1,0.0506260513794,1,['num_4'],0,[1.5283245129976422],,2018_Jun_10_1649,59.9946835505,sequenceLearningTask,001,131,
min1.png,min2.png,min3.png,min4.png,allBlank.png,,['num_0'],,,,,,,,,,0,0,0,0,,,,,,,,,['num_0'],1,0.0547495386563,1,['num_0'],0,[0.9221078974660486],,2018_Jun_10_1649,59.9946835505,sequenceLearningTask,001,131,
min1.png,min2.png,min3.png,min4.png,allBlank.png,,['num_0'],,,,,,,,,,0,0,0,0,,,,,,,,,['num_0'],1,0.0483712821733,1,['num_0'],0,[0.9310662562493235],,2018_Jun_10_1649,59.9946835505,sequenceLearningTask,001,131,
min1.png,min2.png,min3.png,min4.png,allBlank.png,,['num_4'],,,,,,,,,,0,0,0,0,,,,,,,,,['num_4'],1,0.0560939486604,1,['num_4'],0,[0.9034166154451668],,2018_Jun_10_1649,59.9946835505,sequenceLearningTask,001,131,
min1.png,min2.png,min3.png,min4.png,allBlank.png,,['num_1'],,,,,,,,,,0,0,0,0,,,,,,,,,['num_1'],1,0.0597632820718,1,['num_1'],0,[0.7172775384970009],,2018_Jun_10_1649,59.9946835505,sequenceLearningTask,001,131,
min1.png,min2.png,min3.png,min4.png,allBlank.png,,['num_0'],,,,,,,,,,0,0,0,0,,,,,,,,,['num_0'],1,0.0489419486839,1,['num_0'],0,[0.6462518973276019],,2018_Jun_10_1649,59.9946835505,sequenceLearningTask,001,131,
min1.png,min2.png,min3.png,min4.png,allBlank.png,,['num_7'],,,,,,,,,,0,1,1,1,,,,,,,,,['num_7'],2,0.0502674872987,1,['num_7'],0,[0.8924890256021172],,2018_Jun_10_1649,59.9946835505,sequenceLearningTask,001,131,
min1.png,min2.png,min3.png,min4.png,allBlank.png,,['num_1'],,,,,,,,,,0,1,1,1,,,,,,,,,['num_1'],2,0.0565694358665,1,['num_1'],0,[0.8882838974241167],,2018_Jun_10_1649,59.9946835505,sequenceLearningTask,001,131,
min1.png,min2.png,min3.png,min4.png,allBlank.png,,['num_4'],,,,,,,,,,0,1,1,1,,,,,,,,,['num_4'],2,0.0567922051996,1,['num_4'],0,[2.4370211283676326],,2018_Jun_10_1649,59.9946835505,sequenceLearningTask,001,131,
min1.png,min2.png,min3.png,min4.png,allBlank.png,,['num_0'],,,,,,,,,,0,1,1,1,,,,,,,,,['num_0'],2,0.0520508717746,0,"['num_1', 'num_0']",0,"[0.6421501538716257, 1.492746256524697]",,2018_Jun_10_1649,59.9946835505,sequenceLearningTask,001,131,
min1.png,min2.png,min3.png,min4.png,allBlank.png,,['num_0'],,,,,,,,,,0,1,1,1,,,,,,,,,['num_0'],2,0.0519195897505,0,"['num_1', 'num_0']",0,"[1.2103671794757247, 1.2252578460611403]",,2018_Jun_10_1649,59.9946835505,sequenceLearningTask,001,131,
min1.png,min2.png,min3.png,min4.png,allBlank.png,,['num_4'],,,,,,,,,,0,1,1,1,,,,,,,,,['num_4'],2,0.0549563076347,1,['num_4'],0,[0.9399474870879203],,2018_Jun_10_1649,59.9946835505,sequenceLearningTask,001,131,
min1.png,min2.png,min3.png,min4.png,allBlank.png,,['num_1'],,,,,,,,,,0,1,1,1,,,,,,,,,['num_1'],2,0.0554047178011,1,['num_1'],0,[0.7556315897963941],,2018_Jun_10_1649,59.9946835505,sequenceLearningTask,001,131,
min1.png,min2.png,min3.png,min4.png,allBlank.png,,['num_0'],,,,,,,,,,0,1,1,1,,,,,,,,,['num_0'],2,0.060214974219,1,['num_0'],0,[0.5341776409186423],,2018_Jun_10_1649,59.9946835505,sequenceLearningTask,001,131,
min1.png,min2.png,min3.png,min4.png,allBlank.png,,['num_7'],,,,,,,,,,0,2,2,2,,,,,,,,,['num_7'],3,0.0482888205443,1,['num_7'],0,[0.843654153868556],,2018_Jun_10_1649,59.9946835505,sequenceLearningTask,001,131,
min1.png,min2.png,min3.png,min4.png,allBlank.png,,['num_1'],,,,,,,,,,0,2,2,2,,,,,,,,,['num_1'],3,0.052950974321,1,['num_1'],0,[0.7579487178009003],,2018_Jun_10_1649,59.9946835505,sequenceLearningTask,001,131,
min1.png,min2.png,min3.png,min4.png,allBlank.png,,['num_4'],,,,,,,,,,0,2,2,2,,,,,,,,,['num_4'],3,0.0523893332575,1,['num_4'],0,[0.4424890256486833],,2018_Jun_10_1649,59.9946835505,sequenceLearningTask,001,131,
min1.png,min2.png,min3.png,min4.png,allBlank.png,,['num_0'],,,,,,,,,,0,2,2,2,,,,,,,,,['num_0'],3,0.0511897436809,1,['num_0'],0,[0.5937571281101555],,2018_Jun_10_1649,59.9946835505,sequenceLearningTask,001,131,
min1.png,min2.png,min3.png,min4.png,allBlank.png,,['num_0'],,,,,,,,,,0,2,2,2,,,,,,,,,['num_0'],3,0.0594260513317,0,"['num_4', 'num_1', 'num_0', 'num_0']",0,"[0.36798605136573315, 0.9849382564425468, 1.2504168204031885]",,2018_Jun_10_1649,59.9946835505,sequenceLearningTask,001,131,
min1.png,min2.png,min3.png,min4.png,allBlank.png,,['num_4'],,,,,,,,,,0,2,2,2,,,,,,,,,['num_4'],3,0.0519105640706,0,"['num_0', 'num_0', 'num_4']",0,"[0.0002982565201818943, 1.2586153845768422]",,2018_Jun_10_1649,59.9946835505,sequenceLearningTask,001,131,
min1.png,min2.png,min3.png,min4.png,allBlank.png,,['num_1'],,,,,,,,,,0,2,2,2,,,,,,,,,['num_1'],3,0.0570970256813,1,['num_1'],0,[0.8875232820864767],,2018_Jun_10_1649,59.9946835505,sequenceLearningTask,001,131,
min1.png,min2.png,min3.png,min4.png,allBlank.png,,['num_0'],,,,,,,,,,0,2,2,2,,,,,,,,,['num_0'],3,0.053615589859,1,['num_0'],0,[0.7075298461131752],,2018_Jun_10_1649,59.9946835505,sequenceLearningTask,001,131,
min1.png,min2.png,min3.png,min4.png,allBlank.png,,['num_7'],,,,,,,,,,0,3,3,3,,,,,,,,,['num_7'],4,0.0504779487383,1,['num_7'],0,[1.5922642052173615],,2018_Jun_10_1649,59.9946835505,sequenceLearningTask,001,131,
min1.png,min2.png,min3.png,min4.png,allBlank.png,,['num_1'],,,,,,,,,,0,3,3,3,,,,,,,,,['num_1'],4,0.0537534360774,0,"['num_4', 'num_1']",0,"[1.0745275896042585, 1.7415466664824635]",,2018_Jun_10_1649,59.9946835505,sequenceLearningTask,001,131,
min1.png,min2.png,min3.png,min4.png,allBlank.png,,['num_4'],,,,,,,,,,0,3,3,3,,,,,,,,,['num_4'],4,0.0590301537886,1,['num_4'],0,[0.8515380513854325],,2018_Jun_10_1649,59.9946835505,sequenceLearningTask,001,131,
min1.png,min2.png,min3.png,min4.png,allBlank.png,,['num_0'],,,,,,,,,,0,3,3,3,,,,,,,,,['num_0'],4,0.0559462562669,1,['num_0'],0,[0.6722342562861741],,2018_Jun_10_1649,59.9946835505,sequenceLearningTask,001,131,
min1.png,min2.png,min3.png,min4.png,allBlank.png,,['num_0'],,,,,,,,,,0,3,3,3,,,,,,,,,['num_0'],4,0.0536324102432,1,['num_0'],0,[0.7737772308755666],,2018_Jun_10_1649,59.9946835505,sequenceLearningTask,001,131,
min1.png,min2.png,min3.png,min4.png,allBlank.png,,['num_4'],,,,,,,,,,0,3,3,3,,,,,,,,,['num_4'],4,0.0501874871552,1,['num_4'],0,[0.8287967180367559],,2018_Jun_10_1649,59.9946835505,sequenceLearningTask,001,131,
min1.png,min2.png,min3.png,min4.png,allBlank.png,,['num_1'],,,,,,,,,,0,3,3,3,,,,,,,,,['num_1'],4,0.0512685128488,1,['num_1'],0,[0.7930802050977945],,2018_Jun_10_1649,59.9946835505,sequenceLearningTask,001,131,
min1.png,min2.png,min3.png,min4.png,allBlank.png,,['num_0'],,,,,,,,,,0,3,3,3,,,,,,,,,['num_0'],4,0.0487831796054,1,['num_0'],0,[0.6956738461740315],,2018_Jun_10_1649,59.9946835505,sequenceLearningTask,001,131,
min1.png,min2.png,min3.png,min4.png,allBlank.png,,['num_7'],,,,,,,,,,0,4,4,4,,,,,,,,,['num_7'],5,0.0510966153815,1,['num_7'],0,[0.9436480000149459],,2018_Jun_10_1649,59.9946835505,sequenceLearningTask,001,131,
min1.png,min2.png,min3.png,min4.png,allBlank.png,,['num_1'],,,,,,,,,,0,4,4,4,,,,,,,,,['num_1'],5,0.0539675897453,1,['num_1'],0,[0.8225727181416005],,2018_Jun_10_1649,59.9946835505,sequenceLearningTask,001,131,
min1.png,min2.png,min3.png,min4.png,allBlank.png,,['num_4'],,,,,,,,,,0,4,4,4,,,,,,,,,['num_4'],5,0.0518642051611,1,['num_4'],0,[0.7430793845560402],,2018_Jun_10_1649,59.9946835505,sequenceLearningTask,001,131,
min1.png,min2.png,min3.png,min4.png,allBlank.png,,['num_0'],,,,,,,,,,0,4,4,4,,,,,,,,,['num_0'],5,0.0605645128526,1,['num_0'],0,[0.6831265641376376],,2018_Jun_10_1649,59.9946835505,sequenceLearningTask,001,131,
min1.png,min2.png,min3.png,min4.png,allBlank.png,,['num_0'],,,,,,,,,,0,4,4,4,,,,,,,,,['num_0'],5,0.0563109742943,1,['num_0'],0,[0.5872127180919051],,2018_Jun_10_1649,59.9946835505,sequenceLearningTask,001,131,
min1.png,min2.png,min3.png,min4.png,allBlank.png,,['num_4'],,,,,,,,,,0,4,4,4,,,,,,,,,['num_4'],5,0.0494276923127,1,['num_4'],0,[1.1959901538211852],,2018_Jun_10_1649,59.9946835505,sequenceLearningTask,001,131,
min1.png,min2.png,min3.png,min4.png,allBlank.png,,['num_1'],,,,,,,,,,0,4,4,4,,,,,,,,,['num_1'],5,0.0540537436027,1,['num_1'],0,[0.8904763078317046],,2018_Jun_10_1649,59.9946835505,sequenceLearningTask,001,131,
min1.png,min2.png,min3.png,min4.png,allBlank.png,,['num_0'],,,,,,,,,,0,4,4,4,,,,,,,,,['num_0'],5,0.0551187691744,1,['num_0'],0,[0.738526358967647],,2018_Jun_10_1649,59.9946835505,sequenceLearningTask,001,131,
min1.png,min2.png,min3.png,min4.png,allBlank.png,,['num_7'],,,,,,,,,,0,5,5,5,,,,,,,,,['num_7'],6,0.0487917948049,1,['num_7'],0,[0.8950990769080818],,2018_Jun_10_1649,59.9946835505,sequenceLearningTask,001,131,
min1.png,min2.png,min3.png,min4.png,allBlank.png,,['num_1'],,,,,,,,,,0,5,5,5,,,,,,,,,['num_1'],6,0.0565390768461,1,['num_1'],0,[1.0374358973931521],,2018_Jun_10_1649,59.9946835505,sequenceLearningTask,001,131,
min1.png,min2.png,min3.png,min4.png,allBlank.png,,['num_4'],,,,,,,,,,0,5,5,5,,,,,,,,,['num_4'],6,0.0520000001416,1,['num_4'],0,[1.292608000105247],,2018_Jun_10_1649,59.9946835505,sequenceLearningTask,001,131,
min1.png,min2.png,min3.png,min4.png,allBlank.png,,['num_0'],,,,,,,,,,0,5,5,5,,,,,,,,,['num_0'],6,0.0548910768703,1,['num_0'],0,[0.8729604103136808],,2018_Jun_10_1649,59.9946835505,sequenceLearningTask,001,131,
min1.png,min2.png,min3.png,min4.png,allBlank.png,,['num_0'],,,,,,,,,,0,5,5,5,,,,,,,,,['num_0'],6,0.0761796922889,1,['num_0'],0,[2.000674051232636],,2018_Jun_10_1649,59.9946835505,sequenceLearningTask,001,131,
min1.png,min2.png,min3.png,min4.png,allBlank.png,,['num_4'],,,,,,,,,,0,5,5,5,,,,,,,,,['num_4'],6,0.0581444101408,1,['num_4'],0,[3.1522572305984795],,2018_Jun_10_1649,59.9946835505,sequenceLearningTask,001,131,
min1.png,min2.png,min3.png,min4.png,allBlank.png,,['num_1'],,,,,,,,,,0,5,5,5,,,,,,,,,['num_1'],6,0.0589197948575,1,['num_1'],0,[0.8690646153409034],,2018_Jun_10_1649,59.9946835505,sequenceLearningTask,001,131,
min1.png,min2.png,min3.png,min4.png,allBlank.png,,['num_0'],,,,,,,,,,0,5,5,5,,,,,,,,,['num_0'],6,0.0498157949187,1,['num_0'],0,[2.4780320001300424],,2018_Jun_10_1649,59.9946835505,sequenceLearningTask,001,131,
min1.png,min2.png,min3.png,min4.png,allBlank.png,,['num_7'],,,,,,,,,,0,6,6,6,,,,,,,,,['num_7'],7,0.0495503589045,1,['num_7'],0,[1.7927236922550946],,2018_Jun_10_1649,59.9946835505,sequenceLearningTask,001,131,
min1.png,min2.png,min3.png,min4.png,allBlank.png,,['num_1'],,,,,,,,,,0,6,6,6,,,,,,,,,['num_1'],7,0.0558806152549,1,['num_1'],0,[0.9386322051286697],,2018_Jun_10_1649,59.9946835505,sequenceLearningTask,001,131,
min1.png,min2.png,min3.png,min4.png,allBlank.png,,['num_4'],,,,,,,,,,0,6,6,6,,,,,,,,,['num_4'],7,0.0556787692476,1,['num_4'],0,[1.0899864614475518],,2018_Jun_10_1649,59.9946835505,sequenceLearningTask,001,131,
min1.png,min2.png,min3.png,min4.png,allBlank.png,,['num_0'],,,,,,,,,,0,6,6,6,,,,,,,,,['num_0'],7,0.056964923162,1,['num_0'],0,[2.4379179487004876],,2018_Jun_10_1649,59.9946835505,sequenceLearningTask,001,131,
min1.png,min2.png,min3.png,min4.png,allBlank.png,,['num_0'],,,,,,,,,,0,6,6,6,,,,,,,,,['num_0'],7,0.0576791795902,1,['num_0'],0,[0.8370851282961667],,2018_Jun_10_1649,59.9946835505,sequenceLearningTask,001,131,
min1.png,min2.png,min3.png,min4.png,allBlank.png,,['num_4'],,,,,,,,,,0,6,6,6,,,,,,,,,['num_4'],7,0.050951794954,1,['num_4'],0,[0.8602334358729422],,2018_Jun_10_1649,59.9946835505,sequenceLearningTask,001,131,
min1.png,min2.png,min3.png,min4.png,allBlank.png,,['num_1'],,,,,,,,,,0,6,6,6,,,,,,,,,['num_1'],7,0.0570921027102,1,['num_1'],0,[1.0715171280317008],,2018_Jun_10_1649,59.9946835505,sequenceLearningTask,001,131,
min1.png,min2.png,min3.png,min4.png,allBlank.png,,['num_0'],,,,,,,,,,0,6,6,6,,,,,,,,,['num_0'],7,0.0537431796547,1,['num_0'],0,[0.94046441023238],,2018_Jun_10_1649,59.9946835505,sequenceLearningTask,001,131,
min1.png,min2.png,min3.png,min4.png,allBlank.png,,['num_7'],,,,,,,,,,0,7,7,7,,,,,,,,,['num_7'],8,0.0525493333116,1,['num_7'],0,[1.2234198974911124],,2018_Jun_10_1649,59.9946835505,sequenceLearningTask,001,131,
min1.png,min2.png,min3.png,min4.png,allBlank.png,,['num_1'],,,,,,,,,,0,7,7,7,,,,,,,,,['num_1'],8,0.0591204103548,1,['num_1'],0,[0.7853887178935111],,2018_Jun_10_1649,59.9946835505,sequenceLearningTask,001,131,
min1.png,min2.png,min3.png,min4.png,allBlank.png,,['num_4'],,,,,,,,,,0,7,7,7,,,,,,,,,['num_4'],8,0.0493870768696,1,['num_4'],0,[0.861137640895322],,2018_Jun_10_1649,59.9946835505,sequenceLearningTask,001,131,
min1.png,min2.png,min3.png,min4.png,allBlank.png,,['num_0'],,,,,,,,,,0,7,7,7,,,,,,,,,['num_0'],8,0.0550043077674,1,['num_0'],0,[0.8242428719531745],,2018_Jun_10_1649,59.9946835505,sequenceLearningTask,001,131,
min1.png,min2.png,min3.png,min4.png,allBlank.png,,['num_0'],,,,,,,,,,0,7,7,7,,,,,,,,,['num_0'],8,0.0562818462495,1,['num_0'],0,[1.7708644103258848],,2018_Jun_10_1649,59.9946835505,sequenceLearningTask,001,131,
min1.png,min2.png,min3.png,min4.png,allBlank.png,,['num_4'],,,,,,,,,,0,7,7,7,,,,,,,,,['num_4'],8,0.0600402050186,1,['num_4'],0,[0.8843171282205731],,2018_Jun_10_1649,59.9946835505,sequenceLearningTask,001,131,
min1.png,min2.png,min3.png,min4.png,allBlank.png,,['num_1'],,,,,,,,,,0,7,7,7,,,,,,,,,['num_1'],8,0.0547355897725,1,['num_1'],0,[0.8234818461351097],,2018_Jun_10_1649,59.9946835505,sequenceLearningTask,001,131,
min1.png,min2.png,min3.png,min4.png,allBlank.png,,['num_0'],,,,,,,,,,0,7,7,7,,,,,,,,,['num_0'],8,0.0575913847424,1,['num_0'],0,[2.5684771281667054],,2018_Jun_10_1649,59.9946835505,sequenceLearningTask,001,131,
min1.png,min2.png,min3.png,min4.png,allBlank.png,,['num_7'],,,,,,,,,,0,8,8,8,,,,,,,,,['num_7'],9,0.0628447178751,1,['num_7'],0,[3.161655384581536],,2018_Jun_10_1649,59.9946835505,sequenceLearningTask,001,131,
min1.png,min2.png,min3.png,min4.png,allBlank.png,,['num_1'],,,,,,,,,,0,8,8,8,,,,,,,,,['num_1'],9,0.0539741539396,1,['num_1'],0,[0.656820512842387],,2018_Jun_10_1649,59.9946835505,sequenceLearningTask,001,131,
min1.png,min2.png,min3.png,min4.png,allBlank.png,,['num_4'],,,,,,,,,,0,8,8,8,,,,,,,,,['num_4'],9,0.0538473846391,1,['num_4'],0,[0.6905624615028501],,2018_Jun_10_1649,59.9946835505,sequenceLearningTask,001,131,
min1.png,min2.png,min3.png,min4.png,allBlank.png,,['num_0'],,,,,,,,,,0,8,8,8,,,,,,,,,['num_0'],9,0.0521538460162,1,['num_0'],0,[0.5086756923701614],,2018_Jun_10_1649,59.9946835505,sequenceLearningTask,001,131,
min1.png,min2.png,min3.png,min4.png,allBlank.png,,['num_0'],,,,,,,,,,0,8,8,8,,,,,,,,,['num_0'],9,0.0540631795302,1,['num_0'],0,[0.6410096411127597],,2018_Jun_10_1649,59.9946835505,sequenceLearningTask,001,131,
min1.png,min2.png,min3.png,min4.png,allBlank.png,,['num_4'],,,,,,,,,,0,8,8,8,,,,,,,,,['num_4'],9,0.0571298461873,1,['num_4'],0,[0.6208361024037004],,2018_Jun_10_1649,59.9946835505,sequenceLearningTask,001,131,
min1.png,min2.png,min3.png,min4.png,allBlank.png,,['num_1'],,,,,,,,,,0,8,8,8,,,,,,,,,['num_1'],9,0.0530063591432,1,['num_1'],0,[0.6923991795629263],,2018_Jun_10_1649,59.9946835505,sequenceLearningTask,001,131,
min1.png,min2.png,min3.png,min4.png,allBlank.png,,['num_0'],,,,,,,,,,0,8,8,8,,,,,,,,,['num_0'],9,0.0565932309255,1,['num_0'],0,[0.5204475896898657],,2018_Jun_10_1649,59.9946835505,sequenceLearningTask,001,131,
min1.png,min2.png,min3.png,min4.png,allBlank.png,,['num_7'],,,,,,,,,,0,9,9,9,,,,,,,,,['num_7'],10,0.0579458461143,1,['num_7'],0,[0.9172594870906323],,2018_Jun_10_1649,59.9946835505,sequenceLearningTask,001,131,
min1.png,min2.png,min3.png,min4.png,allBlank.png,,['num_1'],,,,,,,,,,0,9,9,9,,,,,,,,,['num_1'],10,0.0503257436212,0,"['num_4', 'num_1']",0,"[0.5940672820433974, 0.6436155897099525]",,2018_Jun_10_1649,59.9946835505,sequenceLearningTask,001,131,
min1.png,min2.png,min3.png,min4.png,allBlank.png,,['num_4'],,,,,,,,,,0,9,9,9,,,,,,,,,['num_4'],10,0.0505452307407,0,"['num_1', 'num_4', 'num_1', 'num_4']",0,"[0.7111585640814155, 0.9947392821777612, 1.6440164102241397]",,2018_Jun_10_1649,59.9946835505,sequenceLearningTask,001,131,
min1.png,min2.png,min3.png,min4.png,allBlank.png,,['num_0'],,,,,,,,,,0,9,9,9,,,,,,,,,['num_0'],10,0.0578174358234,1,['num_0'],0,[0.6371027694549412],,2018_Jun_10_1649,59.9946835505,sequenceLearningTask,001,131,
min1.png,min2.png,min3.png,min4.png,allBlank.png,,['num_0'],,,,,,,,,,0,9,9,9,,,,,,,,,['num_0'],10,0.0551035897806,0,"['num_0', 'num_0']",0,"[0.00027158972807228565, 0.6562334359623492]",,2018_Jun_10_1649,59.9946835505,sequenceLearningTask,001,131,
min1.png,min2.png,min3.png,min4.png,allBlank.png,,['num_4'],,,,,,,,,,0,9,9,9,,,,,,,,,['num_4'],10,0.0514912821818,1,['num_4'],0,[0.3606112820561975],,2018_Jun_10_1649,59.9946835505,sequenceLearningTask,001,131,
min1.png,min2.png,min3.png,min4.png,allBlank.png,,['num_1'],,,,,,,,,,0,9,9,9,,,,,,,,,['num_1'],10,0.0566104615573,0,"['num_1', 'num_0', 'num_1']",0,"[0.43794133327901363, 0.9023700512479991]",,2018_Jun_10_1649,59.9946835505,sequenceLearningTask,001,131,
min1.png,min2.png,min3.png,min4.png,allBlank.png,,['num_0'],,,,,,,,,,0,9,9,9,,,,,,,,,['num_0'],10,0.0573325126898,1,['num_0'],0,[0.5367737435735762],,2018_Jun_10_1649,59.9946835505,sequenceLearningTask,001,131,
min1.png,min2.png,min3.png,min4.png,allBlank.png,,['num_7'],,,,,,,,,,0,0,0,0,,,,,,,,,['num_7'],1,0.0560549744405,1,['num_7'],0,[1.126957538537681],,2018_Jun_10_1649,59.9946835505,sequenceLearningTask,001,131,
min1.png,min2.png,min3.png,min4.png,allBlank.png,,['num_1'],,,,,,,,,,0,0,0,0,,,,,,,,,['num_1'],1,0.0587536410894,1,['num_1'],0,[0.8362022563815117],,2018_Jun_10_1649,59.9946835505,sequenceLearningTask,001,131,
min1.png,min2.png,min3.png,min4.png,allBlank.png,,['num_4'],,,,,,,,,,0,0,0,0,,,,,,,,,['num_4'],1,0.0531704616733,1,['num_4'],0,[0.8406908719334751],,2018_Jun_10_1649,59.9946835505,sequenceLearningTask,001,131,
min1.png,min2.png,min3.png,min4.png,allBlank.png,,['num_0'],,,,,,,,,,0,0,0,0,,,,,,,,,['num_0'],1,0.0528426666278,1,['num_0'],0,[0.7924615384545177],,2018_Jun_10_1649,59.9946835505,sequenceLearningTask,001,131,
min1.png,min2.png,min3.png,min4.png,allBlank.png,,['num_0'],,,,,,,,,,0,0,0,0,,,,,,,,,['num_0'],1,0.0547651282977,1,['num_0'],0,[0.8564832820557058],,2018_Jun_10_1649,59.9946835505,sequenceLearningTask,001,131,
min1.png,min2.png,min3.png,min4.png,allBlank.png,,['num_4'],,,,,,,,,,0,0,0,0,,,,,,,,,['num_4'],1,0.0519716923591,1,['num_4'],0,[0.7928332306910306],,2018_Jun_10_1649,59.9946835505,sequenceLearningTask,001,131,
min1.png,min2.png,min3.png,min4.png,allBlank.png,,['num_1'],,,,,,,,,,0,0,0,0,,,,,,,,,['num_1'],1,0.0570227692369,1,['num_1'],0,[1.270083692157641],,2018_Jun_10_1649,59.9946835505,sequenceLearningTask,001,131,
min1.png,min2.png,min3.png,min4.png,allBlank.png,,['num_0'],,,,,,,,,,0,0,0,0,,,,,,,,,['num_0'],1,0.0529657437,1,['num_0'],0,[0.7070137436967343],,2018_Jun_10_1649,59.9946835505,sequenceLearningTask,001,131,
min1.png,min2.png,min3.png,min4.png,allBlank.png,,['num_7'],,,,,,,,,,0,1,1,1,,,,,,,,,['num_7'],2,0.0568361026235,1,['num_7'],0,[0.7524135382845998],,2018_Jun_10_1649,59.9946835505,sequenceLearningTask,001,131,
min1.png,min2.png,min3.png,min4.png,allBlank.png,,['num_1'],,,,,,,,,,0,1,1,1,,,,,,,,,['num_1'],2,0.0490129231475,1,['num_1'],0,[0.9124356922693551],,2018_Jun_10_1649,59.9946835505,sequenceLearningTask,001,131,
min1.png,min2.png,min3.png,min4.png,allBlank.png,,['num_4'],,,,,,,,,,0,1,1,1,,,,,,,,,['num_4'],2,0.0529226667713,0,"['num_7', 'num_4']",0,"[0.7427318973932415, 1.125541333341971]",,2018_Jun_10_1649,59.9946835505,sequenceLearningTask,001,131,
min1.png,min2.png,min3.png,min4.png,allBlank.png,,['num_0'],,,,,,,,,,0,1,1,1,,,,,,,,,['num_0'],2,0.0495524101425,1,['num_0'],0,[0.8614449230954051],,2018_Jun_10_1649,59.9946835505,sequenceLearningTask,001,131,
min1.png,min2.png,min3.png,min4.png,allBlank.png,,['num_0'],,,,,,,,,,0,1,1,1,,,,,,,,,['num_0'],2,0.0615544614848,1,['num_0'],0,[0.7648787691723555],,2018_Jun_10_1649,59.9946835505,sequenceLearningTask,001,131,
min1.png,min2.png,min3.png,min4.png,allBlank.png,,['num_4'],,,,,,,,,,0,1,1,1,,,,,,,,,['num_4'],2,0.0526240000036,1,['num_4'],0,[0.891842461656779],,2018_Jun_10_1649,59.9946835505,sequenceLearningTask,001,131,
min1.png,min2.png,min3.png,min4.png,allBlank.png,,['num_1'],,,,,,,,,,0,1,1,1,,,,,,,,,['num_1'],2,0.0503811282106,1,['num_1'],0,[0.8102527179289609],,2018_Jun_10_1649,59.9946835505,sequenceLearningTask,001,131,
min1.png,min2.png,min3.png,min4.png,allBlank.png,,['num_0'],,,,,,,,,,0,1,1,1,,,,,,,,,['num_0'],2,0.0533156923484,1,['num_0'],0,[0.8592065640259534],,2018_Jun_10_1649,59.9946835505,sequenceLearningTask,001,131,
min1.png,min2.png,min3.png,min4.png,allBlank.png,,['num_7'],,,,,,,,,,0,2,2,2,,,,,,,,,['num_7'],3,0.0522092306055,1,['num_7'],0,[0.8901411280967295],,2018_Jun_10_1649,59.9946835505,sequenceLearningTask,001,131,
min1.png,min2.png,min3.png,min4.png,allBlank.png,,['num_1'],,,,,,,,,,0,2,2,2,,,,,,,,,['num_1'],3,0.0526059486438,0,"['num_4', 'num_4', 'num_4', 'num_4', 'num_4', 'num_4', 'num_4', 'num_4', 'num_4', 'num_4', 'num_1', 'num_1']",0,"[1.0084373333957046, 2.342436922946945, 2.542359384475276, 2.758361025713384, 2.925469948677346, 3.141742358915508, 3.3417874870356172, 3.5427831795532256, 3.9750514870975167, 4.209725128253922, 4.409828512696549]",,2018_Jun_10_1649,59.9946835505,sequenceLearningTask,001,131,
min1.png,min2.png,min3.png,min4.png,allBlank.png,,['num_4'],,,,,,,,,,0,2,2,2,,,,,,,,,['num_4'],3,0.0551249231212,0,"['num_1', 'num_1', 'num_4']",0,"[0.0005193846300244331, 0.9720923078712076]",,2018_Jun_10_1649,59.9946835505,sequenceLearningTask,001,131,
min1.png,min2.png,min3.png,min4.png,allBlank.png,,['num_0'],,,,,,,,,,0,2,2,2,,,,,,,,,['num_0'],3,0.053145846352,1,['num_0'],0,[0.6410838975571096],,2018_Jun_10_1649,59.9946835505,sequenceLearningTask,001,131,
min1.png,min2.png,min3.png,min4.png,allBlank.png,,['num_0'],,,,,,,,,,0,2,2,2,,,,,,,,,['num_0'],3,0.0534182563424,1,['num_0'],0,[0.6738527179695666],,2018_Jun_10_1649,59.9946835505,sequenceLearningTask,001,131,
min1.png,min2.png,min3.png,min4.png,allBlank.png,,['num_4'],,,,,,,,,,0,2,2,2,,,,,,,,,['num_4'],3,0.0514650256373,1,['num_4'],0,[0.8932426664978266],,2018_Jun_10_1649,59.9946835505,sequenceLearningTask,001,131,
min1.png,min2.png,min3.png,min4.png,allBlank.png,,['num_1'],,,,,,,,,,0,2,2,2,,,,,,,,,['num_1'],3,0.0587934358045,1,['num_1'],0,[0.7365181539207697],,2018_Jun_10_1649,59.9946835505,sequenceLearningTask,001,131,
min1.png,min2.png,min3.png,min4.png,allBlank.png,,['num_0'],,,,,,,,,,0,2,2,2,,,,,,,,,['num_0'],3,0.0552332308143,1,['num_0'],0,[0.5903794872574508],,2018_Jun_10_1649,59.9946835505,sequenceLearningTask,001,131,
min1.png,min2.png,min3.png,min4.png,allBlank.png,,['num_7'],,,,,,,,,,0,3,3,3,,,,,,,,,['num_7'],4,0.0509981538635,1,['num_7'],0,[0.7749460514169186],,2018_Jun_10_1649,59.9946835505,sequenceLearningTask,001,131,
min1.png,min2.png,min3.png,min4.png,allBlank.png,,['num_1'],,,,,,,,,,0,3,3,3,,,,,,,,,['num_1'],4,0.0593636923004,1,['num_1'],0,[0.9517530256416649],,2018_Jun_10_1649,59.9946835505,sequenceLearningTask,001,131,
min1.png,min2.png,min3.png,min4.png,allBlank.png,,['num_4'],,,,,,,,,,0,3,3,3,,,,,,,,,['num_4'],4,0.0517136410344,1,['num_4'],0,[1.19270358979702],,2018_Jun_10_1649,59.9946835505,sequenceLearningTask,001,131,
min1.png,min2.png,min3.png,min4.png,allBlank.png,,['num_0'],,,,,,,,,,0,3,3,3,,,,,,,,,['num_0'],4,0.0503208206501,1,['num_0'],0,[0.9272348717786372],,2018_Jun_10_1649,59.9946835505,sequenceLearningTask,001,131,
min1.png,min2.png,min3.png,min4.png,allBlank.png,,['num_0'],,,,,,,,,,0,3,3,3,,,,,,,,,['num_0'],4,0.0529899487738,1,['num_0'],0,[1.890908307628706],,2018_Jun_10_1649,59.9946835505,sequenceLearningTask,001,131,
min1.png,min2.png,min3.png,min4.png,allBlank.png,,['num_4'],,,,,,,,,,0,3,3,3,,,,,,,,,['num_4'],4,0.0577243077569,1,['num_4'],0,[1.4027926153503358],,2018_Jun_10_1649,59.9946835505,sequenceLearningTask,001,131,
min1.png,min2.png,min3.png,min4.png,allBlank.png,,['num_1'],,,,,,,,,,0,3,3,3,,,,,,,,,['num_1'],4,0.052587897284,1,['num_1'],0,[1.4085423587821424],,2018_Jun_10_1649,59.9946835505,sequenceLearningTask,001,131,
min1.png,min2.png,min3.png,min4.png,allBlank.png,,['num_0'],,,,,,,,,,0,3,3,3,,,,,,,,,['num_0'],4,0.0563298461493,1,['num_0'],0,[0.9885435898322612],,2018_Jun_10_1649,59.9946835505,sequenceLearningTask,001,131,
min1.png,min2.png,min3.png,min4.png,allBlank.png,,['num_7'],,,,,,,,,,0,4,4,4,,,,,,,,,['num_7'],5,0.050866461359,1,['num_7'],0,[0.525279589695856],,2018_Jun_10_1649,59.9946835505,sequenceLearningTask,001,131,
min1.png,min2.png,min3.png,min4.png,allBlank.png,,['num_1'],,,,,,,,,,0,4,4,4,,,,,,,,,['num_1'],5,0.0599003075622,0,"['num_0', 'num_0', 'num_1']",0,"[0.0003179488703608513, 0.350845948792994, 0.5506970258429646]",,2018_Jun_10_1649,59.9946835505,sequenceLearningTask,001,131,
min1.png,min2.png,min3.png,min4.png,allBlank.png,,['num_4'],,,,,,,,,,0,4,4,4,,,,,,,,,['num_4'],5,0.0563282051589,0,"['num_4', 'num_1', 'num_0', 'num_4', 'num_1', 'num_7', 'num_4']",0,"[0.000651076901704073, 0.2543745639268309, 0.4708750769495964, 1.7545776409097016]",,2018_Jun_10_1649,59.9946835505,sequenceLearningTask,001,131,
min1.png,min2.png,min3.png,min4.png,allBlank.png,,['num_0'],,,,,,,,,,0,4,4,4,,,,,,,,,['num_0'],5,0.0553062565159,1,['num_0'],0,[0.6054395898245275],,2018_Jun_10_1649,59.9946835505,sequenceLearningTask,001,131,
min1.png,min2.png,min3.png,min4.png,allBlank.png,,['num_0'],,,,,,,,,,0,4,4,4,,,,,,,,,['num_0'],5,0.0564713848289,1,['num_0'],0,[0.47105394885875285],,2018_Jun_10_1649,59.9946835505,sequenceLearningTask,001,131,
min1.png,min2.png,min3.png,min4.png,allBlank.png,,['num_4'],,,,,,,,,,0,4,4,4,,,,,,,,,['num_4'],5,0.0562576411758,0,"['num_7', 'num_7', 'num_7', 'num_4']",0,"[1.2380873847287148, 2.0211938463617116, 2.3548791795037687, 2.837071179645136]",,2018_Jun_10_1649,59.9946835505,sequenceLearningTask,001,131,
min1.png,min2.png,min3.png,min4.png,allBlank.png,,['num_1'],,,,,,,,,,0,4,4,4,,,,,,,,,['num_1'],5,0.0581842050888,1,['num_1'],0,[0.9211290257517248],,2018_Jun_10_1649,59.9946835505,sequenceLearningTask,001,131,
min1.png,min2.png,min3.png,min4.png,allBlank.png,,['num_0'],,,,,,,,,,0,4,4,4,,,,,,,,,['num_0'],5,0.0546535386238,1,['num_0'],0,[0.7576032821089029],,2018_Jun_10_1649,59.9946835505,sequenceLearningTask,001,131,
min1.png,min2.png,min3.png,min4.png,allBlank.png,,['num_7'],,,,,,,,,,0,5,5,5,,,,,,,,,['num_7'],6,0.0550921026152,1,['num_7'],0,[0.6037485126871616],,2018_Jun_10_1649,59.9946835505,sequenceLearningTask,001,131,
min1.png,min2.png,min3.png,min4.png,allBlank.png,,['num_1'],,,,,,,,,,0,5,5,5,,,,,,,,,['num_1'],6,0.0545776409563,1,['num_1'],0,[0.7901866666506976],,2018_Jun_10_1649,59.9946835505,sequenceLearningTask,001,131,
min1.png,min2.png,min3.png,min4.png,allBlank.png,,['num_4'],,,,,,,,,,0,5,5,5,,,,,,,,,['num_4'],6,0.0560902564321,1,['num_4'],0,[0.7550863588694483],,2018_Jun_10_1649,59.9946835505,sequenceLearningTask,001,131,
min1.png,min2.png,min3.png,min4.png,allBlank.png,,['num_0'],,,,,,,,,,0,5,5,5,,,,,,,,,['num_0'],6,0.0568328204099,1,['num_0'],0,[0.9706469743978232],,2018_Jun_10_1649,59.9946835505,sequenceLearningTask,001,131,
min1.png,min2.png,min3.png,min4.png,allBlank.png,,['num_0'],,,,,,,,,,0,5,5,5,,,,,,,,,['num_0'],6,0.0580209230538,1,['num_0'],0,[1.9025005127768964],,2018_Jun_10_1649,59.9946835505,sequenceLearningTask,001,131,
min1.png,min2.png,min3.png,min4.png,allBlank.png,,['num_4'],,,,,,,,,,0,5,5,5,,,,,,,,,['num_4'],6,0.0526900512632,0,"['num_7', 'num_4']",0,"[1.125607384601608, 1.858813128201291]",,2018_Jun_10_1649,59.9946835505,sequenceLearningTask,001,131,
min1.png,min2.png,min3.png,min4.png,allBlank.png,,['num_1'],,,,,,,,,,0,5,5,5,,,,,,,,,['num_1'],6,0.0522338461597,0,"['num_4', 'num_1']",0,"[0.4256102563813329, 2.5925620512571186]",,2018_Jun_10_1649,59.9946835505,sequenceLearningTask,001,131,
min1.png,min2.png,min3.png,min4.png,allBlank.png,,['num_0'],,,,,,,,,,0,5,5,5,,,,,,,,,['num_0'],6,0.0587552820798,1,['num_0'],0,[0.6514502563513815],,2018_Jun_10_1649,59.9946835505,sequenceLearningTask,001,131,
min1.png,min2.png,min3.png,min4.png,allBlank.png,,['num_7'],,,,,,,,,,0,6,6,6,,,,,,,,,['num_7'],7,0.0441025639884,1,['num_7'],0,[1.4342215384822339],,2018_Jun_10_1649,59.9946835505,sequenceLearningTask,001,131,
min1.png,min2.png,min3.png,min4.png,allBlank.png,,['num_1'],,,,,,,,,,0,6,6,6,,,,,,,,,['num_1'],7,0.0513821539935,1,['num_1'],0,[1.1937230767216533],,2018_Jun_10_1649,59.9946835505,sequenceLearningTask,001,131,
min1.png,min2.png,min3.png,min4.png,allBlank.png,,['num_4'],,,,,,,,,,0,6,6,6,,,,,,,,,['num_4'],7,0.0502953846008,1,['num_4'],0,[1.0109095384832472],,2018_Jun_10_1649,59.9946835505,sequenceLearningTask,001,131,
min1.png,min2.png,min3.png,min4.png,allBlank.png,,['num_0'],,,,,,,,,,0,6,6,6,,,,,,,,,['num_0'],7,0.0565735383425,1,['num_0'],0,[1.0373583589680493],,2018_Jun_10_1649,59.9946835505,sequenceLearningTask,001,131,
min1.png,min2.png,min3.png,min4.png,allBlank.png,,['num_0'],,,,,,,,,,0,6,6,6,,,,,,,,,['num_0'],7,0.0535158973653,1,['num_0'],0,[1.0068824614863843],,2018_Jun_10_1649,59.9946835505,sequenceLearningTask,001,131,
min1.png,min2.png,min3.png,min4.png,allBlank.png,,['num_4'],,,,,,,,,,0,6,6,6,,,,,,,,,['num_4'],7,0.050432410324,0,"['num_0', 'num_4']",0,"[1.9440861537586898, 2.7609997948165983]",,2018_Jun_10_1649,59.9946835505,sequenceLearningTask,001,131,
min1.png,min2.png,min3.png,min4.png,allBlank.png,,['num_1'],,,,,,,,,,0,6,6,6,,,,,,,,,['num_1'],7,0.0543766154442,1,['num_1'],0,[7.223494153935462],,2018_Jun_10_1649,59.9946835505,sequenceLearningTask,001,131,
min1.png,min2.png,min3.png,min4.png,allBlank.png,,['num_0'],,,,,,,,,,0,6,6,6,,,,,,,,,['num_0'],7,0.0533604102675,1,['num_0'],0,[1.3905784613452852],,2018_Jun_10_1649,59.9946835505,sequenceLearningTask,001,131,
min1.png,min2.png,min3.png,min4.png,allBlank.png,,['num_7'],,,,,,,,,,0,7,7,7,,,,,,,,,['num_7'],8,0.049957743613,1,['num_7'],0,[1.4776402050629258],,2018_Jun_10_1649,59.9946835505,sequenceLearningTask,001,131,
min1.png,min2.png,min3.png,min4.png,allBlank.png,,['num_1'],,,,,,,,,,0,7,7,7,,,,,,,,,['num_1'],8,0.0711331283674,1,['num_1'],0,[0.7716389745473862],,2018_Jun_10_1649,59.9946835505,sequenceLearningTask,001,131,
min1.png,min2.png,min3.png,min4.png,allBlank.png,,['num_4'],,,,,,,,,,0,7,7,7,,,,,,,,,['num_4'],8,0.0542539488524,1,['num_4'],0,[11.389046153984964],,2018_Jun_10_1649,59.9946835505,sequenceLearningTask,001,131,
min1.png,min2.png,min3.png,min4.png,allBlank.png,,['num_0'],,,,,,,,,,0,7,7,7,,,,,,,,,['num_0'],8,0.0497600000817,1,['num_0'],0,[0.7779766153544188],,2018_Jun_10_1649,59.9946835505,sequenceLearningTask,001,131,
min1.png,min2.png,min3.png,min4.png,allBlank.png,,['num_0'],,,,,,,,,,0,7,7,7,,,,,,,,,['num_0'],8,0.0558416410349,1,['num_0'],0,[3.321784615283832],,2018_Jun_10_1649,59.9946835505,sequenceLearningTask,001,131,
min1.png,min2.png,min3.png,min4.png,allBlank.png,,['num_4'],,,,,,,,,,0,7,7,7,,,,,,,,,['num_4'],8,0.0514769230504,1,['num_4'],0,[0.9097386668436229],,2018_Jun_10_1649,59.9946835505,sequenceLearningTask,001,131,
min1.png,min2.png,min3.png,min4.png,allBlank.png,,['num_1'],,,,,,,,,,0,7,7,7,,,,,,,,,['num_1'],8,0.0528426666278,1,['num_1'],0,[0.7411667690612376],,2018_Jun_10_1649,59.9946835505,sequenceLearningTask,001,131,
min1.png,min2.png,min3.png,min4.png,allBlank.png,,['num_0'],,,,,,,,,,0,7,7,7,,,,,,,,,['num_0'],8,0.054635487264,1,['num_0'],0,[0.790662974352017],,2018_Jun_10_1649,59.9946835505,sequenceLearningTask,001,131,
min1.png,min2.png,min3.png,min4.png,allBlank.png,,['num_7'],,,,,,,,,,0,8,8,8,,,,,,,,,['num_7'],9,0.0587105639279,1,['num_7'],0,[0.634214153746143],,2018_Jun_10_1649,59.9946835505,sequenceLearningTask,001,131,
min1.png,min2.png,min3.png,min4.png,allBlank.png,,['num_1'],,,,,,,,,,0,8,8,8,,,,,,,,,['num_1'],9,0.0497119999491,1,['num_1'],0,[1.9614744614809752],,2018_Jun_10_1649,59.9946835505,sequenceLearningTask,001,131,
min1.png,min2.png,min3.png,min4.png,allBlank.png,,['num_4'],,,,,,,,,,0,8,8,8,,,,,,,,,['num_4'],9,0.0506802052259,1,['num_4'],0,[0.5434162050951272],,2018_Jun_10_1649,59.9946835505,sequenceLearningTask,001,131,
min1.png,min2.png,min3.png,min4.png,allBlank.png,,['num_0'],,,,,,,,,,0,8,8,8,,,,,,,,,['num_0'],9,0.0544869743753,1,['num_0'],0,[0.389661128167063],,2018_Jun_10_1649,59.9946835505,sequenceLearningTask,001,131,
min1.png,min2.png,min3.png,min4.png,allBlank.png,,['num_0'],,,,,,,,,,0,8,8,8,,,,,,,,,['num_0'],9,0.0586420514155,0,"['num_1', 'num_0']",0,"[0.4688882050104439, 0.9692754871211946]",,2018_Jun_10_1649,59.9946835505,sequenceLearningTask,001,131,
min1.png,min2.png,min3.png,min4.png,allBlank.png,,['num_4'],,,,,,,,,,0,8,8,8,,,,,,,,,['num_4'],9,0.0584935385268,1,['num_4'],0,[0.6016307692043483],,2018_Jun_10_1649,59.9946835505,sequenceLearningTask,001,131,
min1.png,min2.png,min3.png,min4.png,allBlank.png,,['num_1'],,,,,,,,,,0,8,8,8,,,,,,,,,['num_1'],9,0.0487655384932,0,"['num_7', 'num_7', 'num_1', 'num_0', 'num_4', 'num_1']",0,"[0.0002137436531484127, 0.4471881026402116, 0.463736615376547, 1.1300082050729543]",,2018_Jun_10_1649,59.9946835505,sequenceLearningTask,001,131,
min1.png,min2.png,min3.png,min4.png,allBlank.png,,['num_0'],,,,,,,,,,0,8,8,8,,,,,,,,,['num_0'],9,0.058671589708,0,"['num_0', 'num_7', 'num_4', 'num_7', 'num_1', 'num_0', 'num_0']",0,"[0.0003064617048949003, 0.4193587691988796, 0.9026002052705735]",,2018_Jun_10_1649,59.9946835505,sequenceLearningTask,001,131,
min1.png,min2.png,min3.png,min4.png,allBlank.png,,['num_7'],,,,,,,,,,0,9,9,9,,,,,,,,,['num_7'],10,0.056789743714,0,"['num_1', 'num_4', 'num_7', 'num_0', 'num_7', 'num_0', 'num_7']",0,"[0.00029169232584536076, 0.6201062565669417, 1.2362198976334184]",,2018_Jun_10_1649,59.9946835505,sequenceLearningTask,001,131,
min1.png,min2.png,min3.png,min4.png,allBlank.png,,['num_1'],,,,,,,,,,0,9,9,9,,,,,,,,,['num_1'],10,0.0582531283144,1,['num_1'],0,[0.7025669743306935],,2018_Jun_10_1649,59.9946835505,sequenceLearningTask,001,131,
min1.png,min2.png,min3.png,min4.png,allBlank.png,,['num_4'],,,,,,,,,,0,9,9,9,,,,,,,,,['num_4'],10,0.0546539486386,1,['num_4'],0,[0.7058966152835637],,2018_Jun_10_1649,59.9946835505,sequenceLearningTask,001,131,
min1.png,min2.png,min3.png,min4.png,allBlank.png,,['num_0'],,,,,,,,,,0,9,9,9,,,,,,,,,['num_0'],10,0.0553411280271,1,['num_0'],0,[0.4895753846503794],,2018_Jun_10_1649,59.9946835505,sequenceLearningTask,001,131,
min1.png,min2.png,min3.png,min4.png,allBlank.png,,['num_0'],,,,,,,,,,0,9,9,9,,,,,,,,,['num_0'],10,0.0531495385803,1,['num_0'],0,[1.0413936411496252],,2018_Jun_10_1649,59.9946835505,sequenceLearningTask,001,131,
min1.png,min2.png,min3.png,min4.png,allBlank.png,,['num_4'],,,,,,,,,,0,9,9,9,,,,,,,,,['num_4'],10,0.0519565127324,1,['num_4'],0,[1.0263827692251652],,2018_Jun_10_1649,59.9946835505,sequenceLearningTask,001,131,
min1.png,min2.png,min3.png,min4.png,allBlank.png,,['num_1'],,,,,,,,,,0,9,9,9,,,,,,,,,['num_1'],10,0.0522149743047,1,['num_1'],0,[0.7753534358926117],,2018_Jun_10_1649,59.9946835505,sequenceLearningTask,001,131,
min1.png,min2.png,min3.png,min4.png,allBlank.png,,['num_0'],,,,,,,,,,0,9,9,9,,,,,,,,,['num_0'],10,0.055455589667,1,['num_0'],0,[0.42342400015331805],,2018_Jun_10_1649,59.9946835505,sequenceLearningTask,001,131,
min1.png,min2.png,min3.png,min4.png,images/allBlank.png,"['num_7', 'num_4', 'num_1', 'num_0']",['num_7'],num_7,[1],'num_7',images/min1.png,"[(0.45, 0.79)]",,,,,0,9,9,9,0,0,0,0,,,,,['num_7'],,0.0618543589953,1,['num_7'],0,[1.0629247180186212],1,2018_Jun_10_1649,59.9946835505,sequenceLearningTask,001,131,
min1.png,min2.png,min3.png,min4.png,images/allBlank.png,"['num_7', 'num_4', 'num_1', 'num_0']",['num_0'],num_0,[4],'num_0',images/min4.png,"[(0.45, 0.79)]",,,,,0,9,9,9,0,1,1,3,,,,,['num_0'],,0.0559712820686,1,['num_0'],0,[0.8195417437236756],1,2018_Jun_10_1649,59.9946835505,sequenceLearningTask,001,131,
min1.png,min2.png,min3.png,min4.png,images/allBlank.png,"['num_7', 'num_4', 'num_1', 'num_0']",['num_1'],num_1,[3],'num_1',images/min3.png,"[(0.45, 0.79)]",,,,,0,9,9,9,0,2,2,2,,,,,['num_1'],,0.0537600000389,0,"['num_4', 'num_4', 'num_4', 'num_1']",0,"[2.4048845127690583, 3.4206691281870008, 3.987840820569545, 4.954427076969296]",0,2018_Jun_10_1649,59.9946835505,sequenceLearningTask,001,131,
min1.png,min2.png,min3.png,min4.png,images/allBlank.png,"['num_7', 'num_4', 'num_1', 'num_0']",['num_4'],num_4,[2],'num_4',images/min2.png,"[(0.45, 0.79)]",,,,,0,9,9,9,0,3,3,1,,,,,['num_4'],,0.0530625642277,0,"['num_7', 'num_4']",0,"[1.057876923121512, 2.038792205043137]",0,2018_Jun_10_1649,59.9946835505,sequenceLearningTask,001,131,
min1.png,min2.png,min3.png,min4.png,images/allBlank.png,"['num_7', 'num_4', 'num_1', 'num_0']",['num_1'],num_1,[3],'num_1',images/min3.png,"[(0.45, 0.79)]",,,,,0,9,9,9,1,0,4,2,,,,,['num_1'],,0.0509440000169,1,['num_1'],0,[1.8926047179847956],1,2018_Jun_10_1649,59.9946835505,sequenceLearningTask,001,131,
min1.png,min2.png,min3.png,min4.png,images/allBlank.png,"['num_7', 'num_4', 'num_1', 'num_0']",['num_0'],num_0,[4],'num_0',images/min4.png,"[(0.45, 0.79)]",,,,,0,9,9,9,1,1,5,3,,,,,['num_0'],,0.0507766152732,1,['num_0'],0,[0.8748438972979784],1,2018_Jun_10_1649,59.9946835505,sequenceLearningTask,001,131,
min1.png,min2.png,min3.png,min4.png,images/allBlank.png,"['num_7', 'num_4', 'num_1', 'num_0']",['num_4'],num_4,[2],'num_4',images/min2.png,"[(0.45, 0.79)]",,,,,0,9,9,9,1,2,6,1,,,,,['num_4'],,0.0538034872152,1,['num_4'],0,[1.0058674872852862],1,2018_Jun_10_1649,59.9946835505,sequenceLearningTask,001,131,
min1.png,min2.png,min3.png,min4.png,images/allBlank.png,"['num_7', 'num_4', 'num_1', 'num_0']",['num_7'],num_7,[1],'num_7',images/min1.png,"[(0.45, 0.79)]",,,,,0,9,9,9,1,3,7,0,,,,,['num_7'],,0.0534153846093,1,['num_7'],0,[0.9708984615281224],1,2018_Jun_10_1649,59.9946835505,sequenceLearningTask,001,131,
min1.png,min2.png,min3.png,min4.png,images/allBlank.png,"['num_7', 'num_4', 'num_1', 'num_0']",['num_0'],num_0,[4],'num_0',images/min4.png,"[(0.45, 0.79)]",,,,,0,9,9,9,2,0,8,3,,,,,['num_0'],,0.0544504614081,1,['num_0'],0,[1.0706494357436895],1,2018_Jun_10_1649,59.9946835505,sequenceLearningTask,001,131,
min1.png,min2.png,min3.png,min4.png,images/allBlank.png,"['num_7', 'num_4', 'num_1', 'num_0']",['num_7'],num_7,[1],'num_7',images/min1.png,"[(0.45, 0.79)]",,,,,0,9,9,9,2,1,9,0,,,,,['num_7'],,0.054565743776,1,['num_7'],0,[1.4377755897585303],1,2018_Jun_10_1649,59.9946835505,sequenceLearningTask,001,131,
min1.png,min2.png,min3.png,min4.png,images/allBlank.png,"['num_7', 'num_4', 'num_1', 'num_0']",['num_1'],num_1,[3],'num_1',images/min3.png,"[(0.45, 0.79)]",,,,,0,9,9,9,2,2,10,2,,,,,['num_1'],,0.0601854359265,1,['num_1'],0,[0.8323975384701043],1,2018_Jun_10_1649,59.9946835505,sequenceLearningTask,001,131,
min1.png,min2.png,min3.png,min4.png,images/allBlank.png,"['num_7', 'num_4', 'num_1', 'num_0']",['num_4'],num_4,[2],'num_4',images/min2.png,"[(0.45, 0.79)]",,,,,0,9,9,9,2,3,11,1,,,,,['num_4'],,0.0525969231967,0,"['num_7', 'num_4']",0,"[1.422690051374957, 2.172468923032284]",0,2018_Jun_10_1649,59.9946835505,sequenceLearningTask,001,131,
min1.png,min2.png,min3.png,min4.png,images/allBlank.png,"['num_7', 'num_4', 'num_1', 'num_0']",['num_0'],num_0,[4],'num_0',images/min4.png,"[(0.45, 0.79)]",,,,,0,9,9,9,3,0,12,3,,,,,['num_0'],,0.0510379488114,0,"['num_1', 'num_0']",0,"[0.9235774357803166, 0.9412385639734566]",0,2018_Jun_10_1649,59.9946835505,sequenceLearningTask,001,131,
min1.png,min2.png,min3.png,min4.png,images/allBlank.png,"['num_7', 'num_4', 'num_1', 'num_0']",['num_7'],num_7,[1],'num_7',images/min1.png,"[(0.45, 0.79)]",,,,,0,9,9,9,3,1,13,0,,,,,['num_7'],,0.0512529229745,0,"['num_0', 'num_7']",0,"[0.00021415366791188717, 0.8574613332748413]",0,2018_Jun_10_1649,59.9946835505,sequenceLearningTask,001,131,
min1.png,min2.png,min3.png,min4.png,images/allBlank.png,"['num_7', 'num_4', 'num_1', 'num_0']",['num_4'],num_4,[2],'num_4',images/min2.png,"[(0.45, 0.79)]",,,,,0,9,9,9,3,2,14,1,,,,,['num_4'],,0.0505563076586,1,['num_4'],0,[0.6747651281766593],1,2018_Jun_10_1649,59.9946835505,sequenceLearningTask,001,131,
min1.png,min2.png,min3.png,min4.png,images/allBlank.png,"['num_7', 'num_4', 'num_1', 'num_0']",['num_1'],num_1,[3],'num_1',images/min3.png,"[(0.45, 0.79)]",,,,,0,9,9,9,3,3,15,2,,,,,['num_1'],,0.0492627692875,1,['num_1'],0,[1.2765210254583508],1,2018_Jun_10_1649,59.9946835505,sequenceLearningTask,001,131,
min1.png,min2.png,min3.png,min4.png,images/allBlank.png,"['num_7', 'num_4', 'num_1', 'num_0']",['num_4'],num_4,[2],'num_4',images/min2.png,"[(0.45, 0.79)]",,,,,0,9,9,9,4,0,16,1,,,,,['num_4'],,0.0576582564972,0,"['num_7', 'num_4']",0,"[1.0017111795023084, 1.9517784614581615]",0,2018_Jun_10_1649,59.9946835505,sequenceLearningTask,001,131,
min1.png,min2.png,min3.png,min4.png,images/allBlank.png,"['num_7', 'num_4', 'num_1', 'num_0']",['num_0'],num_0,[4],'num_0',images/min4.png,"[(0.45, 0.79)]",,,,,0,9,9,9,4,1,17,3,,,,,['num_0'],,0.0492890255991,1,['num_0'],0,[0.4592422563582659],1,2018_Jun_10_1649,59.9946835505,sequenceLearningTask,001,131,
min1.png,min2.png,min3.png,min4.png,images/allBlank.png,"['num_7', 'num_4', 'num_1', 'num_0']",['num_1'],num_1,[3],'num_1',images/min3.png,"[(0.45, 0.79)]",,,,,0,9,9,9,4,2,18,2,,,,,['num_1'],,0.0512340513524,1,['num_1'],0,[0.7742178461048752],1,2018_Jun_10_1649,59.9946835505,sequenceLearningTask,001,131,
min1.png,min2.png,min3.png,min4.png,images/allBlank.png,"['num_7', 'num_4', 'num_1', 'num_0']",['num_7'],num_7,[1],'num_7',images/min1.png,"[(0.45, 0.79)]",,,,,0,9,9,9,4,3,19,0,,,,,['num_7'],,0.058613743633,1,['num_7'],0,[0.6821936410851777],1,2018_Jun_10_1649,59.9946835505,sequenceLearningTask,001,131,
min1.png,min2.png,min3.png,min4.png,images/allBlank.png,"['num_7', 'num_4', 'num_1', 'num_0']",['num_1'],num_1,[3],'num_1',images/min3.png,"[(0.45, 0.79)]",,,,,0,9,9,9,5,0,20,2,,,,,['num_1'],,0.0491052307189,1,['num_1'],0,[0.6609058461617678],1,2018_Jun_10_1649,59.9946835505,sequenceLearningTask,001,131,
min1.png,min2.png,min3.png,min4.png,images/allBlank.png,"['num_7', 'num_4', 'num_1', 'num_0']",['num_0'],num_0,[4],'num_0',images/min4.png,"[(0.45, 0.79)]",,,,,0,9,9,9,5,1,21,3,,,,,['num_0'],,0.0528964102268,1,['num_0'],0,[0.48964225640520453],1,2018_Jun_10_1649,59.9946835505,sequenceLearningTask,001,131,
min1.png,min2.png,min3.png,min4.png,images/allBlank.png,"['num_7', 'num_4', 'num_1', 'num_0']",['num_4'],num_4,[2],'num_4',images/min2.png,"[(0.45, 0.79)]",,,,,0,9,9,9,5,2,22,1,,,,,['num_4'],,0.0531991794705,1,['num_4'],0,[0.6224742564372718],1,2018_Jun_10_1649,59.9946835505,sequenceLearningTask,001,131,
min1.png,min2.png,min3.png,min4.png,images/allBlank.png,"['num_7', 'num_4', 'num_1', 'num_0']",['num_7'],num_7,[1],'num_7',images/min1.png,"[(0.45, 0.79)]",,,,,0,9,9,9,5,3,23,0,,,,,['num_7'],,0.0500549743883,1,['num_7'],0,[0.7096549742855132],1,2018_Jun_10_1649,59.9946835505,sequenceLearningTask,001,131,
min1.png,min2.png,min3.png,min4.png,images/allBlank.png,"['num_7', 'num_4', 'num_1', 'num_0']",['num_4'],num_4,[2],'num_4',images/min2.png,"[(0.45, 0.79)]",,,,,0,9,9,9,6,0,24,1,,,,,['num_4'],,0.0569029743783,0,"['num_1', 'num_4']",0,"[0.6677370255347341, 0.7177296408917755]",0,2018_Jun_10_1649,59.9946835505,sequenceLearningTask,001,131,
min1.png,min2.png,min3.png,min4.png,images/allBlank.png,"['num_7', 'num_4', 'num_1', 'num_0']",['num_0'],num_0,[4],'num_0',images/min4.png,"[(0.45, 0.79)]",,,,,0,9,9,9,6,1,25,3,,,,,['num_0'],,0.0603056410328,0,"['num_7', 'num_0']",0,"[0.0002256410662084818, 1.0147429744247347]",0,2018_Jun_10_1649,59.9946835505,sequenceLearningTask,001,131,
min1.png,min2.png,min3.png,min4.png,images/allBlank.png,"['num_7', 'num_4', 'num_1', 'num_0']",['num_1'],num_1,[3],'num_1',images/min3.png,"[(0.45, 0.79)]",,,,,0,9,9,9,6,2,26,2,,,,,['num_1'],,0.0533924100455,1,['num_1'],0,[0.8896053333301097],1,2018_Jun_10_1649,59.9946835505,sequenceLearningTask,001,131,
min1.png,min2.png,min3.png,min4.png,images/allBlank.png,"['num_7', 'num_4', 'num_1', 'num_0']",['num_7'],num_7,[1],'num_7',images/min1.png,"[(0.45, 0.79)]",,,,,0,9,9,9,6,3,27,0,,,,,['num_7'],,0.0601878974121,1,['num_7'],0,[0.7314235896337777],1,2018_Jun_10_1649,59.9946835505,sequenceLearningTask,001,131,
min1.png,min2.png,min3.png,min4.png,images/allBlank.png,"['num_7', 'num_4', 'num_1', 'num_0']",['num_7'],num_7,[1],'num_7',images/min1.png,"[(0.45, 0.79)]",,,,,0,9,9,9,7,0,28,0,,,,,['num_7'],,0.054137025727,1,['num_7'],0,[1.071758358972147],1,2018_Jun_10_1649,59.9946835505,sequenceLearningTask,001,131,
min1.png,min2.png,min3.png,min4.png,images/allBlank.png,"['num_7', 'num_4', 'num_1', 'num_0']",['num_0'],num_0,[4],'num_0',images/min4.png,"[(0.45, 0.79)]",,,,,0,9,9,9,7,1,29,3,,,,,['num_0'],,0.0518145640381,1,['num_0'],0,[1.0391819486394525],1,2018_Jun_10_1649,59.9946835505,sequenceLearningTask,001,131,
min1.png,min2.png,min3.png,min4.png,images/allBlank.png,"['num_7', 'num_4', 'num_1', 'num_0']",['num_4'],num_4,[2],'num_4',images/min2.png,"[(0.45, 0.79)]",,,,,0,9,9,9,7,2,30,1,,,,,['num_4'],,0.0574592819903,0,"['num_0', 'num_7', 'num_4', 'num_1', 'num_4']",0,"[0.0004073847085237503, 0.5020254359114915, 1.0022363075986505, 1.7682162050623447]",0,2018_Jun_10_1649,59.9946835505,sequenceLearningTask,001,131,
min1.png,min2.png,min3.png,min4.png,images/allBlank.png,"['num_7', 'num_4', 'num_1', 'num_0']",['num_1'],num_1,[3],'num_1',images/min3.png,"[(0.45, 0.79)]",,,,,0,9,9,9,7,3,31,2,,,,,['num_1'],,0.0500512819272,0,"['num_0', 'num_7', 'num_4', 'num_1']",0,"[0.00023753847926855087, 0.10842666658572853, 0.7754281025845557, 1.1584217436611652]",0,2018_Jun_10_1649,59.9946835505,sequenceLearningTask,001,131,
min1.png,min2.png,min3.png,min4.png,images/allBlank.png,"['num_7', 'num_4', 'num_1', 'num_0']",['num_0'],num_0,[4],'num_0',images/min4.png,"[(0.45, 0.79)]",,,,,0,9,9,9,8,0,32,3,,,,,['num_0'],,0.0558814357501,0,"['num_1', 'num_0']",0,"[0.00020184624008834362, 0.8368385641369969]",0,2018_Jun_10_1649,59.9946835505,sequenceLearningTask,001,131,
min1.png,min2.png,min3.png,min4.png,images/allBlank.png,"['num_7', 'num_4', 'num_1', 'num_0']",['num_7'],num_7,[1],'num_7',images/min1.png,"[(0.45, 0.79)]",,,,,0,9,9,9,8,1,33,0,,,,,['num_7'],,0.0229526155163,1,['num_7'],0,[0.8066982564050704],1,2018_Jun_10_1649,59.9946835505,sequenceLearningTask,001,131,
min1.png,min2.png,min3.png,min4.png,images/allBlank.png,"['num_7', 'num_4', 'num_1', 'num_0']",['num_1'],num_1,[3],'num_1',images/min3.png,"[(0.45, 0.79)]",,,,,0,9,9,9,8,2,34,2,,,,,['num_1'],,0.0557357950602,1,['num_1'],0,[0.3373275897465646],1,2018_Jun_10_1649,59.9946835505,sequenceLearningTask,001,131,
min1.png,min2.png,min3.png,min4.png,images/allBlank.png,"['num_7', 'num_4', 'num_1', 'num_0']",['num_4'],num_4,[2],'num_4',images/min2.png,"[(0.45, 0.79)]",,,,,0,9,9,9,8,3,35,1,,,,,['num_4'],,0.0551269743592,0,"['num_7', 'num_4']",0,"[0.8706424615811557, 3.6043126152362674]",0,2018_Jun_10_1649,59.9946835505,sequenceLearningTask,001,131,
min1.png,min2.png,min3.png,min4.png,images/allBlank.png,"['num_7', 'num_4', 'num_1', 'num_0']",['num_1'],num_1,[3],'num_1',images/min3.png,"[(0.45, 0.79)]",,,,,0,9,9,9,9,0,36,2,,,,,['num_1'],,0.0594871793874,1,['num_1'],0,[0.9823692308273166],1,2018_Jun_10_1649,59.9946835505,sequenceLearningTask,001,131,
min1.png,min2.png,min3.png,min4.png,images/allBlank.png,"['num_7', 'num_4', 'num_1', 'num_0']",['num_4'],num_4,[2],'num_4',images/min2.png,"[(0.45, 0.79)]",,,,,0,9,9,9,9,1,37,1,,,,,['num_4'],,0.0525325126946,0,"['num_7', 'num_4']",0,"[0.0002305640373378992, 0.0730342564638704]",0,2018_Jun_10_1649,59.9946835505,sequenceLearningTask,001,131,
min1.png,min2.png,min3.png,min4.png,images/allBlank.png,"['num_7', 'num_4', 'num_1', 'num_0']",['num_0'],num_0,[4],'num_0',images/min4.png,"[(0.45, 0.79)]",,,,,0,9,9,9,9,2,38,3,,,,,['num_0'],,0.0589226665907,0,"['num_1', 'num_1', 'num_1', 'num_7', 'num_0']",0,"[0.0005509743932634592, 1.2165304615627974, 2.0994231794029474]",0,2018_Jun_10_1649,59.9946835505,sequenceLearningTask,001,131,
min1.png,min2.png,min3.png,min4.png,images/allBlank.png,"['num_7', 'num_4', 'num_1', 'num_0']",['num_7'],num_7,[1],'num_7',images/min1.png,"[(0.45, 0.79)]",,,,,0,9,9,9,9,3,39,0,,,,,['num_7'],,0.0500910768751,0,"['num_4', 'num_0', 'num_4', 'num_4', 'num_4', 'num_4', 'num_4', 'num_7']",0,"[0.0002157948911190033, 1.0261288206093013, 1.2929087181109935, 2.258050872012973, 3.141947897616774, 3.3917230770457536, 5.459917948814109, 6.257153230952099]",0,2018_Jun_10_1649,59.9946835505,sequenceLearningTask,001,131,
min1.png,min2.png,min3.png,min4.png,images/allBlank.png,"['num_7', 'num_4', 'num_1', 'num_0']",['num_0'],num_0,[4],'num_0',images/min4.png,"[(0.45, 0.79)]",,,,,0,9,9,9,10,0,40,3,,,,,['num_0'],,0.0573407178745,1,['num_0'],0,[0.868561641080305],1,2018_Jun_10_1649,59.9946835505,sequenceLearningTask,001,131,
min1.png,min2.png,min3.png,min4.png,images/allBlank.png,"['num_7', 'num_4', 'num_1', 'num_0']",['num_1'],num_1,[3],'num_1',images/min3.png,"[(0.45, 0.79)]",,,,,0,9,9,9,10,1,41,2,,,,,['num_1'],,0.0498108717147,1,['num_1'],0,[1.0592328205239028],1,2018_Jun_10_1649,59.9946835505,sequenceLearningTask,001,131,
min1.png,min2.png,min3.png,min4.png,images/allBlank.png,"['num_7', 'num_4', 'num_1', 'num_0']",['num_4'],num_4,[2],'num_4',images/min2.png,"[(0.45, 0.79)]",,,,,0,9,9,9,10,2,42,1,,,,,['num_4'],,0.0515548717231,1,['num_4'],0,[1.1753382564056665],1,2018_Jun_10_1649,59.9946835505,sequenceLearningTask,001,131,
min1.png,min2.png,min3.png,min4.png,images/allBlank.png,"['num_7', 'num_4', 'num_1', 'num_0']",['num_7'],num_7,[1],'num_7',images/min1.png,"[(0.45, 0.79)]",,,,,0,9,9,9,10,3,43,0,,,,,['num_7'],,0.0546194871422,1,['num_7'],0,[1.2373874871991575],1,2018_Jun_10_1649,59.9946835505,sequenceLearningTask,001,131,
min1.png,min2.png,min3.png,min4.png,images/allBlank.png,"['num_7', 'num_4', 'num_1', 'num_0']",['num_4'],num_4,[2],'num_4',images/min2.png,"[(0.45, 0.79)]",,,,,0,9,9,9,11,0,44,1,,,,,['num_4'],,0.0529214357957,1,['num_4'],0,[0.6728020512964576],1,2018_Jun_10_1649,59.9946835505,sequenceLearningTask,001,131,
min1.png,min2.png,min3.png,min4.png,images/allBlank.png,"['num_7', 'num_4', 'num_1', 'num_0']",['num_0'],num_0,[4],'num_0',images/min4.png,"[(0.45, 0.79)]",,,,,0,9,9,9,11,1,45,3,,,,,['num_0'],,0.0533632820006,1,['num_0'],0,[0.9898666667286307],1,2018_Jun_10_1649,59.9946835505,sequenceLearningTask,001,131,
min1.png,min2.png,min3.png,min4.png,images/allBlank.png,"['num_7', 'num_4', 'num_1', 'num_0']",['num_7'],num_7,[1],'num_7',images/min1.png,"[(0.45, 0.79)]",,,,,0,9,9,9,11,2,46,0,,,,,['num_7'],,0.0574699486606,1,['num_7'],0,[3.3685468717012554],1,2018_Jun_10_1649,59.9946835505,sequenceLearningTask,001,131,
min1.png,min2.png,min3.png,min4.png,images/allBlank.png,"['num_7', 'num_4', 'num_1', 'num_0']",['num_1'],num_1,[3],'num_1',images/min3.png,"[(0.45, 0.79)]",,,,,0,9,9,9,11,3,47,2,,,,,['num_1'],,0.056204718072,1,['num_1'],0,[3.585634461371228],1,2018_Jun_10_1649,59.9946835505,sequenceLearningTask,001,131,
min1.png,min2.png,min3.png,min4.png,images/allBlank.png,"['num_7', 'num_4', 'num_1', 'num_0']",['num_0'],num_0,[4],'num_0',images/min4.png,"[(0.45, 0.79)]",,,,,0,9,9,9,12,0,48,3,,,,,['num_0'],,0.0527076923754,1,['num_0'],0,[0.723335794871673],1,2018_Jun_10_1649,59.9946835505,sequenceLearningTask,001,131,
min1.png,min2.png,min3.png,min4.png,images/allBlank.png,"['num_7', 'num_4', 'num_1', 'num_0']",['num_4'],num_4,[2],'num_4',images/min2.png,"[(0.45, 0.79)]",,,,,0,9,9,9,12,1,49,1,,,,,['num_4'],,0.0552562051453,1,['num_4'],0,[1.3544672820717096],1,2018_Jun_10_1649,59.9946835505,sequenceLearningTask,001,131,
min1.png,min2.png,min3.png,min4.png,images/allBlank.png,"['num_7', 'num_4', 'num_1', 'num_0']",['num_1'],num_1,[3],'num_1',images/min3.png,"[(0.45, 0.79)]",,,,,0,9,9,9,12,2,50,2,,,,,['num_1'],,0.0567294359207,1,['num_1'],0,[1.101199179654941],1,2018_Jun_10_1649,59.9946835505,sequenceLearningTask,001,131,
min1.png,min2.png,min3.png,min4.png,images/allBlank.png,"['num_7', 'num_4', 'num_1', 'num_0']",['num_7'],num_7,[1],'num_7',images/min1.png,"[(0.45, 0.79)]",,,,,0,9,9,9,12,3,51,0,,,,,['num_7'],,0.0521989744157,1,['num_7'],0,[1.1234239998739213],1,2018_Jun_10_1649,59.9946835505,sequenceLearningTask,001,131,
min1.png,min2.png,min3.png,min4.png,images/allBlank.png,"['num_7', 'num_4', 'num_1', 'num_0']",['num_0'],num_0,[4],'num_0',images/min4.png,"[(0.45, 0.79)]",,,,,0,9,9,9,13,0,52,3,,,,,['num_0'],,0.052897230722,1,['num_0'],0,[1.0396221538539976],1,2018_Jun_10_1649,59.9946835505,sequenceLearningTask,001,131,
min1.png,min2.png,min3.png,min4.png,images/allBlank.png,"['num_7', 'num_4', 'num_1', 'num_0']",['num_1'],num_1,[3],'num_1',images/min3.png,"[(0.45, 0.79)]",,,,,0,9,9,9,13,1,53,2,,,,,['num_1'],,0.0566457435489,1,['num_1'],0,[1.4017042049672455],1,2018_Jun_10_1649,59.9946835505,sequenceLearningTask,001,131,
min1.png,min2.png,min3.png,min4.png,images/allBlank.png,"['num_7', 'num_4', 'num_1', 'num_0']",['num_4'],num_4,[2],'num_4',images/min2.png,"[(0.45, 0.79)]",,,,,0,9,9,9,13,2,54,1,,,,,['num_4'],,0.0517829742748,1,['num_4'],0,[0.6916533333715051],1,2018_Jun_10_1649,59.9946835505,sequenceLearningTask,001,131,
min1.png,min2.png,min3.png,min4.png,images/allBlank.png,"['num_7', 'num_4', 'num_1', 'num_0']",['num_7'],num_7,[1],'num_7',images/min1.png,"[(0.45, 0.79)]",,,,,0,9,9,9,13,3,55,0,,,,,['num_7'],,0.0642186668701,1,['num_7'],0,[0.8938482052180916],1,2018_Jun_10_1649,59.9946835505,sequenceLearningTask,001,131,
min1.png,min2.png,min3.png,min4.png,images/allBlank.png,"['num_7', 'num_4', 'num_1', 'num_0']",['num_0'],num_0,[4],'num_0',images/min4.png,"[(0.45, 0.79)]",,,,,0,9,9,9,14,0,56,3,,,,,['num_0'],,0.0595253333449,1,['num_0'],0,[0.8478929230477661],1,2018_Jun_10_1649,59.9946835505,sequenceLearningTask,001,131,
min1.png,min2.png,min3.png,min4.png,images/allBlank.png,"['num_7', 'num_4', 'num_1', 'num_0']",['num_4'],num_4,[2],'num_4',images/min2.png,"[(0.45, 0.79)]",,,,,0,9,9,9,14,1,57,1,,,,,['num_4'],,0.0525653334334,1,['num_4'],0,[0.8899163077585399],1,2018_Jun_10_1649,59.9946835505,sequenceLearningTask,001,131,
min1.png,min2.png,min3.png,min4.png,images/allBlank.png,"['num_7', 'num_4', 'num_1', 'num_0']",['num_1'],num_1,[3],'num_1',images/min3.png,"[(0.45, 0.79)]",,,,,0,9,9,9,14,2,58,2,,,,,['num_1'],,0.0505796922371,0,"['num_7', 'num_1']",0,"[11.27417476917617, 12.157049435889348]",0,2018_Jun_10_1649,59.9946835505,sequenceLearningTask,001,131,
min1.png,min2.png,min3.png,min4.png,images/allBlank.png,"['num_7', 'num_4', 'num_1', 'num_0']",['num_7'],num_7,[1],'num_7',images/min1.png,"[(0.45, 0.79)]",,,,,0,9,9,9,14,3,59,0,,,,,['num_7'],,0.0529042051639,1,['num_7'],0,[1.4890941537451],1,2018_Jun_10_1649,59.9946835505,sequenceLearningTask,001,131,
min1.png,min2.png,min3.png,min4.png,images/allBlank.png,"['num_7', 'num_4', 'num_1', 'num_0']",['num_1'],num_1,[3],'num_1',images/min3.png,"[(0.45, 0.79)]",,,,,0,9,9,9,15,0,60,2,,,,,['num_1'],,0.0460734358057,1,['num_1'],0,[1.080314666731283],1,2018_Jun_10_1649,59.9946835505,sequenceLearningTask,001,131,
min1.png,min2.png,min3.png,min4.png,images/allBlank.png,"['num_7', 'num_4', 'num_1', 'num_0']",['num_0'],num_0,[4],'num_0',images/min4.png,"[(0.45, 0.79)]",,,,,0,9,9,9,15,1,61,3,,,,,['num_0'],,0.0528681024443,0,"['num_1', 'num_0']",0,"[0.6733522051945329, 4.589459282113239]",0,2018_Jun_10_1649,59.9946835505,sequenceLearningTask,001,131,
min1.png,min2.png,min3.png,min4.png,images/allBlank.png,"['num_7', 'num_4', 'num_1', 'num_0']",['num_7'],num_7,[1],'num_7',images/min1.png,"[(0.45, 0.79)]",,,,,0,9,9,9,15,2,62,0,,,,,['num_7'],,0.0582166153472,1,['num_7'],0,[1.0168467692565173],1,2018_Jun_10_1649,59.9946835505,sequenceLearningTask,001,131,
min1.png,min2.png,min3.png,min4.png,images/allBlank.png,"['num_7', 'num_4', 'num_1', 'num_0']",['num_4'],num_4,[2],'num_4',images/min2.png,"[(0.45, 0.79)]",,,,,0,9,9,9,15,3,63,1,,,,,['num_4'],,0.0521985641681,1,['num_4'],0,[18.453946666792035],1,2018_Jun_10_1649,59.9946835505,sequenceLearningTask,001,131,
min1.png,min2.png,min3.png,min4.png,images/allBlank.png,"['num_7', 'num_4', 'num_1', 'num_0']",['num_1'],num_1,[3],'num_1',images/min3.png,"[(0.45, 0.79)]",,,,,0,9,9,9,16,0,64,2,,,,,['num_1'],,0.0503048205283,1,['num_1'],0,[0.7584529230371118],1,2018_Jun_10_1649,59.9946835505,sequenceLearningTask,001,131,
min1.png,min2.png,min3.png,min4.png,images/allBlank.png,"['num_7', 'num_4', 'num_1', 'num_0']",['num_7'],num_7,[1],'num_7',images/min1.png,"[(0.45, 0.79)]",,,,,0,9,9,9,16,1,65,0,,,,,['num_7'],,0.0516730255913,1,['num_7'],0,[0.7728242049925029],1,2018_Jun_10_1649,59.9946835505,sequenceLearningTask,001,131,
min1.png,min2.png,min3.png,min4.png,images/allBlank.png,"['num_7', 'num_4', 'num_1', 'num_0']",['num_0'],num_0,[4],'num_0',images/min4.png,"[(0.45, 0.79)]",,,,,0,9,9,9,16,2,66,3,,,,,['num_0'],,0.0569571279921,1,['num_0'],0,[6.054225640837103],1,2018_Jun_10_1649,59.9946835505,sequenceLearningTask,001,131,
min1.png,min2.png,min3.png,min4.png,images/allBlank.png,"['num_7', 'num_4', 'num_1', 'num_0']",['num_4'],num_4,[2],'num_4',images/min2.png,"[(0.45, 0.79)]",,,,,0,9,9,9,16,3,67,1,,,,,['num_4'],,0.0548828719184,0,"['num_0', 'num_4']",0,"[0.8703470770269632, 0.9040709743276238]",0,2018_Jun_10_1649,59.9946835505,sequenceLearningTask,001,131,
min1.png,min2.png,min3.png,min4.png,images/allBlank.png,"['num_7', 'num_4', 'num_1', 'num_0']",['num_0'],num_0,[4],'num_0',images/min4.png,"[(0.45, 0.79)]",,,,,0,9,9,9,17,0,68,3,,,,,['num_0'],,0.051547897514,1,['num_0'],0,[0.5078469743020833],1,2018_Jun_10_1649,59.9946835505,sequenceLearningTask,001,131,
min1.png,min2.png,min3.png,min4.png,images/allBlank.png,"['num_7', 'num_4', 'num_1', 'num_0']",['num_1'],num_1,[3],'num_1',images/min3.png,"[(0.45, 0.79)]",,,,,0,9,9,9,17,1,69,2,,,,,['num_1'],,0.0575437948573,1,['num_1'],0,[0.8178043076768517],1,2018_Jun_10_1649,59.9946835505,sequenceLearningTask,001,131,
min1.png,min2.png,min3.png,min4.png,images/allBlank.png,"['num_7', 'num_4', 'num_1', 'num_0']",['num_7'],num_7,[1],'num_7',images/min1.png,"[(0.45, 0.79)]",,,,,0,9,9,9,17,2,70,0,,,,,['num_7'],,0.0579622562509,1,['num_7'],0,[0.7844861538615078],1,2018_Jun_10_1649,59.9946835505,sequenceLearningTask,001,131,
min1.png,min2.png,min3.png,min4.png,images/allBlank.png,"['num_7', 'num_4', 'num_1', 'num_0']",['num_4'],num_4,[2],'num_4',images/min2.png,"[(0.45, 0.79)]",,,,,0,9,9,9,17,3,71,1,,,,,['num_4'],,0.0571819485631,1,['num_4'],0,[0.8352652308531106],1,2018_Jun_10_1649,59.9946835505,sequenceLearningTask,001,131,
min1.png,min2.png,min3.png,min4.png,images/allBlank.png,"['num_7', 'num_4', 'num_1', 'num_0']",['num_0'],num_0,[4],'num_0',images/min4.png,"[(0.45, 0.79)]",,,,,0,9,9,9,18,0,72,3,,,,,['num_0'],,0.0475528205279,1,['num_0'],0,[0.9297017436474562],1,2018_Jun_10_1649,59.9946835505,sequenceLearningTask,001,131,
min1.png,min2.png,min3.png,min4.png,images/allBlank.png,"['num_7', 'num_4', 'num_1', 'num_0']",['num_1'],num_1,[3],'num_1',images/min3.png,"[(0.45, 0.79)]",,,,,0,9,9,9,18,1,73,2,,,,,['num_1'],,0.0543688205071,1,['num_1'],0,[1.0877710769418627],1,2018_Jun_10_1649,59.9946835505,sequenceLearningTask,001,131,
min1.png,min2.png,min3.png,min4.png,images/allBlank.png,"['num_7', 'num_4', 'num_1', 'num_0']",['num_7'],num_7,[1],'num_7',images/min1.png,"[(0.45, 0.79)]",,,,,0,9,9,9,18,2,74,0,,,,,['num_7'],,0.0547437949572,1,['num_7'],0,[0.8707388718612492],1,2018_Jun_10_1649,59.9946835505,sequenceLearningTask,001,131,
min1.png,min2.png,min3.png,min4.png,images/allBlank.png,"['num_7', 'num_4', 'num_1', 'num_0']",['num_4'],num_4,[2],'num_4',images/min2.png,"[(0.45, 0.79)]",,,,,0,9,9,9,18,3,75,1,,,,,['num_4'],,0.0490990770049,1,['num_4'],0,[0.8597616411279887],1,2018_Jun_10_1649,59.9946835505,sequenceLearningTask,001,131,
min1.png,min2.png,min3.png,min4.png,images/allBlank.png,"['num_7', 'num_4', 'num_1', 'num_0']",['num_1'],num_1,[3],'num_1',images/min3.png,"[(0.45, 0.79)]",,,,,0,9,9,9,19,0,76,2,,,,,['num_1'],,0.0562248204369,1,['num_1'],0,[0.7854026667773724],1,2018_Jun_10_1649,59.9946835505,sequenceLearningTask,001,131,
min1.png,min2.png,min3.png,min4.png,images/allBlank.png,"['num_7', 'num_4', 'num_1', 'num_0']",['num_0'],num_0,[4],'num_0',images/min4.png,"[(0.45, 0.79)]",,,,,0,9,9,9,19,1,77,3,,,,,['num_0'],,0.0554662565701,1,['num_0'],0,[0.8201435897499323],1,2018_Jun_10_1649,59.9946835505,sequenceLearningTask,001,131,
min1.png,min2.png,min3.png,min4.png,images/allBlank.png,"['num_7', 'num_4', 'num_1', 'num_0']",['num_7'],num_7,[1],'num_7',images/min1.png,"[(0.45, 0.79)]",,,,,0,9,9,9,19,2,78,0,,,,,['num_7'],,0.0607749742921,1,['num_7'],0,[0.7301439999137074],1,2018_Jun_10_1649,59.9946835505,sequenceLearningTask,001,131,
min1.png,min2.png,min3.png,min4.png,images/allBlank.png,"['num_7', 'num_4', 'num_1', 'num_0']",['num_4'],num_4,[2],'num_4',images/min2.png,"[(0.45, 0.79)]",,,,,0,9,9,9,19,3,79,1,,,,,['num_4'],,0.0508984616026,1,['num_4'],0,[0.7081714873202145],1,2018_Jun_10_1649,59.9946835505,sequenceLearningTask,001,131,
min1.png,min2.png,min3.png,min4.png,allBlank.png,,['num_7'],,,,,,,,,,0,0,0,0,,,,,,,,,['num_7'],1,0.0592996922787,1,['num_7'],0,[0.48698215396143496],,2018_Jun_10_1649,59.9946835505,sequenceLearningTask,001,131,
min1.png,min2.png,min3.png,min4.png,allBlank.png,,['num_1'],,,,,,,,,,0,0,0,0,,,,,,,,,['num_1'],1,0.0549612308387,1,['num_1'],0,[0.8053185641765594],,2018_Jun_10_1649,59.9946835505,sequenceLearningTask,001,131,
min1.png,min2.png,min3.png,min4.png,allBlank.png,,['num_4'],,,,,,,,,,0,0,0,0,,,,,,,,,['num_4'],1,0.0527745638974,1,['num_4'],0,[1.058456615312025],,2018_Jun_10_1649,59.9946835505,sequenceLearningTask,001,131,
min1.png,min2.png,min3.png,min4.png,allBlank.png,,['num_0'],,,,,,,,,,0,0,0,0,,,,,,,,,['num_0'],1,0.0579429743811,1,['num_0'],0,[0.9865673845633864],,2018_Jun_10_1649,59.9946835505,sequenceLearningTask,001,131,
min1.png,min2.png,min3.png,min4.png,allBlank.png,,['num_0'],,,,,,,,,,0,0,0,0,,,,,,,,,['num_0'],1,0.0582350769546,1,['num_0'],0,[2.686537845991552],,2018_Jun_10_1649,59.9946835505,sequenceLearningTask,001,131,
min1.png,min2.png,min3.png,min4.png,allBlank.png,,['num_4'],,,,,,,,,,0,0,0,0,,,,,,,,,['num_4'],1,0.0546539486386,1,['num_4'],0,[0.822921846061945],,2018_Jun_10_1649,59.9946835505,sequenceLearningTask,001,131,
min1.png,min2.png,min3.png,min4.png,allBlank.png,,['num_1'],,,,,,,,,,0,0,0,0,,,,,,,,,['num_1'],1,0.0551782564726,1,['num_1'],0,[0.7899991795420647],,2018_Jun_10_1649,59.9946835505,sequenceLearningTask,001,131,
min1.png,min2.png,min3.png,min4.png,allBlank.png,,['num_0'],,,,,,,,,,0,0,0,0,,,,,,,,,['num_0'],1,0.053404717939,1,['num_0'],0,[0.4905107691884041],,2018_Jun_10_1649,59.9946835505,sequenceLearningTask,001,131,
min1.png,min2.png,min3.png,min4.png,allBlank.png,,['num_7'],,,,,,,,,,0,1,1,1,,,,,,,,,['num_7'],2,0.122597743757,1,['num_7'],0,[0.7535446155816317],,2018_Jun_10_1649,59.9946835505,sequenceLearningTask,001,131,
min1.png,min2.png,min3.png,min4.png,allBlank.png,,['num_1'],,,,,,,,,,0,1,1,1,,,,,,,,,['num_1'],2,0.0552430769894,1,['num_1'],0,[0.9889189742971212],,2018_Jun_10_1649,59.9946835505,sequenceLearningTask,001,131,
min1.png,min2.png,min3.png,min4.png,allBlank.png,,['num_4'],,,,,,,,,,0,1,1,1,,,,,,,,,['num_4'],2,0.0561456410214,1,['num_4'],0,[0.7881357949227095],,2018_Jun_10_1649,59.9946835505,sequenceLearningTask,001,131,
min1.png,min2.png,min3.png,min4.png,allBlank.png,,['num_0'],,,,,,,,,,0,1,1,1,,,,,,,,,['num_0'],2,0.0543089229614,1,['num_0'],0,[0.5748422564938664],,2018_Jun_10_1649,59.9946835505,sequenceLearningTask,001,131,
min1.png,min2.png,min3.png,min4.png,allBlank.png,,['num_0'],,,,,,,,,,0,1,1,1,,,,,,,,,['num_0'],2,0.0665136410389,1,['num_0'],0,[0.5774252307601273],,2018_Jun_10_1649,59.9946835505,sequenceLearningTask,001,131,
min1.png,min2.png,min3.png,min4.png,allBlank.png,,['num_4'],,,,,,,,,,0,1,1,1,,,,,,,,,['num_4'],2,0.0546416409779,1,['num_4'],0,[0.8393558976240456],,2018_Jun_10_1649,59.9946835505,sequenceLearningTask,001,131,
min1.png,min2.png,min3.png,min4.png,allBlank.png,,['num_1'],,,,,,,,,,0,1,1,1,,,,,,,,,['num_1'],2,0.0613132307772,1,['num_1'],0,[0.9657632820308208],,2018_Jun_10_1649,59.9946835505,sequenceLearningTask,001,131,
min1.png,min2.png,min3.png,min4.png,allBlank.png,,['num_0'],,,,,,,,,,0,1,1,1,,,,,,,,,['num_0'],2,0.0561575384345,1,['num_0'],0,[0.7054047179408371],,2018_Jun_10_1649,59.9946835505,sequenceLearningTask,001,131,
min1.png,min2.png,min3.png,min4.png,allBlank.png,,['num_7'],,,,,,,,,,0,2,2,2,,,,,,,,,['num_7'],3,0.0553948718589,1,['num_7'],0,[0.8706428718287498],,2018_Jun_10_1649,59.9946835505,sequenceLearningTask,001,131,
min1.png,min2.png,min3.png,min4.png,allBlank.png,,['num_1'],,,,,,,,,,0,2,2,2,,,,,,,,,['num_1'],3,0.0568250257056,1,['num_1'],0,[0.6215200000442564],,2018_Jun_10_1649,59.9946835505,sequenceLearningTask,001,131,
min1.png,min2.png,min3.png,min4.png,allBlank.png,,['num_4'],,,,,,,,,,0,2,2,2,,,,,,,,,['num_4'],3,0.0566687181126,1,['num_4'],0,[1.7375663588754833],,2018_Jun_10_1649,59.9946835505,sequenceLearningTask,001,131,
min1.png,min2.png,min3.png,min4.png,allBlank.png,,['num_0'],,,,,,,,,,0,2,2,2,,,,,,,,,['num_0'],3,0.0563044103328,1,['num_0'],0,[0.8721677949652076],,2018_Jun_10_1649,59.9946835505,sequenceLearningTask,001,131,
min1.png,min2.png,min3.png,min4.png,allBlank.png,,['num_0'],,,,,,,,,,0,2,2,2,,,,,,,,,['num_0'],3,0.0484615385067,1,['num_0'],0,[1.379963897401467],,2018_Jun_10_1649,59.9946835505,sequenceLearningTask,001,131,
min1.png,min2.png,min3.png,min4.png,allBlank.png,,['num_4'],,,,,,,,,,0,2,2,2,,,,,,,,,['num_4'],3,0.0543146666605,1,['num_4'],0,[3.540346256457269],,2018_Jun_10_1649,59.9946835505,sequenceLearningTask,001,131,
min1.png,min2.png,min3.png,min4.png,allBlank.png,,['num_1'],,,,,,,,,,0,2,2,2,,,,,,,,,['num_1'],3,0.0498079999816,1,['num_1'],0,[1.5619351796340197],,2018_Jun_10_1649,59.9946835505,sequenceLearningTask,001,131,
min1.png,min2.png,min3.png,min4.png,allBlank.png,,['num_0'],,,,,,,,,,0,2,2,2,,,,,,,,,['num_0'],3,0.0511056410614,1,['num_0'],0,[1.711184410378337],,2018_Jun_10_1649,59.9946835505,sequenceLearningTask,001,131,
min1.png,min2.png,min3.png,min4.png,allBlank.png,,['num_7'],,,,,,,,,,0,3,3,3,,,,,,,,,['num_7'],4,0.0566129230428,1,['num_7'],0,[1.6027926153037697],,2018_Jun_10_1649,59.9946835505,sequenceLearningTask,001,131,
min1.png,min2.png,min3.png,min4.png,allBlank.png,,['num_1'],,,,,,,,,,0,3,3,3,,,,,,,,,['num_1'],4,0.0538547693286,1,['num_1'],0,[0.6406678976491094],,2018_Jun_10_1649,59.9946835505,sequenceLearningTask,001,131,
min1.png,min2.png,min3.png,min4.png,allBlank.png,,['num_4'],,,,,,,,,,0,3,3,3,,,,,,,,,['num_4'],4,0.0545796921942,1,['num_4'],0,[0.8224676924291998],,2018_Jun_10_1649,59.9946835505,sequenceLearningTask,001,131,
min1.png,min2.png,min3.png,min4.png,allBlank.png,,['num_0'],,,,,,,,,,0,3,3,3,,,,,,,,,['num_0'],4,0.0541870768648,1,['num_0'],0,[1.2569505642168224],,2018_Jun_10_1649,59.9946835505,sequenceLearningTask,001,131,
min1.png,min2.png,min3.png,min4.png,allBlank.png,,['num_0'],,,,,,,,,,0,3,3,3,,,,,,,,,['num_0'],4,0.0587056411896,1,['num_0'],0,[2.6694473845418543],,2018_Jun_10_1649,59.9946835505,sequenceLearningTask,001,131,
min1.png,min2.png,min3.png,min4.png,allBlank.png,,['num_4'],,,,,,,,,,0,3,3,3,,,,,,,,,['num_4'],4,0.0524402051233,1,['num_4'],0,[1.3915881025604904],,2018_Jun_10_1649,59.9946835505,sequenceLearningTask,001,131,
min1.png,min2.png,min3.png,min4.png,allBlank.png,,['num_1'],,,,,,,,,,0,3,3,3,,,,,,,,,['num_1'],4,0.0500927178655,1,['num_1'],0,[1.3111667693592608],,2018_Jun_10_1649,59.9946835505,sequenceLearningTask,001,131,
min1.png,min2.png,min3.png,min4.png,allBlank.png,,['num_0'],,,,,,,,,,0,3,3,3,,,,,,,,,['num_0'],4,0.0485382564366,0,"['num_7', 'num_0']",0,"[1.2796082051936537, 1.9603770256508142]",,2018_Jun_10_1649,59.9946835505,sequenceLearningTask,001,131,
min1.png,min2.png,min3.png,min4.png,allBlank.png,,['num_7'],,,,,,,,,,0,4,4,4,,,,,,,,,['num_7'],5,0.0508742565289,1,['num_7'],0,[1.0586666665039957],,2018_Jun_10_1649,59.9946835505,sequenceLearningTask,001,131,
min1.png,min2.png,min3.png,min4.png,allBlank.png,,['num_1'],,,,,,,,,,0,4,4,4,,,,,,,,,['num_1'],5,0.0507294358686,0,"['num_4', 'num_1']",0,"[0.0005005127750337124, 0.8097735384944826]",,2018_Jun_10_1649,59.9946835505,sequenceLearningTask,001,131,
min1.png,min2.png,min3.png,min4.png,allBlank.png,,['num_4'],,,,,,,,,,0,4,4,4,,,,,,,,,['num_4'],5,0.0563142565079,1,['num_4'],0,[4.539280410390347],,2018_Jun_10_1649,59.9946835505,sequenceLearningTask,001,131,
min1.png,min2.png,min3.png,min4.png,allBlank.png,,['num_0'],,,,,,,,,,0,4,4,4,,,,,,,,,['num_0'],5,0.0568073845934,1,['num_0'],0,[0.5367983588948846],,2018_Jun_10_1649,59.9946835505,sequenceLearningTask,001,131,
min1.png,min2.png,min3.png,min4.png,allBlank.png,,['num_0'],,,,,,,,,,0,4,4,4,,,,,,,,,['num_0'],5,0.0483483076096,1,['num_0'],0,[1.1142354873009026],,2018_Jun_10_1649,59.9946835505,sequenceLearningTask,001,131,
min1.png,min2.png,min3.png,min4.png,allBlank.png,,['num_4'],,,,,,,,,,0,4,4,4,,,,,,,,,['num_4'],5,0.0556250256486,1,['num_4'],0,[1.620507487328723],,2018_Jun_10_1649,59.9946835505,sequenceLearningTask,001,131,
min1.png,min2.png,min3.png,min4.png,allBlank.png,,['num_1'],,,,,,,,,,0,4,4,4,,,,,,,,,['num_1'],5,0.0567630769219,0,"['num_4', 'num_1']",0,"[1.1370268717873842, 2.1206859487574548]",,2018_Jun_10_1649,59.9946835505,sequenceLearningTask,001,131,
min1.png,min2.png,min3.png,min4.png,allBlank.png,,['num_0'],,,,,,,,,,0,4,4,4,,,,,,,,,['num_0'],5,0.051124102436,1,['num_0'],0,[1.6761161026079208],,2018_Jun_10_1649,59.9946835505,sequenceLearningTask,001,131,
min1.png,min2.png,min3.png,min4.png,allBlank.png,,['num_7'],,,,,,,,,,0,5,5,5,,,,,,,,,['num_7'],6,0.0552291283384,1,['num_7'],0,[0.7377337436191738],,2018_Jun_10_1649,59.9946835505,sequenceLearningTask,001,131,
min1.png,min2.png,min3.png,min4.png,allBlank.png,,['num_1'],,,,,,,,,,0,5,5,5,,,,,,,,,['num_1'],6,0.054008615436,1,['num_1'],0,[0.6406145640648901],,2018_Jun_10_1649,59.9946835505,sequenceLearningTask,001,131,
min1.png,min2.png,min3.png,min4.png,allBlank.png,,['num_4'],,,,,,,,,,0,5,5,5,,,,,,,,,['num_4'],6,0.0545973333064,1,['num_4'],0,[1.1235844101756811],,2018_Jun_10_1649,59.9946835505,sequenceLearningTask,001,131,
min1.png,min2.png,min3.png,min4.png,allBlank.png,,['num_0'],,,,,,,,,,0,5,5,5,,,,,,,,,['num_0'],6,0.0527003076859,1,['num_0'],0,[0.6250145642552525],,2018_Jun_10_1649,59.9946835505,sequenceLearningTask,001,131,
min1.png,min2.png,min3.png,min4.png,allBlank.png,,['num_0'],,,,,,,,,,0,5,5,5,,,,,,,,,['num_0'],6,0.0607355898246,1,['num_0'],0,[0.4839405126404017],,2018_Jun_10_1649,59.9946835505,sequenceLearningTask,001,131,
min1.png,min2.png,min3.png,min4.png,allBlank.png,,['num_4'],,,,,,,,,,0,5,5,5,,,,,,,,,['num_4'],6,0.060633846093,1,['num_4'],0,[0.8828393847215921],,2018_Jun_10_1649,59.9946835505,sequenceLearningTask,001,131,
min1.png,min2.png,min3.png,min4.png,allBlank.png,,['num_1'],,,,,,,,,,0,5,5,5,,,,,,,,,['num_1'],6,0.0553124102298,1,['num_1'],0,[0.7550030769780278],,2018_Jun_10_1649,59.9946835505,sequenceLearningTask,001,131,
min1.png,min2.png,min3.png,min4.png,allBlank.png,,['num_0'],,,,,,,,,,0,5,5,5,,,,,,,,,['num_0'],6,0.0541107691824,1,['num_0'],0,[0.5074133332818747],,2018_Jun_10_1649,59.9946835505,sequenceLearningTask,001,131,
min1.png,min2.png,min3.png,min4.png,allBlank.png,,['num_7'],,,,,,,,,,0,6,6,6,,,,,,,,,['num_7'],7,0.0493653332815,1,['num_7'],0,[0.5942059487570077],,2018_Jun_10_1649,59.9946835505,sequenceLearningTask,001,131,
min1.png,min2.png,min3.png,min4.png,allBlank.png,,['num_1'],,,,,,,,,,0,6,6,6,,,,,,,,,['num_1'],7,0.0582334357314,1,['num_1'],0,[0.7185780513100326],,2018_Jun_10_1649,59.9946835505,sequenceLearningTask,001,131,
min1.png,min2.png,min3.png,min4.png,allBlank.png,,['num_4'],,,,,,,,,,0,6,6,6,,,,,,,,,['num_4'],7,0.0544008205179,1,['num_4'],0,[0.7902802051976323],,2018_Jun_10_1649,59.9946835505,sequenceLearningTask,001,131,
min1.png,min2.png,min3.png,min4.png,allBlank.png,,['num_0'],,,,,,,,,,0,6,6,6,,,,,,,,,['num_0'],7,0.0545723077375,1,['num_0'],0,[1.2565899486653507],,2018_Jun_10_1649,59.9946835505,sequenceLearningTask,001,131,
min1.png,min2.png,min3.png,min4.png,allBlank.png,,['num_0'],,,,,,,,,,0,6,6,6,,,,,,,,,['num_0'],7,0.0537591793109,1,['num_0'],0,[0.6405846152920276],,2018_Jun_10_1649,59.9946835505,sequenceLearningTask,001,131,
min1.png,min2.png,min3.png,min4.png,allBlank.png,,['num_4'],,,,,,,,,,0,6,6,6,,,,,,,,,['num_4'],7,0.0562145640142,1,['num_4'],0,[0.4377345640677959],,2018_Jun_10_1649,59.9946835505,sequenceLearningTask,001,131,
min1.png,min2.png,min3.png,min4.png,allBlank.png,,['num_1'],,,,,,,,,,0,6,6,6,,,,,,,,,['num_1'],7,0.0503282051068,1,['num_1'],0,[0.8449435897637159],,2018_Jun_10_1649,59.9946835505,sequenceLearningTask,001,131,
min1.png,min2.png,min3.png,min4.png,allBlank.png,,['num_0'],,,,,,,,,,0,6,6,6,,,,,,,,,['num_0'],7,0.0559528204612,1,['num_0'],0,[0.6046182564459741],,2018_Jun_10_1649,59.9946835505,sequenceLearningTask,001,131,
min1.png,min2.png,min3.png,min4.png,allBlank.png,,['num_7'],,,,,,,,,,0,7,7,7,,,,,,,,,['num_7'],8,0.0535782563966,1,['num_7'],0,[0.7736168205738068],,2018_Jun_10_1649,59.9946835505,sequenceLearningTask,001,131,
min1.png,min2.png,min3.png,min4.png,allBlank.png,,['num_1'],,,,,,,,,,0,7,7,7,,,,,,,,,['num_1'],8,0.0523474870715,0,"['num_0', 'num_1']",0,"[0.5412767177913338, 0.8082322049885988]",,2018_Jun_10_1649,59.9946835505,sequenceLearningTask,001,131,
min1.png,min2.png,min3.png,min4.png,allBlank.png,,['num_4'],,,,,,,,,,0,7,7,7,,,,,,,,,['num_4'],8,0.0554276923649,1,['num_4'],0,[0.406287589808926],,2018_Jun_10_1649,59.9946835505,sequenceLearningTask,001,131,
min1.png,min2.png,min3.png,min4.png,allBlank.png,,['num_0'],,,,,,,,,,0,7,7,7,,,,,,,,,['num_0'],8,0.0549546666443,1,['num_0'],0,[0.9050814358051866],,2018_Jun_10_1649,59.9946835505,sequenceLearningTask,001,131,
min1.png,min2.png,min3.png,min4.png,allBlank.png,,['num_0'],,,,,,,,,,0,7,7,7,,,,,,,,,['num_0'],8,0.0554838974494,1,['num_0'],0,[0.5882449229247868],,2018_Jun_10_1649,59.9946835505,sequenceLearningTask,001,131,
min1.png,min2.png,min3.png,min4.png,allBlank.png,,['num_4'],,,,,,,,,,0,7,7,7,,,,,,,,,['num_4'],8,0.0512586666737,0,"['num_7', 'num_4']",0,"[1.1438084102701396, 2.1437214359175414]",,2018_Jun_10_1649,59.9946835505,sequenceLearningTask,001,131,
min1.png,min2.png,min3.png,min4.png,allBlank.png,,['num_1'],,,,,,,,,,0,7,7,7,,,,,,,,,['num_1'],8,0.0530974359717,1,['num_1'],0,[0.6743749743327498],,2018_Jun_10_1649,59.9946835505,sequenceLearningTask,001,131,
min1.png,min2.png,min3.png,min4.png,allBlank.png,,['num_0'],,,,,,,,,,0,7,7,7,,,,,,,,,['num_0'],8,0.0479478975758,0,"['num_0', 'num_0']",0,"[0.00029128207825124264, 0.5300730254966766]",,2018_Jun_10_1649,59.9946835505,sequenceLearningTask,001,131,
min1.png,min2.png,min3.png,min4.png,allBlank.png,,['num_7'],,,,,,,,,,0,8,8,8,,,,,,,,,['num_7'],9,0.0590810256545,0,"['num_1', 'num_7']",0,"[0.0004906665999442339, 1.1506223590113223]",,2018_Jun_10_1649,59.9946835505,sequenceLearningTask,001,131,
min1.png,min2.png,min3.png,min4.png,allBlank.png,,['num_1'],,,,,,,,,,0,8,8,8,,,,,,,,,['num_1'],9,0.0563721025828,0,"['num_0', 'num_1']",0,"[0.4382765127811581, 1.1548155897762626]",,2018_Jun_10_1649,59.9946835505,sequenceLearningTask,001,131,
min1.png,min2.png,min3.png,min4.png,allBlank.png,,['num_4'],,,,,,,,,,0,8,8,8,,,,,,,,,['num_4'],9,0.0548615385778,0,"['num_1', 'num_4']",0,"[0.6397891282103956, 3.4064791796263307]",,2018_Jun_10_1649,59.9946835505,sequenceLearningTask,001,131,
min1.png,min2.png,min3.png,min4.png,allBlank.png,,['num_0'],,,,,,,,,,0,8,8,8,,,,,,,,,['num_0'],9,0.0528352819383,1,['num_0'],0,[10.007648000027984],,2018_Jun_10_1649,59.9946835505,sequenceLearningTask,001,131,
min1.png,min2.png,min3.png,min4.png,allBlank.png,,['num_0'],,,,,,,,,,0,8,8,8,,,,,,,,,['num_0'],9,0.0520315899048,1,['num_0'],0,[0.991056410362944],,2018_Jun_10_1649,59.9946835505,sequenceLearningTask,001,131,
min1.png,min2.png,min3.png,min4.png,allBlank.png,,['num_4'],,,,,,,,,,0,8,8,8,,,,,,,,,['num_4'],9,0.0562678973656,1,['num_4'],0,[2.921358769061044],,2018_Jun_10_1649,59.9946835505,sequenceLearningTask,001,131,
min1.png,min2.png,min3.png,min4.png,allBlank.png,,['num_1'],,,,,,,,,,0,8,8,8,,,,,,,,,['num_1'],9,0.0539811283816,1,['num_1'],0,[1.0235643077176064],,2018_Jun_10_1649,59.9946835505,sequenceLearningTask,001,131,
min1.png,min2.png,min3.png,min4.png,allBlank.png,,['num_0'],,,,,,,,,,0,8,8,8,,,,,,,,,['num_0'],9,0.0587462566327,1,['num_0'],0,[1.0860947691835463],,2018_Jun_10_1649,59.9946835505,sequenceLearningTask,001,131,
min1.png,min2.png,min3.png,min4.png,allBlank.png,,['num_7'],,,,,,,,,,0,9,9,9,,,,,,,,,['num_7'],10,0.0538063589483,1,['num_7'],0,[1.2723212307319045],,2018_Jun_10_1649,59.9946835505,sequenceLearningTask,001,131,
min1.png,min2.png,min3.png,min4.png,allBlank.png,,['num_1'],,,,,,,,,,0,9,9,9,,,,,,,,,['num_1'],10,0.0552812307142,1,['num_1'],0,[0.7223749742843211],,2018_Jun_10_1649,59.9946835505,sequenceLearningTask,001,131,
min1.png,min2.png,min3.png,min4.png,allBlank.png,,['num_4'],,,,,,,,,,0,9,9,9,,,,,,,,,['num_4'],10,0.0551942563616,1,['num_4'],0,[0.8734420514665544],,2018_Jun_10_1649,59.9946835505,sequenceLearningTask,001,131,
min1.png,min2.png,min3.png,min4.png,allBlank.png,,['num_0'],,,,,,,,,,0,9,9,9,,,,,,,,,['num_0'],10,0.0598900511395,1,['num_0'],0,[0.5343651280272752],,2018_Jun_10_1649,59.9946835505,sequenceLearningTask,001,131,
min1.png,min2.png,min3.png,min4.png,allBlank.png,,['num_0'],,,,,,,,,,0,9,9,9,,,,,,,,,['num_0'],10,0.0531954872422,1,['num_0'],0,[0.6412094358820468],,2018_Jun_10_1649,59.9946835505,sequenceLearningTask,001,131,
min1.png,min2.png,min3.png,min4.png,allBlank.png,,['num_4'],,,,,,,,,,0,9,9,9,,,,,,,,,['num_4'],10,0.0525854360312,1,['num_4'],0,[0.9591872820165008],,2018_Jun_10_1649,59.9946835505,sequenceLearningTask,001,131,
min1.png,min2.png,min3.png,min4.png,allBlank.png,,['num_1'],,,,,,,,,,0,9,9,9,,,,,,,,,['num_1'],10,0.0594908718485,1,['num_1'],0,[0.6846080000977963],,2018_Jun_10_1649,59.9946835505,sequenceLearningTask,001,131,
min1.png,min2.png,min3.png,min4.png,allBlank.png,,['num_0'],,,,,,,,,,0,9,9,9,,,,,,,,,['num_0'],10,0.0601735385135,1,['num_0'],0,[0.5330121025908738],,2018_Jun_10_1649,59.9946835505,sequenceLearningTask,001,131,
min1.png,min2.png,min3.png,min4.png,allBlank.png,,,,,,,,,,,,0,9,9,9,,,,,0,-1,-1,0,,,,,,,,,2018_Jun_10_1649,59.9946835505,sequenceLearningTask,001,131,
