pawPatrol1,pawPatrol2,pawPatrol3,pawPatrol4,blank,allowableKey,correctKey,correctKeyPressNum,posLoc,correctKeyPress,randomPaw,im_size,trials.thisRepN,trials.thisTrialN,trials.thisN,trials.thisIndex,trials_3.thisRepN,trials_3.thisTrialN,trials_3.thisN,trials_3.thisIndex,trials_2.thisRepN,trials_2.thisTrialN,trials_2.thisN,trials_2.thisIndex,trials_questions.thisRepN,trials_questions.thisTrialN,trials_questions.thisN,trials_questions.thisIndex,correctLocation,correctImage,repetitionNumber,stimulusPresent.t,responseTimeCorrect,pressLoc,responseTimeIncorrect,trialIncorrect,date,frameRate,expName,session,participant,
min1.png,min2.png,min3.png,min4.png,allBlank.png,,,,,,,,,,,,0,0,0,0,,,,,,,,,"(-0.75, -0.04)",images/min1.png,1,0.0891478608537,0.484196724428,[ 0.6640625 -0.1      ],,,2018_Jun_23_1622,59.683865406,sequenceLearningTask,001,146,
min1.png,min2.png,min3.png,min4.png,allBlank.png,,,,,,,,,,,,0,0,0,0,,,,,,,,,"(0.25, -0.04)",images/min3.png,1,0.101855137691,0.467164936548,[-0.78125    -0.04166667],,,2018_Jun_23_1622,59.683865406,sequenceLearningTask,001,146,
min1.png,min2.png,min3.png,min4.png,allBlank.png,,,,,,,,,,,,0,0,0,0,,,,,,,,,"(-0.25, -0.04)",images/min2.png,1,0.0861357595422,0.450543815168,[ 0.278125    0.06111111],,,2018_Jun_23_1622,59.683865406,sequenceLearningTask,001,146,
min1.png,min2.png,min3.png,min4.png,allBlank.png,,,,,,,,,,,,0,0,0,0,,,,,,,,,"(0.75, -0.04)",images/min4.png,1,0.0797291980562,0.478161034611,[-0.2765625  -0.01944444],,,2018_Jun_23_1622,59.683865406,sequenceLearningTask,001,146,
min1.png,min2.png,min3.png,min4.png,allBlank.png,,,,,,,,,,,,0,0,0,0,,,,,,,,,"(0.75, -0.04)",images/min4.png,1,0.0560077718983,0.515255583479,[ 0.7921875  -0.08333333],,,2018_Jun_23_1622,59.683865406,sequenceLearningTask,001,146,
min1.png,min2.png,min3.png,min4.png,allBlank.png,,,,,,,,,,,,0,0,0,0,,,,,,,,,"(-0.25, -0.04)",images/min2.png,1,0.0575679763715,0.484597544782,[ 0.8109375  -0.11666667],,,2018_Jun_23_1622,59.683865406,sequenceLearningTask,001,146,
min1.png,min2.png,min3.png,min4.png,allBlank.png,,,,,,,,,,,,0,0,0,0,,,,,,,,,"(0.25, -0.04)",images/min3.png,1,0.0639696147846,0.528333731956,[-0.225      -0.17777778],,,2018_Jun_23_1622,59.683865406,sequenceLearningTask,001,146,
min1.png,min2.png,min3.png,min4.png,allBlank.png,,,,,,,,,,,,0,0,0,0,,,,,,,,,"(0.75, -0.04)",images/min4.png,1,0.063655768754,0.456356735856,[ 0.2578125  0.025    ],,,2018_Jun_23_1622,59.683865406,sequenceLearningTask,001,146,
min1.png,min2.png,min3.png,min4.png,allBlank.png,,,,,,,,,,,,0,1,1,1,,,,,,,,,"(-0.75, -0.04)",images/min1.png,2,0.0591027449846,0.492356310831,[ 0.7546875  -0.15277778],,,2018_Jun_23_1622,59.683865406,sequenceLearningTask,001,146,
min1.png,min2.png,min3.png,min4.png,allBlank.png,,,,,,,,,,,,0,1,1,1,,,,,,,,,"(0.25, -0.04)",images/min3.png,2,0.0609390519239,0.447356534409,[-0.7828125  -0.06111111],,,2018_Jun_23_1622,59.683865406,sequenceLearningTask,001,146,
min1.png,min2.png,min3.png,min4.png,allBlank.png,,,,,,,,,,,,0,1,1,1,,,,,,,,,"(-0.25, -0.04)",images/min2.png,2,0.0533813114307,0.437294589821,[ 0.2984375  -0.11388889],,,2018_Jun_23_1622,59.683865406,sequenceLearningTask,001,146,
min1.png,min2.png,min3.png,min4.png,allBlank.png,,,,,,,,,,,,0,1,1,1,,,,,,,,,"(0.75, -0.04)",images/min4.png,2,0.0603634624131,0.67624341487,[-0.2578125  -0.05277778],,,2018_Jun_23_1622,59.683865406,sequenceLearningTask,001,146,
min1.png,min2.png,min3.png,min4.png,allBlank.png,,,,,,,,,,,,0,1,1,1,,,,,,,,,"(0.75, -0.04)",images/min4.png,2,0.0601037702145,0.651439732741,[ 0.7546875  -0.06666667],,,2018_Jun_23_1622,59.683865406,sequenceLearningTask,001,146,
min1.png,min2.png,min3.png,min4.png,allBlank.png,,,,,,,,,,,,0,1,1,1,,,,,,,,,"(-0.25, -0.04)",images/min2.png,2,0.0778826347087,0.495379078828,[ 0.6984375   0.07777778],,,2018_Jun_23_1622,59.683865406,sequenceLearningTask,001,146,
min1.png,min2.png,min3.png,min4.png,allBlank.png,,,,,,,,,,,,0,1,1,1,,,,,,,,,"(0.25, -0.04)",images/min3.png,2,0.0681759720319,0.504181126496,[-0.2671875   0.03611111],,,2018_Jun_23_1622,59.683865406,sequenceLearningTask,001,146,
min1.png,min2.png,min3.png,min4.png,allBlank.png,,,,,,,,,,,,0,1,1,1,,,,,,,,,"(0.75, -0.04)",images/min4.png,2,0.0577607968153,0.562245923182,[ 0.2703125   0.03333333],,,2018_Jun_23_1622,59.683865406,sequenceLearningTask,001,146,
min1.png,min2.png,min3.png,min4.png,allBlank.png,,,,,,,,,,,,0,2,2,2,,,,,,,,,"(-0.75, -0.04)",images/min1.png,3,0.0566953613597,0.56973309959,[ 0.6578125   0.06388889],,,2018_Jun_23_1622,59.683865406,sequenceLearningTask,001,146,
min1.png,min2.png,min3.png,min4.png,allBlank.png,,,,,,,,,,,,0,2,2,2,,,,,,,,,"(0.25, -0.04)",images/min3.png,3,0.05425884953,0.470640627434,[-0.6265625  -0.04166667],,,2018_Jun_23_1622,59.683865406,sequenceLearningTask,001,146,
min1.png,min2.png,min3.png,min4.png,allBlank.png,,,,,,,,,,,,0,2,2,2,,,,,,,,,"(-0.25, -0.04)",images/min2.png,3,0.0546744391031,0.482920417257,[ 0.2265625  -0.05277778],,,2018_Jun_23_1622,59.683865406,sequenceLearningTask,001,146,
min1.png,min2.png,min3.png,min4.png,allBlank.png,,,,,,,,,,,,0,2,2,2,,,,,,,,,"(0.75, -0.04)",images/min4.png,3,0.0595942319633,0.480012521017,[-0.23125    -0.04722222],,,2018_Jun_23_1622,59.683865406,sequenceLearningTask,001,146,
min1.png,min2.png,min3.png,min4.png,allBlank.png,,,,,,,,,,,,0,2,2,2,,,,,,,,,"(0.75, -0.04)",images/min4.png,3,0.0647659221431,0.541931264859,[ 0.728125   -0.06666667],,,2018_Jun_23_1622,59.683865406,sequenceLearningTask,001,146,
min1.png,min2.png,min3.png,min4.png,allBlank.png,,,,,,,,,,,,0,2,2,2,,,,,,,,,"(-0.25, -0.04)",images/min2.png,3,0.0588996681472,0.500009641022,[ 0.746875   -0.06944444],,,2018_Jun_23_1622,59.683865406,sequenceLearningTask,001,146,
min1.png,min2.png,min3.png,min4.png,allBlank.png,,,,,,,,,,,,0,2,2,2,,,,,,,,,"(0.25, -0.04)",images/min3.png,3,0.0554219259793,0.413883317378,[-0.2        -0.05277778],,,2018_Jun_23_1622,59.683865406,sequenceLearningTask,001,146,
min1.png,min2.png,min3.png,min4.png,allBlank.png,,,,,,,,,,,,0,2,2,2,,,,,,,,,"(0.75, -0.04)",images/min4.png,3,0.0603991547105,0.884146509081,[ 0.2203125  -0.07222222],,,2018_Jun_23_1622,59.683865406,sequenceLearningTask,001,146,
min1.png,min2.png,min3.png,min4.png,allBlank.png,,,,,,,,,,,,0,3,3,3,,,,,,,,,"(-0.75, -0.04)",images/min1.png,4,0.0589542322268,0.56336305094,[ 0.6953125 -0.075    ],,,2018_Jun_23_1622,59.683865406,sequenceLearningTask,001,146,
min1.png,min2.png,min3.png,min4.png,allBlank.png,,,,,,,,,,,,0,3,3,3,,,,,,,,,"(0.25, -0.04)",images/min3.png,4,0.0563683871442,0.437429564132,[-0.7375     -0.14166667],,,2018_Jun_23_1622,59.683865406,sequenceLearningTask,001,146,
min1.png,min2.png,min3.png,min4.png,allBlank.png,,,,,,,,,,,,0,3,3,3,,,,,,,,,"(-0.25, -0.04)",images/min2.png,4,0.0553973105998,0.53460162683,[ 0.20625 -0.175  ],,,2018_Jun_23_1622,59.683865406,sequenceLearningTask,001,146,
min1.png,min2.png,min3.png,min4.png,allBlank.png,,,,,,,,,,,,0,3,3,3,,,,,,,,,"(0.75, -0.04)",images/min4.png,4,0.0555462336197,0.456173351311,[-0.234375 -0.075   ],,,2018_Jun_23_1622,59.683865406,sequenceLearningTask,001,146,
min1.png,min2.png,min3.png,min4.png,allBlank.png,,,,,,,,,,,,0,3,3,3,,,,,,,,,"(0.75, -0.04)",images/min4.png,4,0.0546945416718,0.531291269217,[ 0.7203125  -0.08611111],,,2018_Jun_23_1622,59.683865406,sequenceLearningTask,001,146,
min1.png,min2.png,min3.png,min4.png,allBlank.png,,,,,,,,,,,,0,3,3,3,,,,,,,,,"(-0.25, -0.04)",images/min2.png,4,0.0499400820845,0.436612743957,[ 0.78125 -0.05   ],,,2018_Jun_23_1622,59.683865406,sequenceLearningTask,001,146,
min1.png,min2.png,min3.png,min4.png,allBlank.png,,,,,,,,,,,,0,3,3,3,,,,,,,,,"(0.25, -0.04)",images/min3.png,4,0.0601653086487,0.44838504681,[-0.2046875  -0.08055556],,,2018_Jun_23_1622,59.683865406,sequenceLearningTask,001,146,
min1.png,min2.png,min3.png,min4.png,allBlank.png,,,,,,,,,,,,0,3,3,3,,,,,,,,,"(0.75, -0.04)",images/min4.png,4,0.053332901196,0.608803442548,[ 0.271875   -0.01944444],,,2018_Jun_23_1622,59.683865406,sequenceLearningTask,001,146,
min1.png,min2.png,min3.png,min4.png,allBlank.png,,,,,,,,,,,,0,4,4,4,,,,,,,,,"(-0.75, -0.04)",images/min1.png,5,0.0633927945019,0.479124726509,[ 0.796875   -0.08333333],,,2018_Jun_23_1622,59.683865406,sequenceLearningTask,001,146,
min1.png,min2.png,min3.png,min4.png,allBlank.png,,,,,,,,,,,,0,4,4,4,,,,,,,,,"(0.25, -0.04)",images/min3.png,5,0.0603240778146,0.462527810247,[-0.7         0.03611111],,,2018_Jun_23_1622,59.683865406,sequenceLearningTask,001,146,
min1.png,min2.png,min3.png,min4.png,allBlank.png,,,,,,,,,,,,0,4,4,4,,,,,,,,,"(-0.25, -0.04)",images/min2.png,5,0.0658137165883,0.556965925352,[ 0.1859375  -0.00833333],,,2018_Jun_23_1622,59.683865406,sequenceLearningTask,001,146,
min1.png,min2.png,min3.png,min4.png,allBlank.png,,,,,,,,,,,,0,4,4,4,,,,,,,,,"(0.75, -0.04)",images/min4.png,5,0.060729000732,0.52519568197,[-0.271875   -0.01111111],,,2018_Jun_23_1622,59.683865406,sequenceLearningTask,001,146,
min1.png,min2.png,min3.png,min4.png,allBlank.png,,,,,,,,,,,,0,4,4,4,,,,,,,,,"(0.75, -0.04)",images/min4.png,5,0.0555880797619,0.569856176473,[ 0.6859375   0.03055556],,,2018_Jun_23_1622,59.683865406,sequenceLearningTask,001,146,
min1.png,min2.png,min3.png,min4.png,allBlank.png,,,,,,,,,,,,0,4,4,4,,,,,,,,,"(-0.25, -0.04)",images/min2.png,5,0.0520578247961,0.440803101199,[ 0.6453125   0.01388889],,,2018_Jun_23_1622,59.683865406,sequenceLearningTask,001,146,
min1.png,min2.png,min3.png,min4.png,allBlank.png,,,,,,,,,,,,0,4,4,4,,,,,,,,,"(0.25, -0.04)",images/min3.png,5,0.0627864357812,0.439173563413,[-0.2796875  -0.02777778],,,2018_Jun_23_1622,59.683865406,sequenceLearningTask,001,146,
min1.png,min2.png,min3.png,min4.png,allBlank.png,,,,,,,,,,,,0,4,4,4,,,,,,,,,"(0.75, -0.04)",images/min4.png,5,0.0573776174861,0.601265804609,[ 0.2828125  -0.05277778],,,2018_Jun_23_1622,59.683865406,sequenceLearningTask,001,146,
min1.png,min2.png,min3.png,min4.png,allBlank.png,,,,,,,,,,,,0,5,5,5,,,,,,,,,"(-0.75, -0.04)",images/min1.png,6,0.0581214120612,0.581937402283,[ 0.7265625  -0.00833333],,,2018_Jun_23_1622,59.683865406,sequenceLearningTask,001,146,
min1.png,min2.png,min3.png,min4.png,allBlank.png,,,,,,,,,,,,0,5,5,5,,,,,,,,,"(0.25, -0.04)",images/min3.png,6,0.0534555678169,0.80650305374,[-0.7359375  -0.11388889],,,2018_Jun_23_1622,59.683865406,sequenceLearningTask,001,146,
min1.png,min2.png,min3.png,min4.png,allBlank.png,,,,,,,,,,,,0,5,5,5,,,,,,,,,"(-0.25, -0.04)",images/min2.png,6,0.0619593591982,0.463886989179,[ 0.296875   -0.08055556],,,2018_Jun_23_1622,59.683865406,sequenceLearningTask,001,146,
min1.png,min2.png,min3.png,min4.png,allBlank.png,,,,,,,,,,,,0,5,5,5,,,,,,,,,"(0.75, -0.04)",images/min4.png,6,0.0527396706748,0.555642438718,[-0.196875   -0.17222222],,,2018_Jun_23_1622,59.683865406,sequenceLearningTask,001,146,
min1.png,min2.png,min3.png,min4.png,allBlank.png,,,,,,,,,,,,0,5,5,5,,,,,,,,,"(0.75, -0.04)",images/min4.png,6,0.0628180255007,0.616450208632,[ 0.7765625  -0.10277778],,,2018_Jun_23_1622,59.683865406,sequenceLearningTask,001,146,
min1.png,min2.png,min3.png,min4.png,allBlank.png,,,,,,,,,,,,0,5,5,5,,,,,,,,,"(-0.25, -0.04)",images/min2.png,6,0.0552812081005,0.950347917795,[ 0.7734375 -0.15     ],,,2018_Jun_23_1622,59.683865406,sequenceLearningTask,001,146,
min1.png,min2.png,min3.png,min4.png,allBlank.png,,,,,,,,,,,,0,5,5,5,,,,,,,,,"(0.25, -0.04)",images/min3.png,6,0.0581866427965,0.534593831966,[-0.1671875  -0.18333333],,,2018_Jun_23_1622,59.683865406,sequenceLearningTask,001,146,
min1.png,min2.png,min3.png,min4.png,allBlank.png,,,,,,,,,,,,0,5,5,5,,,,,,,,,"(0.75, -0.04)",images/min4.png,6,0.0509205944836,0.560377616261,[ 0.3359375  -0.28333333],,,2018_Jun_23_1622,59.683865406,sequenceLearningTask,001,146,
min1.png,min2.png,min3.png,min4.png,allBlank.png,,,,,,,,,,,,0,6,6,6,,,,,,,,,"(-0.75, -0.04)",images/min1.png,7,0.063440794489,0.610381288046,[ 0.8515625  -0.16111111],,,2018_Jun_23_1622,59.683865406,sequenceLearningTask,001,146,
min1.png,min2.png,min3.png,min4.png,allBlank.png,,,,,,,,,,,,0,6,6,6,,,,,,,,,"(0.25, -0.04)",images/min3.png,7,0.0511445944139,0.525524707467,[-0.6828125  -0.12222222],,,2018_Jun_23_1622,59.683865406,sequenceLearningTask,001,146,
min1.png,min2.png,min3.png,min4.png,allBlank.png,,,,,,,,,,,,0,6,6,6,,,,,,,,,"(-0.25, -0.04)",images/min2.png,7,0.0534026447567,0.624422307927,[ 0.2796875   0.00277778],,,2018_Jun_23_1622,59.683865406,sequenceLearningTask,001,146,
min1.png,min2.png,min3.png,min4.png,allBlank.png,,,,,,,,,,,,0,6,6,6,,,,,,,,,"(0.75, -0.04)",images/min4.png,7,0.0518650043668,0.555639977174,[-0.2046875  -0.03055556],,,2018_Jun_23_1622,59.683865406,sequenceLearningTask,001,146,
min1.png,min2.png,min3.png,min4.png,allBlank.png,,,,,,,,,,,,0,6,6,6,,,,,,,,,"(0.75, -0.04)",images/min4.png,7,0.05753515588,0.56883792048,[ 0.7359375 -0.225    ],,,2018_Jun_23_1622,59.683865406,sequenceLearningTask,001,146,
min1.png,min2.png,min3.png,min4.png,allBlank.png,,,,,,,,,,,,0,6,6,6,,,,,,,,,"(-0.25, -0.04)",images/min2.png,7,0.056430335826,0.554302131568,[ 0.7015625  -0.17222222],,,2018_Jun_23_1622,59.683865406,sequenceLearningTask,001,146,
min1.png,min2.png,min3.png,min4.png,allBlank.png,,,,,,,,,,,,0,6,6,6,,,,,,,,,"(0.25, -0.04)",images/min3.png,7,0.0584910529287,0.516175377983,[-0.2203125   0.04722222],,,2018_Jun_23_1622,59.683865406,sequenceLearningTask,001,146,
min1.png,min2.png,min3.png,min4.png,allBlank.png,,,,,,,,,,,,0,6,6,6,,,,,,,,,"(0.75, -0.04)",images/min4.png,7,0.0555663361738,0.464208630074,[ 0.2859375  -0.08611111],,,2018_Jun_23_1622,59.683865406,sequenceLearningTask,001,146,
min1.png,min2.png,min3.png,min4.png,allBlank.png,,,,,,,,,,,,0,7,7,7,,,,,,,,,"(-0.75, -0.04)",images/min1.png,8,0.0562908487045,0.620206514795,[ 0.7078125  -0.00277778],,,2018_Jun_23_1622,59.683865406,sequenceLearningTask,001,146,
min1.png,min2.png,min3.png,min4.png,allBlank.png,,,,,,,,,,,,0,7,7,7,,,,,,,,,"(0.25, -0.04)",images/min3.png,8,0.0591737193172,1.18974638369,[-0.7765625  -0.17222222],,,2018_Jun_23_1622,59.683865406,sequenceLearningTask,001,146,
min1.png,min2.png,min3.png,min4.png,allBlank.png,,,,,,,,,,,,0,7,7,7,,,,,,,,,"(-0.25, -0.04)",images/min2.png,8,0.0561246949219,0.465375809072,[ 0.3171875  -0.26944444],,,2018_Jun_23_1622,59.683865406,sequenceLearningTask,001,146,
min1.png,min2.png,min3.png,min4.png,allBlank.png,,,,,,,,,,,,0,7,7,7,,,,,,,,,"(0.75, -0.04)",images/min4.png,8,0.056888181789,0.53472060115,[-0.2765625  -0.21388889],,,2018_Jun_23_1622,59.683865406,sequenceLearningTask,001,146,
min1.png,min2.png,min3.png,min4.png,allBlank.png,,,,,,,,,,,,0,7,7,7,,,,,,,,,"(0.75, -0.04)",images/min4.png,8,0.0658826396393,1.21271663067,[ 0.7578125  -0.24722222],0.759560303763,1,2018_Jun_23_1622,59.683865406,sequenceLearningTask,001,146,
min1.png,min2.png,min3.png,min4.png,allBlank.png,,,,,,,,,,,,0,7,7,7,,,,,,,,,"(-0.25, -0.04)",images/min2.png,8,0.0572771047009,0.805270233745,[ 0.8078125  -0.24166667],,,2018_Jun_23_1622,59.683865406,sequenceLearningTask,001,146,
min1.png,min2.png,min3.png,min4.png,allBlank.png,,,,,,,,,,,,0,7,7,7,,,,,,,,,"(0.25, -0.04)",images/min3.png,8,0.0630412049068,0.523777426148,[-0.1765625  -0.18055556],,,2018_Jun_23_1622,59.683865406,sequenceLearningTask,001,146,
min1.png,min2.png,min3.png,min4.png,allBlank.png,,,,,,,,,,,,0,7,7,7,,,,,,,,,"(0.75, -0.04)",images/min4.png,8,0.0601919753099,0.577317916992,[ 0.2890625   0.03611111],,,2018_Jun_23_1622,59.683865406,sequenceLearningTask,001,146,
min1.png,min2.png,min3.png,min4.png,allBlank.png,,,,,,,,,,,,0,8,8,8,,,,,,,,,"(-0.75, -0.04)",images/min1.png,9,0.0602416163165,0.697040944797,[ 0.7140625  -0.25555556],,,2018_Jun_23_1622,59.683865406,sequenceLearningTask,001,146,
min1.png,min2.png,min3.png,min4.png,allBlank.png,,,,,,,,,,,,0,8,8,8,,,,,,,,,"(0.25, -0.04)",images/min3.png,9,0.060205513757,0.492195080122,[-0.671875   -0.03888889],,,2018_Jun_23_1622,59.683865406,sequenceLearningTask,001,146,
min1.png,min2.png,min3.png,min4.png,allBlank.png,,,,,,,,,,,,0,8,8,8,,,,,,,,,"(-0.25, -0.04)",images/min2.png,9,0.0585008990747,0.465123091228,[ 0.2421875  -0.01666667],,,2018_Jun_23_1622,59.683865406,sequenceLearningTask,001,146,
min1.png,min2.png,min3.png,min4.png,allBlank.png,,,,,,,,,,,,0,8,8,8,,,,,,,,,"(0.75, -0.04)",images/min4.png,9,0.0578223352495,0.546349314318,[-0.2890625  -0.21666667],,,2018_Jun_23_1622,59.683865406,sequenceLearningTask,001,146,
min1.png,min2.png,min3.png,min4.png,allBlank.png,,,,,,,,,,,,0,8,8,8,,,,,,,,,"(0.75, -0.04)",images/min4.png,9,0.0596393601445,0.58364817081,[ 0.75625    -0.01666667],,,2018_Jun_23_1622,59.683865406,sequenceLearningTask,001,146,
min1.png,min2.png,min3.png,min4.png,allBlank.png,,,,,,,,,,,,0,8,8,8,,,,,,,,,"(-0.25, -0.04)",images/min2.png,9,0.0511827482405,0.457281863681,[ 0.7484375  -0.08611111],,,2018_Jun_23_1622,59.683865406,sequenceLearningTask,001,146,
min1.png,min2.png,min3.png,min4.png,allBlank.png,,,,,,,,,,,,0,8,8,8,,,,,,,,,"(0.25, -0.04)",images/min3.png,9,0.0537747471681,0.473763087692,[-0.1859375  -0.03333333],,,2018_Jun_23_1622,59.683865406,sequenceLearningTask,001,146,
min1.png,min2.png,min3.png,min4.png,allBlank.png,,,,,,,,,,,,0,8,8,8,,,,,,,,,"(0.75, -0.04)",images/min4.png,9,0.0524541323248,0.550998338062,[ 0.2015625   0.10833333],,,2018_Jun_23_1622,59.683865406,sequenceLearningTask,001,146,
min1.png,min2.png,min3.png,min4.png,allBlank.png,,,,,,,,,,,,0,9,9,9,,,,,,,,,"(-0.75, -0.04)",images/min1.png,10,0.0529624398187,0.587425400037,[ 0.6859375  -0.09722222],,,2018_Jun_23_1622,59.683865406,sequenceLearningTask,001,146,
min1.png,min2.png,min3.png,min4.png,allBlank.png,,,,,,,,,,,,0,9,9,9,,,,,,,,,"(0.25, -0.04)",images/min3.png,10,0.0559564898576,0.635664559726,[-0.7265625  -0.04444444],,,2018_Jun_23_1622,59.683865406,sequenceLearningTask,001,146,
min1.png,min2.png,min3.png,min4.png,allBlank.png,,,,,,,,,,,,0,9,9,9,,,,,,,,,"(-0.25, -0.04)",images/min2.png,10,0.0498079795652,0.509458252534,[ 0.1953125  -0.09722222],,,2018_Jun_23_1622,59.683865406,sequenceLearningTask,001,146,
min1.png,min2.png,min3.png,min4.png,allBlank.png,,,,,,,,,,,,0,9,9,9,,,,,,,,,"(0.75, -0.04)",images/min4.png,10,0.0569103356247,0.554052285515,[-0.2453125   0.06111111],,,2018_Jun_23_1622,59.683865406,sequenceLearningTask,001,146,
min1.png,min2.png,min3.png,min4.png,allBlank.png,,,,,,,,,,,,0,9,9,9,,,,,,,,,"(0.75, -0.04)",images/min4.png,10,0.0630986407923,0.541335983042,[ 0.6859375   0.05833333],,,2018_Jun_23_1622,59.683865406,sequenceLearningTask,001,146,
min1.png,min2.png,min3.png,min4.png,allBlank.png,,,,,,,,,,,,0,9,9,9,,,,,,,,,"(-0.25, -0.04)",images/min2.png,10,0.057385412365,0.66742536721,[ 0.7234375 -0.15     ],,,2018_Jun_23_1622,59.683865406,sequenceLearningTask,001,146,
min1.png,min2.png,min3.png,min4.png,allBlank.png,,,,,,,,,,,,0,9,9,9,,,,,,,,,"(0.25, -0.04)",images/min3.png,10,0.0503179280786,0.520369017293,[-0.2359375   0.11944444],,,2018_Jun_23_1622,59.683865406,sequenceLearningTask,001,146,
min1.png,min2.png,min3.png,min4.png,allBlank.png,,,,,,,,,,,,0,9,9,9,,,,,,,,,"(0.75, -0.04)",images/min4.png,10,0.0508163894119,0.523164093058,[ 0.3        -0.05277778],,,2018_Jun_23_1622,59.683865406,sequenceLearningTask,001,146,
min1.png,min2.png,min3.png,min4.png,allBlank.png,,,,,,,,,,,,0,0,0,0,,,,,,,,,"(-0.75, -0.04)",images/min1.png,1,0.0434014180937,0.737732620415,[ 0.778125    0.06944444],,,2018_Jun_23_1622,59.683865406,sequenceLearningTask,001,146,
min1.png,min2.png,min3.png,min4.png,allBlank.png,,,,,,,,,,,,0,0,0,0,,,,,,,,,"(0.25, -0.04)",images/min3.png,1,0.0643006915634,0.476555701927,[-0.6921875  -0.14166667],,,2018_Jun_23_1622,59.683865406,sequenceLearningTask,001,146,
min1.png,min2.png,min3.png,min4.png,allBlank.png,,,,,,,,,,,,0,0,0,0,,,,,,,,,"(-0.25, -0.04)",images/min2.png,1,0.0582247966231,0.362390005175,[ 0.2546875  -0.21944444],,,2018_Jun_23_1622,59.683865406,sequenceLearningTask,001,146,
min1.png,min2.png,min3.png,min4.png,allBlank.png,,,,,,,,,,,,0,0,0,0,,,,,,,,,"(0.75, -0.04)",images/min4.png,1,0.0576561814814,0.482961853151,[-0.2859375   0.04722222],,,2018_Jun_23_1622,59.683865406,sequenceLearningTask,001,146,
min1.png,min2.png,min3.png,min4.png,allBlank.png,,,,,,,,,,,,0,0,0,0,,,,,,,,,"(0.75, -0.04)",images/min4.png,1,0.0593132064387,0.46072637508,[ 0.75625     0.04166667],,,2018_Jun_23_1622,59.683865406,sequenceLearningTask,001,146,
min1.png,min2.png,min3.png,min4.png,allBlank.png,,,,,,,,,,,,0,0,0,0,,,,,,,,,"(-0.25, -0.04)",images/min2.png,1,0.0496713642497,0.526325527666,[ 0.7421875  -0.18611111],,,2018_Jun_23_1622,59.683865406,sequenceLearningTask,001,146,
min1.png,min2.png,min3.png,min4.png,allBlank.png,,,,,,,,,,,,0,0,0,0,,,,,,,,,"(0.25, -0.04)",images/min3.png,1,0.0545267468697,0.431181771826,[-0.2        -0.21666667],,,2018_Jun_23_1622,59.683865406,sequenceLearningTask,001,146,
min1.png,min2.png,min3.png,min4.png,allBlank.png,,,,,,,,,,,,0,0,0,0,,,,,,,,,"(0.75, -0.04)",images/min4.png,1,0.0641932044382,0.475271189629,[ 0.1515625  -0.22222222],,,2018_Jun_23_1622,59.683865406,sequenceLearningTask,001,146,
min1.png,min2.png,min3.png,min4.png,allBlank.png,,,,,,,,,,,,0,1,1,1,,,,,,,,,"(-0.75, -0.04)",images/min1.png,2,0.0596397704066,0.701297353327,[ 0.7265625  -0.33611111],,,2018_Jun_23_1622,59.683865406,sequenceLearningTask,001,146,
min1.png,min2.png,min3.png,min4.png,allBlank.png,,,,,,,,,,,,0,1,1,1,,,,,,,,,"(0.25, -0.04)",images/min3.png,2,0.0547909518791,0.422298083169,[-0.775      -0.05277778],,,2018_Jun_23_1622,59.683865406,sequenceLearningTask,001,146,
min1.png,min2.png,min3.png,min4.png,allBlank.png,,,,,,,,,,,,0,1,1,1,,,,,,,,,"(-0.25, -0.04)",images/min2.png,2,0.0609341288509,0.492607387641,[ 0.15       -0.83055556],,,2018_Jun_23_1622,59.683865406,sequenceLearningTask,001,146,
min1.png,min2.png,min3.png,min4.png,allBlank.png,,,,,,,,,,,,0,1,1,1,,,,,,,,,"(0.75, -0.04)",images/min4.png,2,0.0597324883129,0.514753019597,[-0.3        -0.15277778],,,2018_Jun_23_1622,59.683865406,sequenceLearningTask,001,146,
min1.png,min2.png,min3.png,min4.png,allBlank.png,,,,,,,,,,,,0,1,1,1,,,,,,,,,"(0.75, -0.04)",images/min4.png,2,0.061648384959,0.717005654558,[ 0.64375    -0.28611111],,,2018_Jun_23_1622,59.683865406,sequenceLearningTask,001,146,
min1.png,min2.png,min3.png,min4.png,allBlank.png,,,,,,,,,,,,0,1,1,1,,,,,,,,,"(-0.25, -0.04)",images/min2.png,2,0.0514703378576,0.558298437609,[ 0.678125   -0.09444444],,,2018_Jun_23_1622,59.683865406,sequenceLearningTask,001,146,
min1.png,min2.png,min3.png,min4.png,allBlank.png,,,,,,,,,,,,0,1,1,1,,,,,,,,,"(0.25, -0.04)",images/min3.png,2,0.0530412090156,0.921471621958,[-0.253125   -0.10833333],,,2018_Jun_23_1622,59.683865406,sequenceLearningTask,001,146,
min1.png,min2.png,min3.png,min4.png,allBlank.png,,,,,,,,,,,,0,1,1,1,,,,,,,,,"(0.75, -0.04)",images/min4.png,2,0.0609575134586,1.20241796823,[ 0.3265625  -0.28611111],,,2018_Jun_23_1622,59.683865406,sequenceLearningTask,001,146,
min1.png,min2.png,min3.png,min4.png,allBlank.png,,,,,,,,,,,,0,2,2,2,,,,,,,,,"(-0.75, -0.04)",images/min1.png,3,0.0536126959487,0.686001769849,[ 0.709375   -0.18055556],,,2018_Jun_23_1622,59.683865406,sequenceLearningTask,001,146,
min1.png,min2.png,min3.png,min4.png,allBlank.png,,,,,,,,,,,,0,2,2,2,,,,,,,,,"(0.25, -0.04)",images/min3.png,3,0.0524307477317,0.403684757461,[-0.6265625  -0.13055556],,,2018_Jun_23_1622,59.683865406,sequenceLearningTask,001,146,
min1.png,min2.png,min3.png,min4.png,allBlank.png,,,,,,,,,,,,0,2,2,2,,,,,,,,,"(-0.25, -0.04)",images/min2.png,3,0.0548615159496,0.583275247889,[ 0.3296875 -0.025    ],,,2018_Jun_23_1622,59.683865406,sequenceLearningTask,001,146,
min1.png,min2.png,min3.png,min4.png,allBlank.png,,,,,,,,,,,,0,2,2,2,,,,,,,,,"(0.75, -0.04)",images/min4.png,3,0.0604016162397,0.49886461586,[-0.2375     -0.14166667],,,2018_Jun_23_1622,59.683865406,sequenceLearningTask,001,146,
min1.png,min2.png,min3.png,min4.png,allBlank.png,,,,,,,,,,,,0,2,2,2,,,,,,,,,"(0.75, -0.04)",images/min4.png,3,0.0636229482479,0.527330245197,[ 0.7421875   0.04166667],,,2018_Jun_23_1622,59.683865406,sequenceLearningTask,001,146,
min1.png,min2.png,min3.png,min4.png,allBlank.png,,,,,,,,,,,,0,2,2,2,,,,,,,,,"(-0.25, -0.04)",images/min2.png,3,0.0575934122753,0.495189540437,[ 0.6890625   0.05277778],,,2018_Jun_23_1622,59.683865406,sequenceLearningTask,001,146,
min1.png,min2.png,min3.png,min4.png,allBlank.png,,,,,,,,,,,,0,2,2,2,,,,,,,,,"(0.25, -0.04)",images/min3.png,3,0.0598990523431,0.488175799721,[-0.2984375  -0.11944444],,,2018_Jun_23_1622,59.683865406,sequenceLearningTask,001,146,
min1.png,min2.png,min3.png,min4.png,allBlank.png,,,,,,,,,,,,0,2,2,2,,,,,,,,,"(0.75, -0.04)",images/min4.png,3,0.0568003869557,0.536785831064,[ 0.3046875  -0.10555556],,,2018_Jun_23_1622,59.683865406,sequenceLearningTask,001,146,
min1.png,min2.png,min3.png,min4.png,allBlank.png,,,,,,,,,,,,0,3,3,3,,,,,,,,,"(-0.75, -0.04)",images/min1.png,4,0.0571351560502,0.628316049915,[ 0.8359375  -0.14444444],,,2018_Jun_23_1622,59.683865406,sequenceLearningTask,001,146,
min1.png,min2.png,min3.png,min4.png,allBlank.png,,,,,,,,,,,,0,3,3,3,,,,,,,,,"(0.25, -0.04)",images/min3.png,4,0.134639944765,0.407988755702,[-0.6984375  -0.00833333],,,2018_Jun_23_1622,59.683865406,sequenceLearningTask,001,146,
min1.png,min2.png,min3.png,min4.png,allBlank.png,,,,,,,,,,,,0,3,3,3,,,,,,,,,"(-0.25, -0.04)",images/min2.png,4,0.0606141289754,0.497259693439,[ 0.2578125  -0.15833333],,,2018_Jun_23_1622,59.683865406,sequenceLearningTask,001,146,
min1.png,min2.png,min3.png,min4.png,allBlank.png,,,,,,,,,,,,0,3,3,3,,,,,,,,,"(0.75, -0.04)",images/min4.png,4,0.0604028470116,0.613404056028,[-0.2125     -0.15555556],,,2018_Jun_23_1622,59.683865406,sequenceLearningTask,001,146,
min1.png,min2.png,min3.png,min4.png,allBlank.png,,,,,,,,,,,,0,3,3,3,,,,,,,,,"(0.75, -0.04)",images/min4.png,4,0.0587470528262,0.570109714827,[ 0.79375     0.00833333],,,2018_Jun_23_1622,59.683865406,sequenceLearningTask,001,146,
min1.png,min2.png,min3.png,min4.png,allBlank.png,,,,,,,,,,,,0,3,3,3,,,,,,,,,"(-0.25, -0.04)",images/min2.png,4,0.0604323854641,0.515148506602,[ 0.7390625  -0.07222222],,,2018_Jun_23_1622,59.683865406,sequenceLearningTask,001,146,
min1.png,min2.png,min3.png,min4.png,allBlank.png,,,,,,,,,,,,0,3,3,3,,,,,,,,,"(0.25, -0.04)",images/min3.png,4,0.0623860256892,0.513123071534,[-0.2984375 -0.15     ],,,2018_Jun_23_1622,59.683865406,sequenceLearningTask,001,146,
min1.png,min2.png,min3.png,min4.png,allBlank.png,,,,,,,,,,,,0,3,3,3,,,,,,,,,"(0.75, -0.04)",images/min4.png,4,0.053291875578,0.609773698554,[ 0.2953125  -0.04722222],,,2018_Jun_23_1622,59.683865406,sequenceLearningTask,001,146,
min1.png,min2.png,min3.png,min4.png,allBlank.png,,,,,,,,,,,,0,4,4,4,,,,,,,,,"(-0.75, -0.04)",images/min1.png,5,0.0541390547151,0.638595840574,[ 0.70625    -0.03611111],,,2018_Jun_23_1622,59.683865406,sequenceLearningTask,001,146,
min1.png,min2.png,min3.png,min4.png,allBlank.png,,,,,,,,,,,,0,4,4,4,,,,,,,,,"(0.25, -0.04)",images/min3.png,5,0.0564364896709,1.80332808068,[-0.7765625  -0.18055556],0.632376766196,1,2018_Jun_23_1622,59.683865406,sequenceLearningTask,001,146,
min1.png,min2.png,min3.png,min4.png,allBlank.png,,,,,,,,,,,,0,4,4,4,,,,,,,,,"(-0.25, -0.04)",images/min2.png,5,0.0492549541523,0.493815182024,[ 0.2265625 -0.2      ],,,2018_Jun_23_1622,59.683865406,sequenceLearningTask,001,146,
min1.png,min2.png,min3.png,min4.png,allBlank.png,,,,,,,,,,,,0,4,4,4,,,,,,,,,"(0.75, -0.04)",images/min4.png,5,0.0540775162808,0.659899626698,[-0.3171875  -0.15555556],,,2018_Jun_23_1622,59.683865406,sequenceLearningTask,001,146,
min1.png,min2.png,min3.png,min4.png,allBlank.png,,,,,,,,,,,,0,4,4,4,,,,,,,,,"(0.75, -0.04)",images/min4.png,5,0.0590194629622,0.600628266417,[ 0.6953125  -0.02777778],,,2018_Jun_23_1622,59.683865406,sequenceLearningTask,001,146,
min1.png,min2.png,min3.png,min4.png,allBlank.png,,,,,,,,,,,,0,4,4,4,,,,,,,,,"(-0.25, -0.04)",images/min2.png,5,0.0629234613589,0.464837552892,[ 0.7796875  -0.12222222],,,2018_Jun_23_1622,59.683865406,sequenceLearningTask,001,146,
min1.png,min2.png,min3.png,min4.png,allBlank.png,,,,,,,,,,,,0,4,4,4,,,,,,,,,"(0.25, -0.04)",images/min3.png,5,0.0634149483376,0.515953429349,[-0.2078125  -0.09722222],,,2018_Jun_23_1622,59.683865406,sequenceLearningTask,001,146,
min1.png,min2.png,min3.png,min4.png,allBlank.png,,,,,,,,,,,,0,4,4,4,,,,,,,,,"(0.75, -0.04)",images/min4.png,5,0.0556118746172,0.659251421836,[ 0.2671875  -0.16388889],,,2018_Jun_23_1622,59.683865406,sequenceLearningTask,001,146,
min1.png,min2.png,min3.png,min4.png,allBlank.png,,,,,,,,,,,,0,5,5,5,,,,,,,,,"(-0.75, -0.04)",images/min1.png,6,0.0539134137798,0.504938459504,[ 0.6609375  -0.00277778],,,2018_Jun_23_1622,59.683865406,sequenceLearningTask,001,146,
min1.png,min2.png,min3.png,min4.png,allBlank.png,,,,,,,,,,,,0,5,5,5,,,,,,,,,"(0.25, -0.04)",images/min3.png,6,0.0569825407292,0.518086761818,[-0.65625    -0.01944444],,,2018_Jun_23_1622,59.683865406,sequenceLearningTask,001,146,
min1.png,min2.png,min3.png,min4.png,allBlank.png,,,,,,,,,,,,0,5,5,5,,,,,,,,,"(-0.25, -0.04)",images/min2.png,6,0.0552455157886,0.605270315791,[ 0.3421875 -0.125    ],,,2018_Jun_23_1622,59.683865406,sequenceLearningTask,001,146,
min1.png,min2.png,min3.png,min4.png,allBlank.png,,,,,,,,,,,,0,5,5,5,,,,,,,,,"(0.75, -0.04)",images/min4.png,6,0.0504401844373,0.460406785467,[-0.2453125  -0.03888889],,,2018_Jun_23_1622,59.683865406,sequenceLearningTask,001,146,
min1.png,min2.png,min3.png,min4.png,allBlank.png,,,,,,,,,,,,0,5,5,5,,,,,,,,,"(0.75, -0.04)",images/min4.png,6,0.0605546418228,0.532017422753,[ 0.3609375  -0.89166667],,,2018_Jun_23_1622,59.683865406,sequenceLearningTask,001,146,
min1.png,min2.png,min3.png,min4.png,allBlank.png,,,,,,,,,,,,0,5,5,5,,,,,,,,,"(-0.25, -0.04)",images/min2.png,6,0.0578875659994,0.486803902852,[ 0.7        -0.13611111],,,2018_Jun_23_1622,59.683865406,sequenceLearningTask,001,146,
min1.png,min2.png,min3.png,min4.png,allBlank.png,,,,,,,,,,,,0,5,5,5,,,,,,,,,"(0.25, -0.04)",images/min3.png,6,0.0552734132216,0.441010690862,[-0.2734375  -0.10833333],,,2018_Jun_23_1622,59.683865406,sequenceLearningTask,001,146,
min1.png,min2.png,min3.png,min4.png,allBlank.png,,,,,,,,,,,,0,5,5,5,,,,,,,,,"(0.75, -0.04)",images/min4.png,6,0.0584098222025,0.661882395128,[ 0.2390625  -0.16944444],,,2018_Jun_23_1622,59.683865406,sequenceLearningTask,001,146,
min1.png,min2.png,min3.png,min4.png,allBlank.png,,,,,,,,,,,,0,6,6,6,,,,,,,,,"(-0.75, -0.04)",images/min1.png,7,0.0614219235285,0.596291447684,[ 0.7703125  -0.11944444],,,2018_Jun_23_1622,59.683865406,sequenceLearningTask,001,146,
min1.png,min2.png,min3.png,min4.png,allBlank.png,,,,,,,,,,,,0,6,6,6,,,,,,,,,"(0.25, -0.04)",images/min3.png,7,0.0530219269567,0.440935203718,[-0.6953125  -0.33055556],,,2018_Jun_23_1622,59.683865406,sequenceLearningTask,001,146,
min1.png,min2.png,min3.png,min4.png,allBlank.png,,,,,,,,,,,,0,6,6,6,,,,,,,,,"(-0.25, -0.04)",images/min2.png,7,0.0547478749795,0.54866726209,[ 0.2359375  -0.17777778],,,2018_Jun_23_1622,59.683865406,sequenceLearningTask,001,146,
min1.png,min2.png,min3.png,min4.png,allBlank.png,,,,,,,,,,,,0,6,6,6,,,,,,,,,"(0.75, -0.04)",images/min4.png,7,0.0569833612244,0.530003885127,[-0.1796875   0.05833333],,,2018_Jun_23_1622,59.683865406,sequenceLearningTask,001,146,
min1.png,min2.png,min3.png,min4.png,allBlank.png,,,,,,,,,,,,0,6,6,6,,,,,,,,,"(0.75, -0.04)",images/min4.png,7,0.0575786430563,0.570395663424,[ 0.940625    0.06388889],,,2018_Jun_23_1622,59.683865406,sequenceLearningTask,001,146,
min1.png,min2.png,min3.png,min4.png,allBlank.png,,,,,,,,,,,,0,6,6,6,,,,,,,,,"(-0.25, -0.04)",images/min2.png,7,0.0576414122479,0.46586729605,[ 0.7859375   0.01944444],,,2018_Jun_23_1622,59.683865406,sequenceLearningTask,001,146,
min1.png,min2.png,min3.png,min4.png,allBlank.png,,,,,,,,,,,,0,6,6,6,,,,,,,,,"(0.25, -0.04)",images/min3.png,7,0.0534613113996,0.486926569472,[-0.3203125   0.00277778],,,2018_Jun_23_1622,59.683865406,sequenceLearningTask,001,146,
min1.png,min2.png,min3.png,min4.png,allBlank.png,,,,,,,,,,,,0,6,6,6,,,,,,,,,"(0.75, -0.04)",images/min4.png,7,0.0562083871919,0.51813024898,[ 0.2859375 -0.05     ],,,2018_Jun_23_1622,59.683865406,sequenceLearningTask,001,146,
min1.png,min2.png,min3.png,min4.png,allBlank.png,,,,,,,,,,,,0,7,7,7,,,,,,,,,"(-0.75, -0.04)",images/min1.png,8,0.0551347466098,0.586436272235,[ 0.83125    -0.02777778],,,2018_Jun_23_1622,59.683865406,sequenceLearningTask,001,146,
min1.png,min2.png,min3.png,min4.png,allBlank.png,,,,,,,,,,,,0,7,7,7,,,,,,,,,"(0.25, -0.04)",images/min3.png,8,0.056558335782,0.568749715385,[-0.7296875  -0.15555556],,,2018_Jun_23_1622,59.683865406,sequenceLearningTask,001,146,
min1.png,min2.png,min3.png,min4.png,allBlank.png,,,,,,,,,,,,0,7,7,7,,,,,,,,,"(-0.25, -0.04)",images/min2.png,8,0.0660077677894,0.579253095697,[ 0.2234375   0.03611111],,,2018_Jun_23_1622,59.683865406,sequenceLearningTask,001,146,
min1.png,min2.png,min3.png,min4.png,allBlank.png,,,,,,,,,,,,0,7,7,7,,,,,,,,,"(0.75, -0.04)",images/min4.png,8,0.0571343355405,0.569848791856,[-0.16875     0.03611111],,,2018_Jun_23_1622,59.683865406,sequenceLearningTask,001,146,
min1.png,min2.png,min3.png,min4.png,allBlank.png,,,,,,,,,,,,0,7,7,7,,,,,,,,,"(0.75, -0.04)",images/min4.png,8,0.0520565940242,0.55993946259,[ 0.696875   -0.02222222],,,2018_Jun_23_1622,59.683865406,sequenceLearningTask,001,146,
min1.png,min2.png,min3.png,min4.png,allBlank.png,,,,,,,,,,,,0,7,7,7,,,,,,,,,"(-0.25, -0.04)",images/min2.png,8,0.0592225397995,0.532305422646,[ 0.7328125  -0.11666667],,,2018_Jun_23_1622,59.683865406,sequenceLearningTask,001,146,
min1.png,min2.png,min3.png,min4.png,allBlank.png,,,,,,,,,,,,0,7,7,7,,,,,,,,,"(0.25, -0.04)",images/min3.png,8,0.0578912583005,0.571444278379,[-0.1734375  0.       ],,,2018_Jun_23_1622,59.683865406,sequenceLearningTask,001,146,
min1.png,min2.png,min3.png,min4.png,allBlank.png,,,,,,,,,,,,0,7,7,7,,,,,,,,,"(0.75, -0.04)",images/min4.png,8,0.052054132495,0.607937801877,[ 0.3015625  -0.09722222],,,2018_Jun_23_1622,59.683865406,sequenceLearningTask,001,146,
min1.png,min2.png,min3.png,min4.png,allBlank.png,,,,,,,,,,,,0,8,8,8,,,,,,,,,"(-0.75, -0.04)",images/min1.png,9,0.0548094133992,0.547281006235,[ 0.728125   -0.26388889],,,2018_Jun_23_1622,59.683865406,sequenceLearningTask,001,146,
min1.png,min2.png,min3.png,min4.png,allBlank.png,,,,,,,,,,,,0,8,8,8,,,,,,,,,"(0.25, -0.04)",images/min3.png,9,0.0566875664808,0.553604695946,[-0.7        -0.09722222],,,2018_Jun_23_1622,59.683865406,sequenceLearningTask,001,146,
min1.png,min2.png,min3.png,min4.png,allBlank.png,,,,,,,,,,,,0,8,8,8,,,,,,,,,"(-0.25, -0.04)",images/min2.png,9,0.0606005905138,0.513067276697,[ 0.3203125   0.02222222],,,2018_Jun_23_1622,59.683865406,sequenceLearningTask,001,146,
min1.png,min2.png,min3.png,min4.png,allBlank.png,,,,,,,,,,,,0,8,8,8,,,,,,,,,"(0.75, -0.04)",images/min4.png,9,0.0556114643696,0.584012068095,[-0.2859375  -0.02777778],,,2018_Jun_23_1622,59.683865406,sequenceLearningTask,001,146,
min1.png,min2.png,min3.png,min4.png,allBlank.png,,,,,,,,,,,,0,8,8,8,,,,,,,,,"(0.75, -0.04)",images/min4.png,9,0.0525025425595,0.489577235043,[ 0.690625   -0.13611111],,,2018_Jun_23_1622,59.683865406,sequenceLearningTask,001,146,
min1.png,min2.png,min3.png,min4.png,allBlank.png,,,,,,,,,,,,0,8,8,8,,,,,,,,,"(-0.25, -0.04)",images/min2.png,9,0.0565160793776,0.554744798064,[ 0.7046875   0.04722222],,,2018_Jun_23_1622,59.683865406,sequenceLearningTask,001,146,
min1.png,min2.png,min3.png,min4.png,allBlank.png,,,,,,,,,,,,0,8,8,8,,,,,,,,,"(0.25, -0.04)",images/min3.png,9,0.0569107458869,0.468478987299,[-0.2484375  -0.09722222],,,2018_Jun_23_1622,59.683865406,sequenceLearningTask,001,146,
min1.png,min2.png,min3.png,min4.png,allBlank.png,,,,,,,,,,,,0,8,8,8,,,,,,,,,"(0.75, -0.04)",images/min4.png,9,0.0564340281417,0.570060073835,[ 0.2359375 -0.175    ],,,2018_Jun_23_1622,59.683865406,sequenceLearningTask,001,146,
min1.png,min2.png,min3.png,min4.png,allBlank.png,,,,,,,,,,,,0,9,9,9,,,,,,,,,"(-0.75, -0.04)",images/min1.png,10,0.0571257201518,0.601437701975,[ 0.7234375  -0.28611111],,,2018_Jun_23_1622,59.683865406,sequenceLearningTask,001,146,
min1.png,min2.png,min3.png,min4.png,allBlank.png,,,,,,,,,,,,0,9,9,9,,,,,,,,,"(0.25, -0.04)",images/min3.png,10,0.0589127963467,0.536042036503,[-0.6609375  -0.20555556],,,2018_Jun_23_1622,59.683865406,sequenceLearningTask,001,146,
min1.png,min2.png,min3.png,min4.png,allBlank.png,,,,,,,,,,,,0,9,9,9,,,,,,,,,"(-0.25, -0.04)",images/min2.png,10,0.070851663244,0.56854089495,[ 0.2578125   0.06944444],,,2018_Jun_23_1622,59.683865406,sequenceLearningTask,001,146,
min1.png,min2.png,min3.png,min4.png,allBlank.png,,,,,,,,,,,,0,9,9,9,,,,,,,,,"(0.75, -0.04)",images/min4.png,10,0.0598703344149,0.58167688956,[-0.2640625  -0.08888889],,,2018_Jun_23_1622,59.683865406,sequenceLearningTask,001,146,
min1.png,min2.png,min3.png,min4.png,allBlank.png,,,,,,,,,,,,0,9,9,9,,,,,,,,,"(0.75, -0.04)",images/min4.png,10,0.0632311535446,0.563735153337,[ 0.69375    -0.15277778],,,2018_Jun_23_1622,59.683865406,sequenceLearningTask,001,146,
min1.png,min2.png,min3.png,min4.png,allBlank.png,,,,,,,,,,,,0,9,9,9,,,,,,,,,"(-0.25, -0.04)",images/min2.png,10,0.0516939275112,0.60222826575,[ 0.60625    -0.03055556],,,2018_Jun_23_1622,59.683865406,sequenceLearningTask,001,146,
min1.png,min2.png,min3.png,min4.png,allBlank.png,,,,,,,,,,,,0,9,9,9,,,,,,,,,"(0.25, -0.04)",images/min3.png,10,0.0553017209022,0.654553987872,[-0.1625     -0.10833333],,,2018_Jun_23_1622,59.683865406,sequenceLearningTask,001,146,
min1.png,min2.png,min3.png,min4.png,allBlank.png,,,,,,,,,,,,0,9,9,9,,,,,,,,,"(0.75, -0.04)",images/min4.png,10,0.055551977217,0.534356293603,[ 0.2515625  -0.03333333],,,2018_Jun_23_1622,59.683865406,sequenceLearningTask,001,146,
min1.png,min2.png,min3.png,min4.png,images/allBlank.png,"['num_7', 'num_4', 'num_1', 'num_0']",['num_4'],num_4,[2],'num_4',images/min2.png,"[(0.45, 0.79)]",,,,,0,-1,-1,0,0,0,0,1,,,,,"(-0.25, 0.04)",images/min2.png,1,0.0881747330568,0.918554289819,[ 0.9984375  -0.18055556],,,2018_Jun_23_1622,59.683865406,sequenceLearningTask,001,146,
min1.png,min2.png,min3.png,min4.png,images/allBlank.png,"['num_7', 'num_4', 'num_1', 'num_0']",['num_4'],num_4,[2],'num_4',images/min2.png,"[(0.45, 0.79)]",,,,,0,-1,-1,0,0,0,0,1,,,,,"(0.75, 0.04)",images/min4.png,1,0.0600524881884,0.575644071534,[-0.253125 -0.275   ],,,2018_Jun_23_1622,59.683865406,sequenceLearningTask,001,146,
min1.png,min2.png,min3.png,min4.png,images/allBlank.png,"['num_7', 'num_4', 'num_1', 'num_0']",['num_4'],num_4,[2],'num_4',images/min2.png,"[(0.45, 0.79)]",,,,,0,-1,-1,0,0,0,0,1,,,,,"(0.75, 0.04)",images/min4.png,1,0.0596077704104,0.499642461698,[ 0.7296875  -0.21666667],,,2018_Jun_23_1622,59.683865406,sequenceLearningTask,001,146,
min1.png,min2.png,min3.png,min4.png,images/allBlank.png,"['num_7', 'num_4', 'num_1', 'num_0']",['num_4'],num_4,[2],'num_4',images/min2.png,"[(0.45, 0.79)]",,,,,0,-1,-1,0,0,0,0,1,,,,,"(-0.25, 0.04)",images/min2.png,1,0.0657378191827,0.391776249526,[ 0.7359375  -0.15277778],,,2018_Jun_23_1622,59.683865406,sequenceLearningTask,001,146,
min1.png,min2.png,min3.png,min4.png,images/allBlank.png,"['num_7', 'num_4', 'num_1', 'num_0']",['num_0'],num_0,[4],'num_0',images/min4.png,"[(0.45, 0.79)]",,,,,0,-1,-1,0,0,1,1,3,,,,,"(0.25, 0.04)",images/min3.png,2,0.0540073624579,0.467634679953,[-0.2109375  -0.13055556],,,2018_Jun_23_1622,59.683865406,sequenceLearningTask,001,146,
min1.png,min2.png,min3.png,min4.png,images/allBlank.png,"['num_7', 'num_4', 'num_1', 'num_0']",['num_0'],num_0,[4],'num_0',images/min4.png,"[(0.45, 0.79)]",,,,,0,-1,-1,0,0,1,1,3,,,,,"(-0.25, 0.04)",images/min2.png,2,0.0674539210449,0.455224428631,[ 0.2640625  -0.12777778],,,2018_Jun_23_1622,59.683865406,sequenceLearningTask,001,146,
min1.png,min2.png,min3.png,min4.png,images/allBlank.png,"['num_7', 'num_4', 'num_1', 'num_0']",['num_0'],num_0,[4],'num_0',images/min4.png,"[(0.45, 0.79)]",,,,,0,-1,-1,0,0,1,1,3,,,,,"(0.25, 0.04)",images/min3.png,2,0.0627011024771,0.51296717416,[-0.2421875  -0.18611111],,,2018_Jun_23_1622,59.683865406,sequenceLearningTask,001,146,
min1.png,min2.png,min3.png,min4.png,images/allBlank.png,"['num_7', 'num_4', 'num_1', 'num_0']",['num_0'],num_0,[4],'num_0',images/min4.png,"[(0.45, 0.79)]",,,,,0,-1,-1,0,0,1,1,3,,,,,"(-0.75, 0.04)",images/min1.png,2,0.0572570021614,0.58586068271,[ 0.3        -0.02222222],,,2018_Jun_23_1622,59.683865406,sequenceLearningTask,001,146,
min1.png,min2.png,min3.png,min4.png,images/allBlank.png,"['num_7', 'num_4', 'num_1', 'num_0']",['num_1'],num_1,[3],'num_1',images/min3.png,"[(0.45, 0.79)]",,,,,0,-1,-1,0,0,2,2,2,,,,,"(-0.75, 0.04)",images/min1.png,3,0.0539068496728,0.657913165982,[-0.765625   -0.15833333],,,2018_Jun_23_1622,59.683865406,sequenceLearningTask,001,146,
min1.png,min2.png,min3.png,min4.png,images/allBlank.png,"['num_7', 'num_4', 'num_1', 'num_0']",['num_1'],num_1,[3],'num_1',images/min3.png,"[(0.45, 0.79)]",,,,,0,-1,-1,0,0,2,2,2,,,,,"(-0.25, 0.04)",images/min2.png,3,0.0574030533753,0.500468717757,[-0.7828125  -0.30277778],,,2018_Jun_23_1622,59.683865406,sequenceLearningTask,001,146,
min1.png,min2.png,min3.png,min4.png,images/allBlank.png,"['num_7', 'num_4', 'num_1', 'num_0']",['num_1'],num_1,[3],'num_1',images/min3.png,"[(0.45, 0.79)]",,,,,0,-1,-1,0,0,2,2,2,,,,,"(-0.75, 0.04)",images/min1.png,3,0.0556467464048,0.684523616612,[-0.1859375  -0.05833333],,,2018_Jun_23_1622,59.683865406,sequenceLearningTask,001,146,
min1.png,min2.png,min3.png,min4.png,images/allBlank.png,"['num_7', 'num_4', 'num_1', 'num_0']",['num_1'],num_1,[3],'num_1',images/min3.png,"[(0.45, 0.79)]",,,,,0,-1,-1,0,0,2,2,2,,,,,"(-0.75, 0.04)",images/min1.png,3,0.0538539266272,0.655388859333,[-0.6890625  -0.27777778],,,2018_Jun_23_1622,59.683865406,sequenceLearningTask,001,146,
min1.png,min2.png,min3.png,min4.png,images/allBlank.png,"['num_7', 'num_4', 'num_1', 'num_0']",['num_7'],num_7,[1],'num_7',images/min1.png,"[(0.45, 0.79)]",,,,,0,-1,-1,0,0,3,3,0,,,,,"(-0.75, 0.04)",images/min1.png,4,0.0669722802122,0.568759151283,[-0.6546875  -0.20277778],,,2018_Jun_23_1622,59.683865406,sequenceLearningTask,001,146,
min1.png,min2.png,min3.png,min4.png,images/allBlank.png,"['num_7', 'num_4', 'num_1', 'num_0']",['num_7'],num_7,[1],'num_7',images/min1.png,"[(0.45, 0.79)]",,,,,0,-1,-1,0,0,3,3,0,,,,,"(0.25, 0.04)",images/min3.png,4,0.0593345397647,0.447644944565,[-0.6171875  -0.11944444],,,2018_Jun_23_1622,59.683865406,sequenceLearningTask,001,146,
min1.png,min2.png,min3.png,min4.png,images/allBlank.png,"['num_7', 'num_4', 'num_1', 'num_0']",['num_7'],num_7,[1],'num_7',images/min1.png,"[(0.45, 0.79)]",,,,,0,-1,-1,0,0,3,3,0,,,,,"(-0.75, 0.04)",images/min1.png,4,0.0627372050367,0.594663961165,[ 0.1703125  0.05     ],,,2018_Jun_23_1622,59.683865406,sequenceLearningTask,001,146,
min1.png,min2.png,min3.png,min4.png,images/allBlank.png,"['num_7', 'num_4', 'num_1', 'num_0']",['num_7'],num_7,[1],'num_7',images/min1.png,"[(0.45, 0.79)]",,,,,0,-1,-1,0,0,3,3,0,,,,,"(0.25, 0.04)",images/min3.png,4,0.0553726952348,0.604574110941,[-0.6109375  -0.03333333],,,2018_Jun_23_1622,59.683865406,sequenceLearningTask,001,146,
min1.png,min2.png,min3.png,min4.png,images/allBlank.png,"['num_7', 'num_4', 'num_1', 'num_0']",['num_1'],num_1,[3],'num_1',images/min3.png,"[(0.45, 0.79)]",,,,,0,-1,-1,0,1,0,4,2,,,,,"(0.25, 0.04)",images/min3.png,5,0.0591753603367,0.495888206817,[ 0.2046875  -0.16666667],,,2018_Jun_23_1622,59.683865406,sequenceLearningTask,001,146,
min1.png,min2.png,min3.png,min4.png,images/allBlank.png,"['num_7', 'num_4', 'num_1', 'num_0']",['num_1'],num_1,[3],'num_1',images/min3.png,"[(0.45, 0.79)]",,,,,0,-1,-1,0,1,0,4,2,,,,,"(0.25, 0.04)",images/min3.png,5,0.0669214084483,0.475475497238,[ 0.3125     -0.04722222],,,2018_Jun_23_1622,59.683865406,sequenceLearningTask,001,146,
min1.png,min2.png,min3.png,min4.png,images/allBlank.png,"['num_7', 'num_4', 'num_1', 'num_0']",['num_1'],num_1,[3],'num_1',images/min3.png,"[(0.45, 0.79)]",,,,,0,-1,-1,0,1,0,4,2,,,,,"(-0.25, 0.04)",images/min2.png,5,0.0570633612078,0.58477350368,[ 0.1859375 -0.225    ],,,2018_Jun_23_1622,59.683865406,sequenceLearningTask,001,146,
min1.png,min2.png,min3.png,min4.png,images/allBlank.png,"['num_7', 'num_4', 'num_1', 'num_0']",['num_1'],num_1,[3],'num_1',images/min3.png,"[(0.45, 0.79)]",,,,,0,-1,-1,0,1,0,4,2,,,,,"(-0.75, 0.04)",images/min1.png,5,0.0600159753812,0.799671466812,[-0.2515625  0.       ],,,2018_Jun_23_1622,59.683865406,sequenceLearningTask,001,146,
min1.png,min2.png,min3.png,min4.png,images/allBlank.png,"['num_7', 'num_4', 'num_1', 'num_0']",['num_7'],num_7,[1],'num_7',images/min1.png,"[(0.45, 0.79)]",,,,,0,-1,-1,0,1,1,5,0,,,,,"(0.75, 0.04)",images/min4.png,6,0.0569226433145,0.466842475143,[-0.7390625  -0.26666667],,,2018_Jun_23_1622,59.683865406,sequenceLearningTask,001,146,
min1.png,min2.png,min3.png,min4.png,images/allBlank.png,"['num_7', 'num_4', 'num_1', 'num_0']",['num_7'],num_7,[1],'num_7',images/min1.png,"[(0.45, 0.79)]",,,,,0,-1,-1,0,1,1,5,0,,,,,"(0.25, 0.04)",images/min3.png,6,0.0600262317894,0.462897861376,[ 0.721875   -0.11666667],,,2018_Jun_23_1622,59.683865406,sequenceLearningTask,001,146,
min1.png,min2.png,min3.png,min4.png,images/allBlank.png,"['num_7', 'num_4', 'num_1', 'num_0']",['num_7'],num_7,[1],'num_7',images/min1.png,"[(0.45, 0.79)]",,,,,0,-1,-1,0,1,1,5,0,,,,,"(-0.25, 0.04)",images/min2.png,6,0.0674535107828,0.386792456702,[ 0.2390625  -0.18611111],,,2018_Jun_23_1622,59.683865406,sequenceLearningTask,001,146,
min1.png,min2.png,min3.png,min4.png,images/allBlank.png,"['num_7', 'num_4', 'num_1', 'num_0']",['num_7'],num_7,[1],'num_7',images/min1.png,"[(0.45, 0.79)]",,,,,0,-1,-1,0,1,1,5,0,,,,,"(-0.25, 0.04)",images/min2.png,6,0.0655753577012,0.595861499125,[-0.3421875  -0.00833333],,,2018_Jun_23_1622,59.683865406,sequenceLearningTask,001,146,
min1.png,min2.png,min3.png,min4.png,images/allBlank.png,"['num_7', 'num_4', 'num_1', 'num_0']",['num_4'],num_4,[2],'num_4',images/min2.png,"[(0.45, 0.79)]",,,,,0,-1,-1,0,1,2,6,1,,,,,"(-0.75, 0.04)",images/min1.png,7,0.0548102339235,0.516644711126,[-0.3296875   0.03611111],,,2018_Jun_23_1622,59.683865406,sequenceLearningTask,001,146,
min1.png,min2.png,min3.png,min4.png,images/allBlank.png,"['num_7', 'num_4', 'num_1', 'num_0']",['num_4'],num_4,[2],'num_4',images/min2.png,"[(0.45, 0.79)]",,,,,0,-1,-1,0,1,2,6,1,,,,,"(0.75, 0.04)",images/min4.png,7,0.0556533105118,0.555932489879,[-0.7359375  -0.02777778],,,2018_Jun_23_1622,59.683865406,sequenceLearningTask,001,146,
min1.png,min2.png,min3.png,min4.png,images/allBlank.png,"['num_7', 'num_4', 'num_1', 'num_0']",['num_4'],num_4,[2],'num_4',images/min2.png,"[(0.45, 0.79)]",,,,,0,-1,-1,0,1,2,6,1,,,,,"(-0.25, 0.04)",images/min2.png,7,0.0650387425412,0.692755408105,[ 0.765625   -0.04166667],,,2018_Jun_23_1622,59.683865406,sequenceLearningTask,001,146,
min1.png,min2.png,min3.png,min4.png,images/allBlank.png,"['num_7', 'num_4', 'num_1', 'num_0']",['num_4'],num_4,[2],'num_4',images/min2.png,"[(0.45, 0.79)]",,,,,0,-1,-1,0,1,2,6,1,,,,,"(0.25, 0.04)",images/min3.png,7,0.0667331008299,0.60699010994,[-0.1671875  -0.13055556],,,2018_Jun_23_1622,59.683865406,sequenceLearningTask,001,146,
min1.png,min2.png,min3.png,min4.png,images/allBlank.png,"['num_7', 'num_4', 'num_1', 'num_0']",['num_0'],num_0,[4],'num_0',images/min4.png,"[(0.45, 0.79)]",,,,,0,-1,-1,0,1,3,7,3,,,,,"(-0.75, 0.04)",images/min1.png,8,0.060308898348,0.491600208567,[ 0.1953125 -0.15     ],,,2018_Jun_23_1622,59.683865406,sequenceLearningTask,001,146,
min1.png,min2.png,min3.png,min4.png,images/allBlank.png,"['num_7', 'num_4', 'num_1', 'num_0']",['num_0'],num_0,[4],'num_0',images/min4.png,"[(0.45, 0.79)]",,,,,0,-1,-1,0,1,3,7,3,,,,,"(0.25, 0.04)",images/min3.png,8,0.0595072576252,0.462274271893,[-0.6453125  -0.18611111],,,2018_Jun_23_1622,59.683865406,sequenceLearningTask,001,146,
min1.png,min2.png,min3.png,min4.png,images/allBlank.png,"['num_7', 'num_4', 'num_1', 'num_0']",['num_0'],num_0,[4],'num_0',images/min4.png,"[(0.45, 0.79)]",,,,,0,-1,-1,0,1,3,7,3,,,,,"(0.25, 0.04)",images/min3.png,8,0.0588565912476,0.464934373362,[ 0.25 -0.15],,,2018_Jun_23_1622,59.683865406,sequenceLearningTask,001,146,
min1.png,min2.png,min3.png,min4.png,images/allBlank.png,"['num_7', 'num_4', 'num_1', 'num_0']",['num_0'],num_0,[4],'num_0',images/min4.png,"[(0.45, 0.79)]",,,,,0,-1,-1,0,1,3,7,3,,,,,"(0.25, 0.04)",images/min3.png,8,0.0555536182219,0.419494392001,[ 0.1796875  0.025    ],,,2018_Jun_23_1622,59.683865406,sequenceLearningTask,001,146,
min1.png,min2.png,min3.png,min4.png,images/allBlank.png,"['num_7', 'num_4', 'num_1', 'num_0']",['num_4'],num_4,[2],'num_4',images/min2.png,"[(0.45, 0.79)]",,,,,0,-1,-1,0,2,0,8,1,,,,,"(0.25, 0.04)",images/min3.png,9,0.0527802860452,0.433573565708,[ 0.1984375   0.01944444],,,2018_Jun_23_1622,59.683865406,sequenceLearningTask,001,146,
min1.png,min2.png,min3.png,min4.png,images/allBlank.png,"['num_7', 'num_4', 'num_1', 'num_0']",['num_4'],num_4,[2],'num_4',images/min2.png,"[(0.45, 0.79)]",,,,,0,-1,-1,0,2,0,8,1,,,,,"(-0.25, 0.04)",images/min2.png,9,0.0616771029017,0.481395905066,[ 0.271875   -0.06388889],,,2018_Jun_23_1622,59.683865406,sequenceLearningTask,001,146,
min1.png,min2.png,min3.png,min4.png,images/allBlank.png,"['num_7', 'num_4', 'num_1', 'num_0']",['num_4'],num_4,[2],'num_4',images/min2.png,"[(0.45, 0.79)]",,,,,0,-1,-1,0,2,0,8,1,,,,,"(-0.75, 0.04)",images/min1.png,9,0.0627564870811,0.72825898329,[-0.2609375 -0.075    ],,,2018_Jun_23_1622,59.683865406,sequenceLearningTask,001,146,
min1.png,min2.png,min3.png,min4.png,images/allBlank.png,"['num_7', 'num_4', 'num_1', 'num_0']",['num_4'],num_4,[2],'num_4',images/min2.png,"[(0.45, 0.79)]",,,,,0,-1,-1,0,2,0,8,1,,,,,"(0.25, 0.04)",images/min3.png,9,0.0562260282168,0.41669808545,[-0.7859375  -0.21388889],,,2018_Jun_23_1622,59.683865406,sequenceLearningTask,001,146,
min1.png,min2.png,min3.png,min4.png,images/allBlank.png,"['num_7', 'num_4', 'num_1', 'num_0']",['num_1'],num_1,[3],'num_1',images/min3.png,"[(0.45, 0.79)]",,,,,0,-1,-1,0,2,1,9,2,,,,,"(-0.25, 0.04)",images/min2.png,10,0.0530018244172,0.485723287915,[ 0.253125   -0.08888889],,,2018_Jun_23_1622,59.683865406,sequenceLearningTask,001,146,
min1.png,min2.png,min3.png,min4.png,images/allBlank.png,"['num_7', 'num_4', 'num_1', 'num_0']",['num_1'],num_1,[3],'num_1',images/min3.png,"[(0.45, 0.79)]",,,,,0,-1,-1,0,2,1,9,2,,,,,"(-0.75, 0.04)",images/min1.png,10,0.0635154611227,1.19946412329,[-0.1953125   0.08055556],0.610629082817,1,2018_Jun_23_1622,59.683865406,sequenceLearningTask,001,146,
min1.png,min2.png,min3.png,min4.png,images/allBlank.png,"['num_7', 'num_4', 'num_1', 'num_0']",['num_1'],num_1,[3],'num_1',images/min3.png,"[(0.45, 0.79)]",,,,,0,-1,-1,0,2,1,9,2,,,,,"(-0.25, 0.04)",images/min2.png,10,0.0570740278636,0.628760767693,[-0.665625   -0.14722222],,,2018_Jun_23_1622,59.683865406,sequenceLearningTask,001,146,
min1.png,min2.png,min3.png,min4.png,images/allBlank.png,"['num_7', 'num_4', 'num_1', 'num_0']",['num_1'],num_1,[3],'num_1',images/min3.png,"[(0.45, 0.79)]",,,,,0,-1,-1,0,2,1,9,2,,,,,"(0.25, 0.04)",images/min3.png,10,0.056463156332,0.483653545161,[-0.2625     -0.16111111],,,2018_Jun_23_1622,59.683865406,sequenceLearningTask,001,146,
min1.png,min2.png,min3.png,min4.png,images/allBlank.png,"['num_7', 'num_4', 'num_1', 'num_0']",['num_0'],num_0,[4],'num_0',images/min4.png,"[(0.45, 0.79)]",,,,,0,-1,-1,0,2,2,10,3,,,,,"(-0.25, 0.04)",images/min2.png,11,0.0652040758141,0.605744161745,[ 0.25       -0.24722222],,,2018_Jun_23_1622,59.683865406,sequenceLearningTask,001,146,
min1.png,min2.png,min3.png,min4.png,images/allBlank.png,"['num_7', 'num_4', 'num_1', 'num_0']",['num_0'],num_0,[4],'num_0',images/min4.png,"[(0.45, 0.79)]",,,,,0,-1,-1,0,2,2,10,3,,,,,"(0.75, 0.04)",images/min4.png,11,0.0579581300699,0.601378214822,[-0.3203125  -0.17222222],,,2018_Jun_23_1622,59.683865406,sequenceLearningTask,001,146,
min1.png,min2.png,min3.png,min4.png,images/allBlank.png,"['num_7', 'num_4', 'num_1', 'num_0']",['num_0'],num_0,[4],'num_0',images/min4.png,"[(0.45, 0.79)]",,,,,0,-1,-1,0,2,2,10,3,,,,,"(0.25, 0.04)",images/min3.png,11,0.060699872527,0.529442244326,[ 0.7265625  -0.11944444],,,2018_Jun_23_1622,59.683865406,sequenceLearningTask,001,146,
min1.png,min2.png,min3.png,min4.png,images/allBlank.png,"['num_7', 'num_4', 'num_1', 'num_0']",['num_0'],num_0,[4],'num_0',images/min4.png,"[(0.45, 0.79)]",,,,,0,-1,-1,0,2,2,10,3,,,,,"(0.75, 0.04)",images/min4.png,11,0.0588812066126,0.578119147438,[ 0.24375    -0.01666667],,,2018_Jun_23_1622,59.683865406,sequenceLearningTask,001,146,
min1.png,min2.png,min3.png,min4.png,images/allBlank.png,"['num_7', 'num_4', 'num_1', 'num_0']",['num_7'],num_7,[1],'num_7',images/min1.png,"[(0.45, 0.79)]",,,,,0,-1,-1,0,2,3,11,0,,,,,"(0.75, 0.04)",images/min4.png,12,0.063540897012,0.60965923706,[ 0.5875     -0.09166667],,,2018_Jun_23_1622,59.683865406,sequenceLearningTask,001,146,
min1.png,min2.png,min3.png,min4.png,images/allBlank.png,"['num_7', 'num_4', 'num_1', 'num_0']",['num_7'],num_7,[1],'num_7',images/min1.png,"[(0.45, 0.79)]",,,,,0,-1,-1,0,2,3,11,0,,,,,"(-0.25, 0.04)",images/min2.png,12,0.0571404893853,0.579695351917,[ 0.65625 -0.05   ],,,2018_Jun_23_1622,59.683865406,sequenceLearningTask,001,146,
min1.png,min2.png,min3.png,min4.png,images/allBlank.png,"['num_7', 'num_4', 'num_1', 'num_0']",['num_7'],num_7,[1],'num_7',images/min1.png,"[(0.45, 0.79)]",,,,,0,-1,-1,0,2,3,11,0,,,,,"(-0.75, 0.04)",images/min1.png,12,0.063127358706,0.643183736131,[-0.2296875 -0.05     ],,,2018_Jun_23_1622,59.683865406,sequenceLearningTask,001,146,
min1.png,min2.png,min3.png,min4.png,images/allBlank.png,"['num_7', 'num_4', 'num_1', 'num_0']",['num_7'],num_7,[1],'num_7',images/min1.png,"[(0.45, 0.79)]",,,,,0,-1,-1,0,2,3,11,0,,,,,"(0.25, 0.04)",images/min3.png,12,0.0599761805206,0.495535796712,[-0.5984375 -0.325    ],,,2018_Jun_23_1622,59.683865406,sequenceLearningTask,001,146,
min1.png,min2.png,min3.png,min4.png,images/allBlank.png,"['num_7', 'num_4', 'num_1', 'num_0']",['num_4'],num_4,[2],'num_4',images/min2.png,"[(0.45, 0.79)]",,,,,0,-1,-1,0,3,0,12,1,,,,,"(0.75, 0.04)",images/min4.png,13,0.059933103621,0.529393013581,[ 0.159375   -0.26666667],,,2018_Jun_23_1622,59.683865406,sequenceLearningTask,001,146,
min1.png,min2.png,min3.png,min4.png,images/allBlank.png,"['num_7', 'num_4', 'num_1', 'num_0']",['num_4'],num_4,[2],'num_4',images/min2.png,"[(0.45, 0.79)]",,,,,0,-1,-1,0,3,0,12,1,,,,,"(-0.75, 0.04)",images/min1.png,13,0.0622412052326,0.582525709746,[ 0.71875    -0.06111111],,,2018_Jun_23_1622,59.683865406,sequenceLearningTask,001,146,
min1.png,min2.png,min3.png,min4.png,images/allBlank.png,"['num_7', 'num_4', 'num_1', 'num_0']",['num_4'],num_4,[2],'num_4',images/min2.png,"[(0.45, 0.79)]",,,,,0,-1,-1,0,3,0,12,1,,,,,"(-0.75, 0.04)",images/min1.png,13,0.0669821263727,0.642455531299,[-0.60625    -0.21944444],,,2018_Jun_23_1622,59.683865406,sequenceLearningTask,001,146,
min1.png,min2.png,min3.png,min4.png,images/allBlank.png,"['num_7', 'num_4', 'num_1', 'num_0']",['num_4'],num_4,[2],'num_4',images/min2.png,"[(0.45, 0.79)]",,,,,0,-1,-1,0,3,0,12,1,,,,,"(-0.75, 0.04)",images/min1.png,13,0.0572512585641,0.58921288648,[-0.7640625 -0.175    ],,,2018_Jun_23_1622,59.683865406,sequenceLearningTask,001,146,
min1.png,min2.png,min3.png,min4.png,images/allBlank.png,"['num_7', 'num_4', 'num_1', 'num_0']",['num_7'],num_7,[1],'num_7',images/min1.png,"[(0.45, 0.79)]",,,,,0,-1,-1,0,3,1,13,0,,,,,"(-0.25, 0.04)",images/min2.png,14,0.0587983348523,0.498577846738,[-0.7921875  -0.13055556],,,2018_Jun_23_1622,59.683865406,sequenceLearningTask,001,146,
min1.png,min2.png,min3.png,min4.png,images/allBlank.png,"['num_7', 'num_4', 'num_1', 'num_0']",['num_7'],num_7,[1],'num_7',images/min1.png,"[(0.45, 0.79)]",,,,,0,-1,-1,0,3,1,13,0,,,,,"(0.75, 0.04)",images/min4.png,14,0.0664582291502,0.493851694831,[-0.2515625  -0.06111111],,,2018_Jun_23_1622,59.683865406,sequenceLearningTask,001,146,
min1.png,min2.png,min3.png,min4.png,images/allBlank.png,"['num_7', 'num_4', 'num_1', 'num_0']",['num_7'],num_7,[1],'num_7',images/min1.png,"[(0.45, 0.79)]",,,,,0,-1,-1,0,3,1,13,0,,,,,"(0.75, 0.04)",images/min4.png,14,0.0617784361966,0.561127564666,[ 0.7375     -0.14166667],,,2018_Jun_23_1622,59.683865406,sequenceLearningTask,001,146,
min1.png,min2.png,min3.png,min4.png,images/allBlank.png,"['num_7', 'num_4', 'num_1', 'num_0']",['num_7'],num_7,[1],'num_7',images/min1.png,"[(0.45, 0.79)]",,,,,0,-1,-1,0,3,1,13,0,,,,,"(0.75, 0.04)",images/min4.png,14,0.0629706408363,0.513128815131,[ 0.7671875  -0.01388889],,,2018_Jun_23_1622,59.683865406,sequenceLearningTask,001,146,
min1.png,min2.png,min3.png,min4.png,images/allBlank.png,"['num_7', 'num_4', 'num_1', 'num_0']",['num_1'],num_1,[3],'num_1',images/min3.png,"[(0.45, 0.79)]",,,,,0,-1,-1,0,3,2,14,2,,,,,"(-0.75, 0.04)",images/min1.png,15,0.0539158753236,0.596707857767,[ 0.7921875   0.03888889],,,2018_Jun_23_1622,59.683865406,sequenceLearningTask,001,146,
min1.png,min2.png,min3.png,min4.png,images/allBlank.png,"['num_7', 'num_4', 'num_1', 'num_0']",['num_1'],num_1,[3],'num_1',images/min3.png,"[(0.45, 0.79)]",,,,,0,-1,-1,0,3,2,14,2,,,,,"(0.75, 0.04)",images/min4.png,15,0.067981100321,0.439980127179,[-0.7078125  -0.19166667],,,2018_Jun_23_1622,59.683865406,sequenceLearningTask,001,146,
min1.png,min2.png,min3.png,min4.png,images/allBlank.png,"['num_7', 'num_4', 'num_1', 'num_0']",['num_1'],num_1,[3],'num_1',images/min3.png,"[(0.45, 0.79)]",,,,,0,-1,-1,0,3,2,14,2,,,,,"(0.25, 0.04)",images/min3.png,15,0.0649644861551,0.525545630546,[ 0.6734375  -0.18055556],,,2018_Jun_23_1622,59.683865406,sequenceLearningTask,001,146,
min1.png,min2.png,min3.png,min4.png,images/allBlank.png,"['num_7', 'num_4', 'num_1', 'num_0']",['num_1'],num_1,[3],'num_1',images/min3.png,"[(0.45, 0.79)]",,,,,0,-1,-1,0,3,2,14,2,,,,,"(-0.25, 0.04)",images/min2.png,15,0.0551868491457,0.434683308849,[ 0.2546875   0.01388889],,,2018_Jun_23_1622,59.683865406,sequenceLearningTask,001,146,
min1.png,min2.png,min3.png,min4.png,images/allBlank.png,"['num_7', 'num_4', 'num_1', 'num_0']",['num_0'],num_0,[4],'num_0',images/min4.png,"[(0.45, 0.79)]",,,,,0,-1,-1,0,3,3,15,3,,,,,"(-0.75, 0.04)",images/min1.png,16,0.0606416161463,0.622066206328,[-0.3328125  -0.10555556],,,2018_Jun_23_1622,59.683865406,sequenceLearningTask,001,146,
min1.png,min2.png,min3.png,min4.png,images/allBlank.png,"['num_7', 'num_4', 'num_1', 'num_0']",['num_0'],num_0,[4],'num_0',images/min4.png,"[(0.45, 0.79)]",,,,,0,-1,-1,0,3,3,15,3,,,,,"(-0.25, 0.04)",images/min2.png,16,0.0715975090861,0.503446357558,[-0.8203125  -0.31944444],,,2018_Jun_23_1622,59.683865406,sequenceLearningTask,001,146,
min1.png,min2.png,min3.png,min4.png,images/allBlank.png,"['num_7', 'num_4', 'num_1', 'num_0']",['num_0'],num_0,[4],'num_0',images/min4.png,"[(0.45, 0.79)]",,,,,0,-1,-1,0,3,3,15,3,,,,,"(-0.75, 0.04)",images/min1.png,16,0.0622375129315,0.556867874096,[-0.2328125 -0.225    ],,,2018_Jun_23_1622,59.683865406,sequenceLearningTask,001,146,
min1.png,min2.png,min3.png,min4.png,images/allBlank.png,"['num_7', 'num_4', 'num_1', 'num_0']",['num_0'],num_0,[4],'num_0',images/min4.png,"[(0.45, 0.79)]",,,,,0,-1,-1,0,3,3,15,3,,,,,"(0.75, 0.04)",images/min4.png,16,0.0666887931584,0.452039609416,[-0.6171875  -0.00555556],,,2018_Jun_23_1622,59.683865406,sequenceLearningTask,001,146,
min1.png,min2.png,min3.png,min4.png,images/allBlank.png,"['num_7', 'num_4', 'num_1', 'num_0']",['num_7'],num_7,[1],'num_7',images/min1.png,"[(0.45, 0.79)]",,,,,0,-1,-1,0,4,0,16,0,,,,,"(0.75, 0.04)",images/min4.png,17,0.0627880768152,0.508025227478,[ 0.746875   -0.03611111],,,2018_Jun_23_1622,59.683865406,sequenceLearningTask,001,146,
min1.png,min2.png,min3.png,min4.png,images/allBlank.png,"['num_7', 'num_4', 'num_1', 'num_0']",['num_7'],num_7,[1],'num_7',images/min1.png,"[(0.45, 0.79)]",,,,,0,-1,-1,0,4,0,16,0,,,,,"(0.75, 0.04)",images/min4.png,17,0.0634059227013,0.493969848627,[ 0.8140625 -0.075    ],,,2018_Jun_23_1622,59.683865406,sequenceLearningTask,001,146,
min1.png,min2.png,min3.png,min4.png,images/allBlank.png,"['num_7', 'num_4', 'num_1', 'num_0']",['num_7'],num_7,[1],'num_7',images/min1.png,"[(0.45, 0.79)]",,,,,0,-1,-1,0,4,0,16,0,,,,,"(0.75, 0.04)",images/min4.png,17,0.0630740254128,0.493822566626,[ 0.71875    -0.06111111],,,2018_Jun_23_1622,59.683865406,sequenceLearningTask,001,146,
min1.png,min2.png,min3.png,min4.png,images/allBlank.png,"['num_7', 'num_4', 'num_1', 'num_0']",['num_7'],num_7,[1],'num_7',images/min1.png,"[(0.45, 0.79)]",,,,,0,-1,-1,0,4,0,16,0,,,,,"(0.25, 0.04)",images/min3.png,17,0.0568377202726,0.461587092694,[ 0.684375 -0.05    ],,,2018_Jun_23_1622,59.683865406,sequenceLearningTask,001,146,
min1.png,min2.png,min3.png,min4.png,images/allBlank.png,"['num_7', 'num_4', 'num_1', 'num_0']",['num_4'],num_4,[2],'num_4',images/min2.png,"[(0.45, 0.79)]",,,,,0,-1,-1,0,4,1,17,1,,,,,"(0.75, 0.04)",images/min4.png,18,0.0621242821944,0.487267902659,[ 0.1359375  -0.15277778],,,2018_Jun_23_1622,59.683865406,sequenceLearningTask,001,146,
min1.png,min2.png,min3.png,min4.png,images/allBlank.png,"['num_7', 'num_4', 'num_1', 'num_0']",['num_4'],num_4,[2],'num_4',images/min2.png,"[(0.45, 0.79)]",,,,,0,-1,-1,0,4,1,17,1,,,,,"(0.25, 0.04)",images/min3.png,18,0.0714933040144,0.47067590947,[ 0.7390625  -0.03888889],,,2018_Jun_23_1622,59.683865406,sequenceLearningTask,001,146,
min1.png,min2.png,min3.png,min4.png,images/allBlank.png,"['num_7', 'num_4', 'num_1', 'num_0']",['num_4'],num_4,[2],'num_4',images/min2.png,"[(0.45, 0.79)]",,,,,0,-1,-1,0,4,1,17,1,,,,,"(-0.75, 0.04)",images/min1.png,18,0.0535343370138,0.516793634146,[ 0.146875   -0.10833333],,,2018_Jun_23_1622,59.683865406,sequenceLearningTask,001,146,
min1.png,min2.png,min3.png,min4.png,images/allBlank.png,"['num_7', 'num_4', 'num_1', 'num_0']",['num_4'],num_4,[2],'num_4',images/min2.png,"[(0.45, 0.79)]",,,,,0,-1,-1,0,4,1,17,1,,,,,"(-0.75, 0.04)",images/min1.png,18,0.0624307436083,0.64702209353,[-0.778125 -0.2     ],,,2018_Jun_23_1622,59.683865406,sequenceLearningTask,001,146,
min1.png,min2.png,min3.png,min4.png,images/allBlank.png,"['num_7', 'num_4', 'num_1', 'num_0']",['num_1'],num_1,[3],'num_1',images/min3.png,"[(0.45, 0.79)]",,,,,0,-1,-1,0,4,2,18,2,,,,,"(-0.75, 0.04)",images/min1.png,19,0.0535261318873,0.582953606994,[-0.7234375  -0.14444444],,,2018_Jun_23_1622,59.683865406,sequenceLearningTask,001,146,
min1.png,min2.png,min3.png,min4.png,images/allBlank.png,"['num_7', 'num_4', 'num_1', 'num_0']",['num_1'],num_1,[3],'num_1',images/min3.png,"[(0.45, 0.79)]",,,,,0,-1,-1,0,4,2,18,2,,,,,"(-0.25, 0.04)",images/min2.png,19,0.0643359735986,0.392722710676,[-0.6953125  -0.13888889],,,2018_Jun_23_1622,59.683865406,sequenceLearningTask,001,146,
min1.png,min2.png,min3.png,min4.png,images/allBlank.png,"['num_7', 'num_4', 'num_1', 'num_0']",['num_1'],num_1,[3],'num_1',images/min3.png,"[(0.45, 0.79)]",,,,,0,-1,-1,0,4,2,18,2,,,,,"(0.25, 0.04)",images/min3.png,19,0.0623724872275,0.429932131316,[-0.240625   -0.15833333],,,2018_Jun_23_1622,59.683865406,sequenceLearningTask,001,146,
min1.png,min2.png,min3.png,min4.png,images/allBlank.png,"['num_7', 'num_4', 'num_1', 'num_0']",['num_1'],num_1,[3],'num_1',images/min3.png,"[(0.45, 0.79)]",,,,,0,-1,-1,0,4,2,18,2,,,,,"(0.25, 0.04)",images/min3.png,19,0.0633689996466,0.524723477036,[ 0.2078125  -0.13611111],,,2018_Jun_23_1622,59.683865406,sequenceLearningTask,001,146,
min1.png,min2.png,min3.png,min4.png,images/allBlank.png,"['num_7', 'num_4', 'num_1', 'num_0']",['num_0'],num_0,[4],'num_0',images/min4.png,"[(0.45, 0.79)]",,,,,0,-1,-1,0,4,3,19,3,,,,,"(0.25, 0.04)",images/min3.png,20,0.0581246941001,0.529971064621,[ 0.2296875  -0.17777778],,,2018_Jun_23_1622,59.683865406,sequenceLearningTask,001,146,
min1.png,min2.png,min3.png,min4.png,images/allBlank.png,"['num_7', 'num_4', 'num_1', 'num_0']",['num_0'],num_0,[4],'num_0',images/min4.png,"[(0.45, 0.79)]",,,,,0,-1,-1,0,4,3,19,3,,,,,"(0.75, 0.04)",images/min4.png,20,0.0556873617606,0.506042048801,[ 0.2578125  -0.18055556],,,2018_Jun_23_1622,59.683865406,sequenceLearningTask,001,146,
min1.png,min2.png,min3.png,min4.png,images/allBlank.png,"['num_7', 'num_4', 'num_1', 'num_0']",['num_0'],num_0,[4],'num_0',images/min4.png,"[(0.45, 0.79)]",,,,,0,-1,-1,0,4,3,19,3,,,,,"(0.75, 0.04)",images/min4.png,20,0.0561784384918,0.80607392572,[ 0.7203125  -0.12777778],,,2018_Jun_23_1622,59.683865406,sequenceLearningTask,001,146,
min1.png,min2.png,min3.png,min4.png,images/allBlank.png,"['num_7', 'num_4', 'num_1', 'num_0']",['num_0'],num_0,[4],'num_0',images/min4.png,"[(0.45, 0.79)]",,,,,0,-1,-1,0,4,3,19,3,,,,,"(0.75, 0.04)",images/min4.png,20,0.0571121817047,0.411362292769,[ 0.609375    0.06944444],,,2018_Jun_23_1622,59.683865406,sequenceLearningTask,001,146,
min1.png,min2.png,min3.png,min4.png,allBlank.png,"['num_7', 'num_4', 'num_1', 'num_0']",['num_0'],num_0,[4],'num_0',images/min4.png,"[(0.45, 0.79)]",,,,,0,0,0,0,4,3,19,3,,,,,"(-0.75, -0.04)",images/min1.png,1,0.03951382995,0.607360571346,[ 0.7078125  -0.00277778],,,2018_Jun_23_1622,59.683865406,sequenceLearningTask,001,146,
min1.png,min2.png,min3.png,min4.png,allBlank.png,"['num_7', 'num_4', 'num_1', 'num_0']",['num_0'],num_0,[4],'num_0',images/min4.png,"[(0.45, 0.79)]",,,,,0,0,0,0,4,3,19,3,,,,,"(0.25, -0.04)",images/min3.png,1,0.0682063309941,0.376035127789,[-0.703125   -0.15833333],,,2018_Jun_23_1622,59.683865406,sequenceLearningTask,001,146,
min1.png,min2.png,min3.png,min4.png,allBlank.png,"['num_7', 'num_4', 'num_1', 'num_0']",['num_0'],num_0,[4],'num_0',images/min4.png,"[(0.45, 0.79)]",,,,,0,0,0,0,4,3,19,3,,,,,"(-0.25, -0.04)",images/min2.png,1,0.0638473584113,0.448442892943,[ 0.2640625   0.01944444],,,2018_Jun_23_1622,59.683865406,sequenceLearningTask,001,146,
min1.png,min2.png,min3.png,min4.png,allBlank.png,"['num_7', 'num_4', 'num_1', 'num_0']",['num_0'],num_0,[4],'num_0',images/min4.png,"[(0.45, 0.79)]",,,,,0,0,0,0,4,3,19,3,,,,,"(0.75, -0.04)",images/min4.png,1,0.0667441777478,0.504992203074,[-0.246875   -0.14444444],,,2018_Jun_23_1622,59.683865406,sequenceLearningTask,001,146,
min1.png,min2.png,min3.png,min4.png,allBlank.png,"['num_7', 'num_4', 'num_1', 'num_0']",['num_0'],num_0,[4],'num_0',images/min4.png,"[(0.45, 0.79)]",,,,,0,0,0,0,4,3,19,3,,,,,"(0.75, -0.04)",images/min4.png,1,0.0650407938374,0.443059920799,[ 0.778125   -0.13333333],,,2018_Jun_23_1622,59.683865406,sequenceLearningTask,001,146,
min1.png,min2.png,min3.png,min4.png,allBlank.png,"['num_7', 'num_4', 'num_1', 'num_0']",['num_0'],num_0,[4],'num_0',images/min4.png,"[(0.45, 0.79)]",,,,,0,0,0,0,4,3,19,3,,,,,"(-0.25, -0.04)",images/min2.png,1,0.0641411019024,0.359468160212,[ 0.7609375 -0.05     ],,,2018_Jun_23_1622,59.683865406,sequenceLearningTask,001,146,
min1.png,min2.png,min3.png,min4.png,allBlank.png,"['num_7', 'num_4', 'num_1', 'num_0']",['num_0'],num_0,[4],'num_0',images/min4.png,"[(0.45, 0.79)]",,,,,0,0,0,0,4,3,19,3,,,,,"(0.25, -0.04)",images/min3.png,1,0.0608135135117,0.358474109336,[-0.2453125  -0.03055556],,,2018_Jun_23_1622,59.683865406,sequenceLearningTask,001,146,
min1.png,min2.png,min3.png,min4.png,allBlank.png,"['num_7', 'num_4', 'num_1', 'num_0']",['num_0'],num_0,[4],'num_0',images/min4.png,"[(0.45, 0.79)]",,,,,0,0,0,0,4,3,19,3,,,,,"(0.75, -0.04)",images/min4.png,1,0.0535921831324,0.491398772763,[ 0.2953125 -0.075    ],,,2018_Jun_23_1622,59.683865406,sequenceLearningTask,001,146,
min1.png,min2.png,min3.png,min4.png,allBlank.png,"['num_7', 'num_4', 'num_1', 'num_0']",['num_0'],num_0,[4],'num_0',images/min4.png,"[(0.45, 0.79)]",,,,,0,1,1,1,4,3,19,3,,,,,"(-0.75, -0.04)",images/min1.png,2,0.0591720782977,0.456756735686,[ 0.8171875   0.04722222],,,2018_Jun_23_1622,59.683865406,sequenceLearningTask,001,146,
min1.png,min2.png,min3.png,min4.png,allBlank.png,"['num_7', 'num_4', 'num_1', 'num_0']",['num_0'],num_0,[4],'num_0',images/min4.png,"[(0.45, 0.79)]",,,,,0,1,1,1,4,3,19,3,,,,,"(0.25, -0.04)",images/min3.png,2,0.0668274597701,0.405467731092,[-0.7171875 -0.025    ],,,2018_Jun_23_1622,59.683865406,sequenceLearningTask,001,146,
min1.png,min2.png,min3.png,min4.png,allBlank.png,"['num_7', 'num_4', 'num_1', 'num_0']",['num_0'],num_0,[4],'num_0',images/min4.png,"[(0.45, 0.79)]",,,,,0,1,1,1,4,3,19,3,,,,,"(-0.25, -0.04)",images/min2.png,2,0.0612356671772,0.498659897989,[ 0.2640625  -0.06666667],,,2018_Jun_23_1622,59.683865406,sequenceLearningTask,001,146,
min1.png,min2.png,min3.png,min4.png,allBlank.png,"['num_7', 'num_4', 'num_1', 'num_0']",['num_0'],num_0,[4],'num_0',images/min4.png,"[(0.45, 0.79)]",,,,,0,1,1,1,4,3,19,3,,,,,"(0.75, -0.04)",images/min4.png,2,0.0637981276668,0.496314463046,[-0.2609375  -0.21111111],,,2018_Jun_23_1622,59.683865406,sequenceLearningTask,001,146,
min1.png,min2.png,min3.png,min4.png,allBlank.png,"['num_7', 'num_4', 'num_1', 'num_0']",['num_0'],num_0,[4],'num_0',images/min4.png,"[(0.45, 0.79)]",,,,,0,1,1,1,4,3,19,3,,,,,"(0.75, -0.04)",images/min4.png,2,0.0606366930733,0.479323700783,[ 0.6859375  -0.16666667],,,2018_Jun_23_1622,59.683865406,sequenceLearningTask,001,146,
min1.png,min2.png,min3.png,min4.png,allBlank.png,"['num_7', 'num_4', 'num_1', 'num_0']",['num_0'],num_0,[4],'num_0',images/min4.png,"[(0.45, 0.79)]",,,,,0,1,1,1,4,3,19,3,,,,,"(-0.25, -0.04)",images/min2.png,2,0.053751362575,0.467391808255,[ 0.7921875  -0.08611111],,,2018_Jun_23_1622,59.683865406,sequenceLearningTask,001,146,
min1.png,min2.png,min3.png,min4.png,allBlank.png,"['num_7', 'num_4', 'num_1', 'num_0']",['num_0'],num_0,[4],'num_0',images/min4.png,"[(0.45, 0.79)]",,,,,0,1,1,1,4,3,19,3,,,,,"(0.25, -0.04)",images/min3.png,2,0.0609419237153,0.446257457937,[-0.2796875  -0.15833333],,,2018_Jun_23_1622,59.683865406,sequenceLearningTask,001,146,
min1.png,min2.png,min3.png,min4.png,allBlank.png,"['num_7', 'num_4', 'num_1', 'num_0']",['num_0'],num_0,[4],'num_0',images/min4.png,"[(0.45, 0.79)]",,,,,0,1,1,1,4,3,19,3,,,,,"(0.75, -0.04)",images/min4.png,2,0.0591544372728,0.552691875826,[ 0.3390625  -0.21666667],,,2018_Jun_23_1622,59.683865406,sequenceLearningTask,001,146,
min1.png,min2.png,min3.png,min4.png,allBlank.png,"['num_7', 'num_4', 'num_1', 'num_0']",['num_0'],num_0,[4],'num_0',images/min4.png,"[(0.45, 0.79)]",,,,,0,2,2,2,4,3,19,3,,,,,"(-0.75, -0.04)",images/min1.png,3,0.0549009005626,0.569271971573,[ 0.75625    -0.18888889],,,2018_Jun_23_1622,59.683865406,sequenceLearningTask,001,146,
min1.png,min2.png,min3.png,min4.png,allBlank.png,"['num_7', 'num_4', 'num_1', 'num_0']",['num_0'],num_0,[4],'num_0',images/min4.png,"[(0.45, 0.79)]",,,,,0,2,2,2,4,3,19,3,,,,,"(0.25, -0.04)",images/min3.png,3,0.0546740288555,0.404785885214,[-0.7890625  -0.06666667],,,2018_Jun_23_1622,59.683865406,sequenceLearningTask,001,146,
min1.png,min2.png,min3.png,min4.png,allBlank.png,"['num_7', 'num_4', 'num_1', 'num_0']",['num_0'],num_0,[4],'num_0',images/min4.png,"[(0.45, 0.79)]",,,,,0,2,2,2,4,3,19,3,,,,,"(-0.25, -0.04)",images/min2.png,3,0.0553086952568,0.621205078482,[ 0.2453125  0.075    ],,,2018_Jun_23_1622,59.683865406,sequenceLearningTask,001,146,
min1.png,min2.png,min3.png,min4.png,allBlank.png,"['num_7', 'num_4', 'num_1', 'num_0']",['num_0'],num_0,[4],'num_0',images/min4.png,"[(0.45, 0.79)]",,,,,0,2,2,2,4,3,19,3,,,,,"(0.75, -0.04)",images/min4.png,3,0.0599770010303,0.529687577568,[-0.2953125   0.11388889],,,2018_Jun_23_1622,59.683865406,sequenceLearningTask,001,146,
min1.png,min2.png,min3.png,min4.png,allBlank.png,"['num_7', 'num_4', 'num_1', 'num_0']",['num_0'],num_0,[4],'num_0',images/min4.png,"[(0.45, 0.79)]",,,,,0,2,2,2,4,3,19,3,,,,,"(0.75, -0.04)",images/min4.png,3,0.0410957780114,0.499724102672,[ 0.7734375  -0.31944444],,,2018_Jun_23_1622,59.683865406,sequenceLearningTask,001,146,
min1.png,min2.png,min3.png,min4.png,allBlank.png,"['num_7', 'num_4', 'num_1', 'num_0']",['num_0'],num_0,[4],'num_0',images/min4.png,"[(0.45, 0.79)]",,,,,0,2,2,2,4,3,19,3,,,,,"(-0.25, -0.04)",images/min2.png,3,0.0540771060187,0.601314214844,[ 0.775      -0.11666667],,,2018_Jun_23_1622,59.683865406,sequenceLearningTask,001,146,
min1.png,min2.png,min3.png,min4.png,allBlank.png,"['num_7', 'num_4', 'num_1', 'num_0']",['num_0'],num_0,[4],'num_0',images/min4.png,"[(0.45, 0.79)]",,,,,0,2,2,2,4,3,19,3,,,,,"(0.25, -0.04)",images/min3.png,3,0.0489123901934,0.462279605214,[-0.1890625  -0.13055556],,,2018_Jun_23_1622,59.683865406,sequenceLearningTask,001,146,
min1.png,min2.png,min3.png,min4.png,allBlank.png,"['num_7', 'num_4', 'num_1', 'num_0']",['num_0'],num_0,[4],'num_0',images/min4.png,"[(0.45, 0.79)]",,,,,0,2,2,2,4,3,19,3,,,,,"(0.75, -0.04)",images/min4.png,3,0.0536972087284,0.499456615609,[ 0.2328125  -0.35833333],,,2018_Jun_23_1622,59.683865406,sequenceLearningTask,001,146,
min1.png,min2.png,min3.png,min4.png,allBlank.png,"['num_7', 'num_4', 'num_1', 'num_0']",['num_0'],num_0,[4],'num_0',images/min4.png,"[(0.45, 0.79)]",,,,,0,3,3,3,4,3,19,3,,,,,"(-0.75, -0.04)",images/min1.png,4,0.0545718750363,0.570429714688,[ 0.8140625  -0.06944444],,,2018_Jun_23_1622,59.683865406,sequenceLearningTask,001,146,
min1.png,min2.png,min3.png,min4.png,allBlank.png,"['num_7', 'num_4', 'num_1', 'num_0']",['num_0'],num_0,[4],'num_0',images/min4.png,"[(0.45, 0.79)]",,,,,0,3,3,3,4,3,19,3,,,,,"(0.25, -0.04)",images/min3.png,4,0.0223162985349,0.471625242411,[-0.6546875  -0.09166667],,,2018_Jun_23_1622,59.683865406,sequenceLearningTask,001,146,
min1.png,min2.png,min3.png,min4.png,allBlank.png,"['num_7', 'num_4', 'num_1', 'num_0']",['num_0'],num_0,[4],'num_0',images/min4.png,"[(0.45, 0.79)]",,,,,0,3,3,3,4,3,19,3,,,,,"(-0.25, -0.04)",images/min2.png,4,0.0561583359377,0.536633215743,[ 0.1984375  -0.11111111],,,2018_Jun_23_1622,59.683865406,sequenceLearningTask,001,146,
min1.png,min2.png,min3.png,min4.png,allBlank.png,"['num_7', 'num_4', 'num_1', 'num_0']",['num_0'],num_0,[4],'num_0',images/min4.png,"[(0.45, 0.79)]",,,,,0,3,3,3,4,3,19,3,,,,,"(0.75, -0.04)",images/min4.png,4,0.0636729995167,0.511737225956,[-0.175      -0.13611111],,,2018_Jun_23_1622,59.683865406,sequenceLearningTask,001,146,
min1.png,min2.png,min3.png,min4.png,allBlank.png,"['num_7', 'num_4', 'num_1', 'num_0']",['num_0'],num_0,[4],'num_0',images/min4.png,"[(0.45, 0.79)]",,,,,0,3,3,3,4,3,19,3,,,,,"(0.75, -0.04)",images/min4.png,4,0.0613251030445,0.43131100254,[ 0.7140625 -0.225    ],,,2018_Jun_23_1622,59.683865406,sequenceLearningTask,001,146,
min1.png,min2.png,min3.png,min4.png,allBlank.png,"['num_7', 'num_4', 'num_1', 'num_0']",['num_0'],num_0,[4],'num_0',images/min4.png,"[(0.45, 0.79)]",,,,,0,3,3,3,4,3,19,3,,,,,"(-0.25, -0.04)",images/min2.png,4,0.05834582221,0.546307468176,[ 0.7109375  -0.15833333],,,2018_Jun_23_1622,59.683865406,sequenceLearningTask,001,146,
min1.png,min2.png,min3.png,min4.png,allBlank.png,"['num_7', 'num_4', 'num_1', 'num_0']",['num_0'],num_0,[4],'num_0',images/min4.png,"[(0.45, 0.79)]",,,,,0,3,3,3,4,3,19,3,,,,,"(0.25, -0.04)",images/min3.png,4,0.0612024364236,0.464679604236,[-0.221875   -0.31388889],,,2018_Jun_23_1622,59.683865406,sequenceLearningTask,001,146,
min1.png,min2.png,min3.png,min4.png,allBlank.png,"['num_7', 'num_4', 'num_1', 'num_0']",['num_0'],num_0,[4],'num_0',images/min4.png,"[(0.45, 0.79)]",,,,,0,3,3,3,4,3,19,3,,,,,"(0.75, -0.04)",images/min4.png,4,0.060635872549,0.54817905715,[ 0.2859375  -0.23611111],,,2018_Jun_23_1622,59.683865406,sequenceLearningTask,001,146,
min1.png,min2.png,min3.png,min4.png,allBlank.png,"['num_7', 'num_4', 'num_1', 'num_0']",['num_0'],num_0,[4],'num_0',images/min4.png,"[(0.45, 0.79)]",,,,,0,4,4,4,4,3,19,3,,,,,"(-0.75, -0.04)",images/min1.png,5,0.0492233644181,0.576061712374,[ 0.728125   -0.04444444],,,2018_Jun_23_1622,59.683865406,sequenceLearningTask,001,146,
min1.png,min2.png,min3.png,min4.png,allBlank.png,"['num_7', 'num_4', 'num_1', 'num_0']",['num_0'],num_0,[4],'num_0',images/min4.png,"[(0.45, 0.79)]",,,,,0,4,4,4,4,3,19,3,,,,,"(0.25, -0.04)",images/min3.png,5,0.0588570014952,0.461241246667,[-0.60625    -0.09166667],,,2018_Jun_23_1622,59.683865406,sequenceLearningTask,001,146,
min1.png,min2.png,min3.png,min4.png,allBlank.png,"['num_7', 'num_4', 'num_1', 'num_0']",['num_0'],num_0,[4],'num_0',images/min4.png,"[(0.45, 0.79)]",,,,,0,4,4,4,4,3,19,3,,,,,"(-0.25, -0.04)",images/min2.png,5,0.0933931924519,0.581168171833,[ 0.2453125  -0.16944444],,,2018_Jun_23_1622,59.683865406,sequenceLearningTask,001,146,
min1.png,min2.png,min3.png,min4.png,allBlank.png,"['num_7', 'num_4', 'num_1', 'num_0']",['num_0'],num_0,[4],'num_0',images/min4.png,"[(0.45, 0.79)]",,,,,0,4,4,4,4,3,19,3,,,,,"(0.75, -0.04)",images/min4.png,5,0.0593435654009,0.482150366297,[-0.225      -0.19166667],,,2018_Jun_23_1622,59.683865406,sequenceLearningTask,001,146,
min1.png,min2.png,min3.png,min4.png,allBlank.png,"['num_7', 'num_4', 'num_1', 'num_0']",['num_0'],num_0,[4],'num_0',images/min4.png,"[(0.45, 0.79)]",,,,,0,4,4,4,4,3,19,3,,,,,"(0.75, -0.04)",images/min4.png,5,0.0532405935373,0.484582365301,[ 0.6546875  -0.19722222],,,2018_Jun_23_1622,59.683865406,sequenceLearningTask,001,146,
min1.png,min2.png,min3.png,min4.png,allBlank.png,"['num_7', 'num_4', 'num_1', 'num_0']",['num_0'],num_0,[4],'num_0',images/min4.png,"[(0.45, 0.79)]",,,,,0,4,4,4,4,3,19,3,,,,,"(-0.25, -0.04)",images/min2.png,5,0.061848590005,0.579707659606,[ 0.7171875  -0.20277778],,,2018_Jun_23_1622,59.683865406,sequenceLearningTask,001,146,
min1.png,min2.png,min3.png,min4.png,allBlank.png,"['num_7', 'num_4', 'num_1', 'num_0']",['num_0'],num_0,[4],'num_0',images/min4.png,"[(0.45, 0.79)]",,,,,0,4,4,4,4,3,19,3,,,,,"(0.25, -0.04)",images/min3.png,5,0.0587893092161,0.459964939495,[-0.1703125  -0.11666667],,,2018_Jun_23_1622,59.683865406,sequenceLearningTask,001,146,
min1.png,min2.png,min3.png,min4.png,allBlank.png,"['num_7', 'num_4', 'num_1', 'num_0']",['num_0'],num_0,[4],'num_0',images/min4.png,"[(0.45, 0.79)]",,,,,0,4,4,4,4,3,19,3,,,,,"(0.75, -0.04)",images/min4.png,5,0.0580340274755,0.570684073566,[ 0.2328125 -0.225    ],,,2018_Jun_23_1622,59.683865406,sequenceLearningTask,001,146,
min1.png,min2.png,min3.png,min4.png,allBlank.png,"['num_7', 'num_4', 'num_1', 'num_0']",['num_0'],num_0,[4],'num_0',images/min4.png,"[(0.45, 0.79)]",,,,,0,5,5,5,4,3,19,3,,,,,"(-0.75, -0.04)",images/min1.png,6,0.0592894115834,0.610880980152,[ 0.7609375  -0.15833333],,,2018_Jun_23_1622,59.683865406,sequenceLearningTask,001,146,
min1.png,min2.png,min3.png,min4.png,allBlank.png,"['num_7', 'num_4', 'num_1', 'num_0']",['num_0'],num_0,[4],'num_0',images/min4.png,"[(0.45, 0.79)]",,,,,0,5,5,5,4,3,19,3,,,,,"(0.25, -0.04)",images/min3.png,6,0.0597472575464,0.434075309109,[-0.6953125 -0.025    ],,,2018_Jun_23_1622,59.683865406,sequenceLearningTask,001,146,
min1.png,min2.png,min3.png,min4.png,allBlank.png,"['num_7', 'num_4', 'num_1', 'num_0']",['num_0'],num_0,[4],'num_0',images/min4.png,"[(0.45, 0.79)]",,,,,0,5,5,5,4,3,19,3,,,,,"(-0.25, -0.04)",images/min2.png,6,0.0584803862585,0.552405106719,[ 0.2359375  -0.21111111],,,2018_Jun_23_1622,59.683865406,sequenceLearningTask,001,146,
min1.png,min2.png,min3.png,min4.png,allBlank.png,"['num_7', 'num_4', 'num_1', 'num_0']",['num_0'],num_0,[4],'num_0',images/min4.png,"[(0.45, 0.79)]",,,,,0,5,5,5,4,3,19,3,,,,,"(0.75, -0.04)",images/min4.png,6,0.0550276697322,0.469506679176,[-0.2640625  -0.36111111],,,2018_Jun_23_1622,59.683865406,sequenceLearningTask,001,146,
min1.png,min2.png,min3.png,min4.png,allBlank.png,"['num_7', 'num_4', 'num_1', 'num_0']",['num_0'],num_0,[4],'num_0',images/min4.png,"[(0.45, 0.79)]",,,,,0,5,5,5,4,3,19,3,,,,,"(0.75, -0.04)",images/min4.png,6,0.0539343368437,0.469347499762,[ 0.6625     -0.29166667],,,2018_Jun_23_1622,59.683865406,sequenceLearningTask,001,146,
min1.png,min2.png,min3.png,min4.png,allBlank.png,"['num_7', 'num_4', 'num_1', 'num_0']",['num_0'],num_0,[4],'num_0',images/min4.png,"[(0.45, 0.79)]",,,,,0,5,5,5,4,3,19,3,,,,,"(-0.25, -0.04)",images/min2.png,6,0.0525571066391,0.605436469574,[ 0.775      -0.26944444],,,2018_Jun_23_1622,59.683865406,sequenceLearningTask,001,146,
min1.png,min2.png,min3.png,min4.png,allBlank.png,"['num_7', 'num_4', 'num_1', 'num_0']",['num_0'],num_0,[4],'num_0',images/min4.png,"[(0.45, 0.79)]",,,,,0,5,5,5,4,3,19,3,,,,,"(0.25, -0.04)",images/min3.png,6,0.0581054120703,0.496475283508,[-0.2234375  -0.27222222],,,2018_Jun_23_1622,59.683865406,sequenceLearningTask,001,146,
min1.png,min2.png,min3.png,min4.png,allBlank.png,"['num_7', 'num_4', 'num_1', 'num_0']",['num_0'],num_0,[4],'num_0',images/min4.png,"[(0.45, 0.79)]",,,,,0,5,5,5,4,3,19,3,,,,,"(0.75, -0.04)",images/min4.png,6,0.0582444889296,0.528911372749,[ 0.2640625 -0.175    ],,,2018_Jun_23_1622,59.683865406,sequenceLearningTask,001,146,
min1.png,min2.png,min3.png,min4.png,allBlank.png,"['num_7', 'num_4', 'num_1', 'num_0']",['num_0'],num_0,[4],'num_0',images/min4.png,"[(0.45, 0.79)]",,,,,0,6,6,6,4,3,19,3,,,,,"(-0.75, -0.04)",images/min1.png,7,0.0537017215684,0.636440764545,[ 0.7984375  -0.18611111],,,2018_Jun_23_1622,59.683865406,sequenceLearningTask,001,146,
min1.png,min2.png,min3.png,min4.png,allBlank.png,"['num_7', 'num_4', 'num_1', 'num_0']",['num_0'],num_0,[4],'num_0',images/min4.png,"[(0.45, 0.79)]",,,,,0,6,6,6,4,3,19,3,,,,,"(0.25, -0.04)",images/min3.png,7,0.0557439771364,0.452584839964,[-0.6546875  -0.16944444],,,2018_Jun_23_1622,59.683865406,sequenceLearningTask,001,146,
min1.png,min2.png,min3.png,min4.png,allBlank.png,"['num_7', 'num_4', 'num_1', 'num_0']",['num_0'],num_0,[4],'num_0',images/min4.png,"[(0.45, 0.79)]",,,,,0,6,6,6,4,3,19,3,,,,,"(-0.25, -0.04)",images/min2.png,7,0.0527417219564,0.587057400175,[ 0.340625 -0.2     ],,,2018_Jun_23_1622,59.683865406,sequenceLearningTask,001,146,
min1.png,min2.png,min3.png,min4.png,allBlank.png,"['num_7', 'num_4', 'num_1', 'num_0']",['num_0'],num_0,[4],'num_0',images/min4.png,"[(0.45, 0.79)]",,,,,0,6,6,6,4,3,19,3,,,,,"(0.75, -0.04)",images/min4.png,7,0.0642801787471,0.471218268212,[-0.2890625  -0.26944444],,,2018_Jun_23_1622,59.683865406,sequenceLearningTask,001,146,
min1.png,min2.png,min3.png,min4.png,allBlank.png,"['num_7', 'num_4', 'num_1', 'num_0']",['num_0'],num_0,[4],'num_0',images/min4.png,"[(0.45, 0.79)]",,,,,0,6,6,6,4,3,19,3,,,,,"(0.75, -0.04)",images/min4.png,7,0.0599696164281,0.476322266113,[ 0.6140625  -0.16111111],,,2018_Jun_23_1622,59.683865406,sequenceLearningTask,001,146,
min1.png,min2.png,min3.png,min4.png,allBlank.png,"['num_7', 'num_4', 'num_1', 'num_0']",['num_0'],num_0,[4],'num_0',images/min4.png,"[(0.45, 0.79)]",,,,,0,6,6,6,4,3,19,3,,,,,"(-0.25, -0.04)",images/min2.png,7,0.0870243745594,0.63607850828,[ 0.7328125  -0.14166667],,,2018_Jun_23_1622,59.683865406,sequenceLearningTask,001,146,
min1.png,min2.png,min3.png,min4.png,allBlank.png,"['num_7', 'num_4', 'num_1', 'num_0']",['num_0'],num_0,[4],'num_0',images/min4.png,"[(0.45, 0.79)]",,,,,0,6,6,6,4,3,19,3,,,,,"(0.25, -0.04)",images/min3.png,7,0.0533119781321,0.656241782053,[-0.14375    -0.08055556],,,2018_Jun_23_1622,59.683865406,sequenceLearningTask,001,146,
min1.png,min2.png,min3.png,min4.png,allBlank.png,"['num_7', 'num_4', 'num_1', 'num_0']",['num_0'],num_0,[4],'num_0',images/min4.png,"[(0.45, 0.79)]",,,,,0,6,6,6,4,3,19,3,,,,,"(0.75, -0.04)",images/min4.png,7,0.0627216152934,0.628059229522,[ 0.3296875  -0.22777778],,,2018_Jun_23_1622,59.683865406,sequenceLearningTask,001,146,
min1.png,min2.png,min3.png,min4.png,allBlank.png,"['num_7', 'num_4', 'num_1', 'num_0']",['num_0'],num_0,[4],'num_0',images/min4.png,"[(0.45, 0.79)]",,,,,0,7,7,7,4,3,19,3,,,,,"(-0.75, -0.04)",images/min1.png,8,0.0554633618594,0.612721799902,[ 0.7203125  -0.15277778],,,2018_Jun_23_1622,59.683865406,sequenceLearningTask,001,146,
min1.png,min2.png,min3.png,min4.png,allBlank.png,"['num_7', 'num_4', 'num_1', 'num_0']",['num_0'],num_0,[4],'num_0',images/min4.png,"[(0.45, 0.79)]",,,,,0,7,7,7,4,3,19,3,,,,,"(0.25, -0.04)",images/min3.png,8,0.0593862320384,0.516781326442,[-0.6828125 -0.125    ],,,2018_Jun_23_1622,59.683865406,sequenceLearningTask,001,146,
min1.png,min2.png,min3.png,min4.png,allBlank.png,"['num_7', 'num_4', 'num_1', 'num_0']",['num_0'],num_0,[4],'num_0',images/min4.png,"[(0.45, 0.79)]",,,,,0,7,7,7,4,3,19,3,,,,,"(-0.25, -0.04)",images/min2.png,8,0.0547232596,0.569073407562,[ 0.2796875 -0.175    ],,,2018_Jun_23_1622,59.683865406,sequenceLearningTask,001,146,
min1.png,min2.png,min3.png,min4.png,allBlank.png,"['num_7', 'num_4', 'num_1', 'num_0']",['num_0'],num_0,[4],'num_0',images/min4.png,"[(0.45, 0.79)]",,,,,0,7,7,7,4,3,19,3,,,,,"(0.75, -0.04)",images/min4.png,8,0.0585911554517,0.482191391915,[-0.2484375 -0.2      ],,,2018_Jun_23_1622,59.683865406,sequenceLearningTask,001,146,
min1.png,min2.png,min3.png,min4.png,allBlank.png,"['num_7', 'num_4', 'num_1', 'num_0']",['num_0'],num_0,[4],'num_0',images/min4.png,"[(0.45, 0.79)]",,,,,0,7,7,7,4,3,19,3,,,,,"(0.75, -0.04)",images/min4.png,8,0.0592676679953,0.527655168145,[ 0.6484375  -0.24444444],,,2018_Jun_23_1622,59.683865406,sequenceLearningTask,001,146,
min1.png,min2.png,min3.png,min4.png,allBlank.png,"['num_7', 'num_4', 'num_1', 'num_0']",['num_0'],num_0,[4],'num_0',images/min4.png,"[(0.45, 0.79)]",,,,,0,7,7,7,4,3,19,3,,,,,"(-0.25, -0.04)",images/min2.png,8,0.0584258221934,0.615358516778,[ 0.7953125  -0.19166667],,,2018_Jun_23_1622,59.683865406,sequenceLearningTask,001,146,
min1.png,min2.png,min3.png,min4.png,allBlank.png,"['num_7', 'num_4', 'num_1', 'num_0']",['num_0'],num_0,[4],'num_0',images/min4.png,"[(0.45, 0.79)]",,,,,0,7,7,7,4,3,19,3,,,,,"(0.25, -0.04)",images/min3.png,8,0.0530760807887,0.506549946032,[-0.1734375  -0.16388889],,,2018_Jun_23_1622,59.683865406,sequenceLearningTask,001,146,
min1.png,min2.png,min3.png,min4.png,allBlank.png,"['num_7', 'num_4', 'num_1', 'num_0']",['num_0'],num_0,[4],'num_0',images/min4.png,"[(0.45, 0.79)]",,,,,0,7,7,7,4,3,19,3,,,,,"(0.75, -0.04)",images/min4.png,8,0.0551839773543,0.522337016475,[ 0.3234375  -0.23055556],,,2018_Jun_23_1622,59.683865406,sequenceLearningTask,001,146,
min1.png,min2.png,min3.png,min4.png,allBlank.png,"['num_7', 'num_4', 'num_1', 'num_0']",['num_0'],num_0,[4],'num_0',images/min4.png,"[(0.45, 0.79)]",,,,,0,8,8,8,4,3,19,3,,,,,"(-0.75, -0.04)",images/min1.png,9,0.0582219248317,0.682654899429,[ 0.6453125  -0.23888889],,,2018_Jun_23_1622,59.683865406,sequenceLearningTask,001,146,
min1.png,min2.png,min3.png,min4.png,allBlank.png,"['num_7', 'num_4', 'num_1', 'num_0']",['num_0'],num_0,[4],'num_0',images/min4.png,"[(0.45, 0.79)]",,,,,0,8,8,8,4,3,19,3,,,,,"(0.25, -0.04)",images/min3.png,9,0.0574539251538,0.45229068624,[-0.7328125  -0.17222222],,,2018_Jun_23_1622,59.683865406,sequenceLearningTask,001,146,
min1.png,min2.png,min3.png,min4.png,allBlank.png,"['num_7', 'num_4', 'num_1', 'num_0']",['num_0'],num_0,[4],'num_0',images/min4.png,"[(0.45, 0.79)]",,,,,0,8,8,8,4,3,19,3,,,,,"(-0.25, -0.04)",images/min2.png,9,0.0592036680173,0.549045518346,[ 0.3328125  -0.15833333],,,2018_Jun_23_1622,59.683865406,sequenceLearningTask,001,146,
min1.png,min2.png,min3.png,min4.png,allBlank.png,"['num_7', 'num_4', 'num_1', 'num_0']",['num_0'],num_0,[4],'num_0',images/min4.png,"[(0.45, 0.79)]",,,,,0,8,8,8,4,3,19,3,,,,,"(0.75, -0.04)",images/min4.png,9,0.0598465395451,0.444625868869,[-0.1984375  -0.23333333],,,2018_Jun_23_1622,59.683865406,sequenceLearningTask,001,146,
min1.png,min2.png,min3.png,min4.png,allBlank.png,"['num_7', 'num_4', 'num_1', 'num_0']",['num_0'],num_0,[4],'num_0',images/min4.png,"[(0.45, 0.79)]",,,,,0,8,8,8,4,3,19,3,,,,,"(0.75, -0.04)",images/min4.png,9,0.0550851056032,0.520682453047,[ 0.74375    -0.11111111],,,2018_Jun_23_1622,59.683865406,sequenceLearningTask,001,146,
min1.png,min2.png,min3.png,min4.png,allBlank.png,"['num_7', 'num_4', 'num_1', 'num_0']",['num_0'],num_0,[4],'num_0',images/min4.png,"[(0.45, 0.79)]",,,,,0,8,8,8,4,3,19,3,,,,,"(-0.25, -0.04)",images/min2.png,9,0.0581907453452,0.584067042437,[ 0.7921875  -0.01111111],,,2018_Jun_23_1622,59.683865406,sequenceLearningTask,001,146,
min1.png,min2.png,min3.png,min4.png,allBlank.png,"['num_7', 'num_4', 'num_1', 'num_0']",['num_0'],num_0,[4],'num_0',images/min4.png,"[(0.45, 0.79)]",,,,,0,8,8,8,4,3,19,3,,,,,"(0.25, -0.04)",images/min3.png,9,0.0608951545146,0.42928351619,[-0.2828125  -0.16388889],,,2018_Jun_23_1622,59.683865406,sequenceLearningTask,001,146,
min1.png,min2.png,min3.png,min4.png,allBlank.png,"['num_7', 'num_4', 'num_1', 'num_0']",['num_0'],num_0,[4],'num_0',images/min4.png,"[(0.45, 0.79)]",,,,,0,8,8,8,4,3,19,3,,,,,"(0.75, -0.04)",images/min4.png,9,0.072320790845,1.00743753542,[ 0.28125    -0.12222222],,,2018_Jun_23_1622,59.683865406,sequenceLearningTask,001,146,
min1.png,min2.png,min3.png,min4.png,allBlank.png,"['num_7', 'num_4', 'num_1', 'num_0']",['num_0'],num_0,[4],'num_0',images/min4.png,"[(0.45, 0.79)]",,,,,0,9,9,9,4,3,19,3,,,,,"(-0.75, -0.04)",images/min1.png,10,0.0519400812482,1.3209356632,[ 0.7265625   0.02222222],0.65922229366,1,2018_Jun_23_1622,59.683865406,sequenceLearningTask,001,146,
min1.png,min2.png,min3.png,min4.png,allBlank.png,"['num_7', 'num_4', 'num_1', 'num_0']",['num_0'],num_0,[4],'num_0',images/min4.png,"[(0.45, 0.79)]",,,,,0,9,9,9,4,3,19,3,,,,,"(0.25, -0.04)",images/min3.png,10,0.0552467465604,0.452695198896,[-0.6515625  -0.31944444],,,2018_Jun_23_1622,59.683865406,sequenceLearningTask,001,146,
min1.png,min2.png,min3.png,min4.png,allBlank.png,"['num_7', 'num_4', 'num_1', 'num_0']",['num_0'],num_0,[4],'num_0',images/min4.png,"[(0.45, 0.79)]",,,,,0,9,9,9,4,3,19,3,,,,,"(-0.25, -0.04)",images/min2.png,10,0.0631856151012,0.477549342555,[ 0.2234375  -0.34722222],,,2018_Jun_23_1622,59.683865406,sequenceLearningTask,001,146,
min1.png,min2.png,min3.png,min4.png,allBlank.png,"['num_7', 'num_4', 'num_1', 'num_0']",['num_0'],num_0,[4],'num_0',images/min4.png,"[(0.45, 0.79)]",,,,,0,9,9,9,4,3,19,3,,,,,"(0.75, -0.04)",images/min4.png,10,0.0595380268642,0.500403487007,[-0.246875   -0.16111111],,,2018_Jun_23_1622,59.683865406,sequenceLearningTask,001,146,
min1.png,min2.png,min3.png,min4.png,allBlank.png,"['num_7', 'num_4', 'num_1', 'num_0']",['num_0'],num_0,[4],'num_0',images/min4.png,"[(0.45, 0.79)]",,,,,0,9,9,9,4,3,19,3,,,,,"(0.75, -0.04)",images/min4.png,10,0.0627966921893,0.53062378231,[ 0.6578125  -0.12777778],,,2018_Jun_23_1622,59.683865406,sequenceLearningTask,001,146,
min1.png,min2.png,min3.png,min4.png,allBlank.png,"['num_7', 'num_4', 'num_1', 'num_0']",['num_0'],num_0,[4],'num_0',images/min4.png,"[(0.45, 0.79)]",,,,,0,9,9,9,4,3,19,3,,,,,"(-0.25, -0.04)",images/min2.png,10,0.0623413077556,0.608786622033,[ 0.6421875  -0.14722222],,,2018_Jun_23_1622,59.683865406,sequenceLearningTask,001,146,
min1.png,min2.png,min3.png,min4.png,allBlank.png,"['num_7', 'num_4', 'num_1', 'num_0']",['num_0'],num_0,[4],'num_0',images/min4.png,"[(0.45, 0.79)]",,,,,0,9,9,9,4,3,19,3,,,,,"(0.25, -0.04)",images/min3.png,10,0.063302948387,0.461338067151,[-0.146875 -0.175   ],,,2018_Jun_23_1622,59.683865406,sequenceLearningTask,001,146,
min1.png,min2.png,min3.png,min4.png,allBlank.png,"['num_7', 'num_4', 'num_1', 'num_0']",['num_0'],num_0,[4],'num_0',images/min4.png,"[(0.45, 0.79)]",,,,,0,9,9,9,4,3,19,3,,,,,"(0.75, -0.04)",images/min4.png,10,0.0480168008216,0.545693314591,[ 0.309375   -0.11666667],,,2018_Jun_23_1622,59.683865406,sequenceLearningTask,001,146,
min1.png,min2.png,min3.png,min4.png,allBlank.png,"['num_7', 'num_4', 'num_1', 'num_0']",['num_0'],num_0,[4],'num_0',images/min4.png,"[(0.45, 0.79)]",,,,,0,9,9,9,4,3,19,3,0,-1,-1,0,,,,,,,,,2018_Jun_23_1622,59.683865406,sequenceLearningTask,001,146,
