pawPatrol1,pawPatrol2,pawPatrol3,pawPatrol4,blank,allowableKey,correctKey,correctKeyPressNum,posLoc,correctKeyPress,randomPaw,im_size,trials.thisRepN,trials.thisTrialN,trials.thisN,trials.thisIndex,trials_3.thisRepN,trials_3.thisTrialN,trials_3.thisN,trials_3.thisIndex,trials_2.thisRepN,trials_2.thisTrialN,trials_2.thisN,trials_2.thisIndex,trials_questions.thisRepN,trials_questions.thisTrialN,trials_questions.thisN,trials_questions.thisIndex,trials_test.thisRepN,trials_test.thisTrialN,trials_test.thisN,trials_test.thisIndex,trials_recogtest.thisRepN,trials_recogtest.thisTrialN,trials_recogtest.thisN,trials_recogtest.thisIndex,correctLocation,correctImage,repetitionNumber,stimulusPresent.t,responseTimeCorrect,pressLoc,responseTimeIncorrect,trialIncorrect,anticipatoryResponse,questionsResponses,AnswerFinished.keys,AnswerFinished.rt,RecordAnswer.keys,RecordAnswer.rt,correctKey,trialCorrect,recallResponse,recallResponseTime,date,frameRate,expName,session,participant,
min1.png,min2.png,min3.png,min4.png,allBlank.png,,,,,,,,,,,,0,0,0,0,,,,,,,,,,,,,,,,,"(-0.75, -0.04)",images/min1.png,1,0.114163645485,0.677748645045,[ 0.2046875  -0.07222222],,,,,,,,,,,,,2018_Jun_24_1716,59.737986241,sequenceLearningTask,001,143,
min1.png,min2.png,min3.png,min4.png,allBlank.png,,,,,,,,,,,,0,0,0,0,,,,,,,,,,,,,,,,,"(0.25, -0.04)",images/min3.png,1,0.112132466806,0.490268927068,[-0.69375    -0.05277778],,,,,,,,,,,,,2018_Jun_24_1716,59.737986241,sequenceLearningTask,001,143,
min1.png,min2.png,min3.png,min4.png,allBlank.png,,,,,,,,,,,,0,0,0,0,,,,,,,,,,,,,,,,,"(-0.25, -0.04)",images/min2.png,1,0.0726457137789,0.452152019629,[ 0.2421875  -0.11388889],,,,,,,,,,,,,2018_Jun_24_1716,59.737986241,sequenceLearningTask,001,143,
min1.png,min2.png,min3.png,min4.png,allBlank.png,,,,,,,,,,,,0,0,0,0,,,,,,,,,,,,,,,,,"(0.75, -0.04)",images/min4.png,1,0.0846551447466,0.371481693728,[-0.1890625  -0.13611111],,,,,,,,,,,,,2018_Jun_24_1716,59.737986241,sequenceLearningTask,001,143,
min1.png,min2.png,min3.png,min4.png,allBlank.png,,,,,,,,,,,,0,0,0,0,,,,,,,,,,,,,,,,,"(0.75, -0.04)",images/min4.png,1,0.061284077412,0.491061542125,[ 0.6984375  -0.07777778],,,,,,,,,,,,,2018_Jun_24_1716,59.737986241,sequenceLearningTask,001,143,
min1.png,min2.png,min3.png,min4.png,allBlank.png,,,,,,,,,,,,0,0,0,0,,,,,,,,,,,,,,,,,"(-0.25, -0.04)",images/min2.png,1,0.0631384356238,0.52415855421,[ 0.725      -0.05277778],,,,,,,,,,,,,2018_Jun_24_1716,59.737986241,sequenceLearningTask,001,143,
min1.png,min2.png,min3.png,min4.png,allBlank.png,,,,,,,,,,,,0,0,0,0,,,,,,,,,,,,,,,,,"(0.25, -0.04)",images/min3.png,1,0.0579417198023,0.395354914712,[-0.1953125  -0.05555556],,,,,,,,,,,,,2018_Jun_24_1716,59.737986241,sequenceLearningTask,001,143,
min1.png,min2.png,min3.png,min4.png,allBlank.png,,,,,,,,,,,,0,0,0,0,,,,,,,,,,,,,,,,,"(0.75, -0.04)",images/min4.png,1,0.0602453086176,0.450246789667,[ 0.2703125  -0.13333333],,,,,,,,,,,,,2018_Jun_24_1716,59.737986241,sequenceLearningTask,001,143,
min1.png,min2.png,min3.png,min4.png,allBlank.png,,,,,,,,,,,,0,1,1,1,,,,,,,,,,,,,,,,,"(-0.75, -0.04)",images/min1.png,2,0.0546420288738,0.586251246685,[ 0.7484375  -0.08055556],,,,,,,,,,,,,2018_Jun_24_1716,59.737986241,sequenceLearningTask,001,143,
min1.png,min2.png,min3.png,min4.png,allBlank.png,,,,,,,,,,,,0,1,1,1,,,,,,,,,,,,,,,,,"(0.25, -0.04)",images/min3.png,2,0.0530957730953,0.443350382237,[-0.7140625  -0.09166667],,,,,,,,,,,,,2018_Jun_24_1716,59.737986241,sequenceLearningTask,001,143,
min1.png,min2.png,min3.png,min4.png,allBlank.png,,,,,,,,,,,,0,1,1,1,,,,,,,,,,,,,,,,,"(-0.25, -0.04)",images/min2.png,2,0.0643737171777,0.442965972121,[ 0.225      -0.14166667],,,,,,,,,,,,,2018_Jun_24_1716,59.737986241,sequenceLearningTask,001,143,
min1.png,min2.png,min3.png,min4.png,allBlank.png,,,,,,,,,,,,0,1,1,1,,,,,,,,,,,,,,,,,"(0.75, -0.04)",images/min4.png,2,0.0618473592622,0.428171721782,[-0.1328125  -0.09166667],,,,,,,,,,,,,2018_Jun_24_1716,59.737986241,sequenceLearningTask,001,143,
min1.png,min2.png,min3.png,min4.png,allBlank.png,,,,,,,,,,,,0,1,1,1,,,,,,,,,,,,,,,,,"(0.75, -0.04)",images/min4.png,2,0.0602506419236,0.577184173453,[ 0.5953125 -0.125    ],,,,,,,,,,,,,2018_Jun_24_1716,59.737986241,sequenceLearningTask,001,143,
min1.png,min2.png,min3.png,min4.png,allBlank.png,,,,,,,,,,,,0,1,1,1,,,,,,,,,,,,,,,,,"(-0.25, -0.04)",images/min2.png,2,0.0633464355487,0.507870150643,[ 0.6859375  -0.19166667],,,,,,,,,,,,,2018_Jun_24_1716,59.737986241,sequenceLearningTask,001,143,
min1.png,min2.png,min3.png,min4.png,allBlank.png,,,,,,,,,,,,0,1,1,1,,,,,,,,,,,,,,,,,"(0.25, -0.04)",images/min3.png,2,0.0636368969572,0.455183813261,[-0.190625   -0.18888889],,,,,,,,,,,,,2018_Jun_24_1716,59.737986241,sequenceLearningTask,001,143,
min1.png,min2.png,min3.png,min4.png,allBlank.png,,,,,,,,,,,,0,1,1,1,,,,,,,,,,,,,,,,,"(0.75, -0.04)",images/min4.png,2,0.0568102331017,0.504085536784,[ 0.2265625  -0.16388889],,,,,,,,,,,,,2018_Jun_24_1716,59.737986241,sequenceLearningTask,001,143,
min1.png,min2.png,min3.png,min4.png,allBlank.png,,,,,,,,,,,,0,2,2,2,,,,,,,,,,,,,,,,,"(-0.75, -0.04)",images/min1.png,3,0.0659171011648,0.726941650471,[ 0.7265625 -0.075    ],,,,,,,,,,,,,2018_Jun_24_1716,59.737986241,sequenceLearningTask,001,143,
min1.png,min2.png,min3.png,min4.png,allBlank.png,,,,,,,,,,,,0,2,2,2,,,,,,,,,,,,,,,,,"(0.25, -0.04)",images/min3.png,3,0.0534941319202,0.692162177584,[-0.6265625  -0.10833333],,,,,,,,,,,,,2018_Jun_24_1716,59.737986241,sequenceLearningTask,001,143,
min1.png,min2.png,min3.png,min4.png,allBlank.png,,,,,,,,,,,,0,2,2,2,,,,,,,,,,,,,,,,,"(-0.25, -0.04)",images/min2.png,3,0.0593677705328,0.66687808538,[ 0.2828125 -0.025    ],,,,,,,,,,,,,2018_Jun_24_1716,59.737986241,sequenceLearningTask,001,143,
min1.png,min2.png,min3.png,min4.png,allBlank.png,,,,,,,,,,,,0,2,2,2,,,,,,,,,,,,,,,,,"(0.75, -0.04)",images/min4.png,3,0.0616061285546,0.63102127958,[-0.265625   -0.24444444],,,,,,,,,,,,,2018_Jun_24_1716,59.737986241,sequenceLearningTask,001,143,
min1.png,min2.png,min3.png,min4.png,allBlank.png,,,,,,,,,,,,0,2,2,2,,,,,,,,,,,,,,,,,"(0.75, -0.04)",images/min4.png,3,0.0541501316475,0.516488403518,[ 0.7328125  -0.13055556],,,,,,,,,,,,,2018_Jun_24_1716,59.737986241,sequenceLearningTask,001,143,
min1.png,min2.png,min3.png,min4.png,allBlank.png,,,,,,,,,,,,0,2,2,2,,,,,,,,,,,,,,,,,"(-0.25, -0.04)",images/min2.png,3,0.0556516694778,0.689211204415,[ 0.7125     -0.04444444],,,,,,,,,,,,,2018_Jun_24_1716,59.737986241,sequenceLearningTask,001,143,
min1.png,min2.png,min3.png,min4.png,allBlank.png,,,,,,,,,,,,0,2,2,2,,,,,,,,,,,,,,,,,"(0.25, -0.04)",images/min3.png,3,0.0553382337093,0.589020886575,[-0.225      -0.16388889],,,,,,,,,,,,,2018_Jun_24_1716,59.737986241,sequenceLearningTask,001,143,
min1.png,min2.png,min3.png,min4.png,allBlank.png,,,,,,,,,,,,0,2,2,2,,,,,,,,,,,,,,,,,"(0.75, -0.04)",images/min4.png,3,0.0594945396879,0.616215542075,[ 0.2703125  -0.16666667],,,,,,,,,,,,,2018_Jun_24_1716,59.737986241,sequenceLearningTask,001,143,
min1.png,min2.png,min3.png,min4.png,allBlank.png,,,,,,,,,,,,0,3,3,3,,,,,,,,,,,,,,,,,"(-0.75, -0.04)",images/min1.png,4,0.0595634627389,0.550475671596,[ 0.703125   -0.11388889],,,,,,,,,,,,,2018_Jun_24_1716,59.737986241,sequenceLearningTask,001,143,
min1.png,min2.png,min3.png,min4.png,allBlank.png,,,,,,,,,,,,0,3,3,3,,,,,,,,,,,,,,,,,"(0.25, -0.04)",images/min3.png,4,0.0595642832632,0.553532080608,[-0.7234375 -0.075    ],,,,,,,,,,,,,2018_Jun_24_1716,59.737986241,sequenceLearningTask,001,143,
min1.png,min2.png,min3.png,min4.png,allBlank.png,,,,,,,,,,,,0,3,3,3,,,,,,,,,,,,,,,,,"(-0.25, -0.04)",images/min2.png,4,0.064488178672,0.697713765054,[ 0.290625   -0.04444444],,,,,,,,,,,,,2018_Jun_24_1716,59.737986241,sequenceLearningTask,001,143,
min1.png,min2.png,min3.png,min4.png,allBlank.png,,,,,,,,,,,,0,3,3,3,,,,,,,,,,,,,,,,,"(0.75, -0.04)",images/min4.png,4,0.0583466427343,0.449388533569,[-0.3234375 -0.275    ],,,,,,,,,,,,,2018_Jun_24_1716,59.737986241,sequenceLearningTask,001,143,
min1.png,min2.png,min3.png,min4.png,allBlank.png,,,,,,,,,,,,0,3,3,3,,,,,,,,,,,,,,,,,"(0.75, -0.04)",images/min4.png,4,0.070625201799,0.234403185867,[ 0.7765625  -0.13055556],,,,,,,,,,,,,2018_Jun_24_1716,59.737986241,sequenceLearningTask,001,143,
min1.png,min2.png,min3.png,min4.png,allBlank.png,,,,,,,,,,,,0,3,3,3,,,,,,,,,,,,,,,,,"(-0.25, -0.04)",images/min2.png,4,0.0530633628368,0.580152787647,[ 0.7671875  -0.16388889],,,,,,,,,,,,,2018_Jun_24_1716,59.737986241,sequenceLearningTask,001,143,
min1.png,min2.png,min3.png,min4.png,allBlank.png,,,,,,,,,,,,0,3,3,3,,,,,,,,,,,,,,,,,"(0.25, -0.04)",images/min3.png,4,0.0531741320447,0.35014385634,[-0.2140625 -0.05     ],,,,,,,,,,,,,2018_Jun_24_1716,59.737986241,sequenceLearningTask,001,143,
min1.png,min2.png,min3.png,min4.png,allBlank.png,,,,,,,,,,,,0,3,3,3,,,,,,,,,,,,,,,,,"(0.75, -0.04)",images/min4.png,4,0.0541669521481,0.374085590127,[ 0.2328125  -0.14722222],,,,,,,,,,,,,2018_Jun_24_1716,59.737986241,sequenceLearningTask,001,143,
min1.png,min2.png,min3.png,min4.png,allBlank.png,,,,,,,,,,,,0,4,4,4,,,,,,,,,,,,,,,,,"(-0.75, -0.04)",images/min1.png,5,0.0516237737029,0.138459840615,[ 0.728125   -0.04166667],,,,,,,,,,,,,2018_Jun_24_1716,59.737986241,sequenceLearningTask,001,143,
min1.png,min2.png,min3.png,min4.png,allBlank.png,,,,,,,,,,,,0,4,4,4,,,,,,,,,,,,,,,,,"(0.25, -0.04)",images/min3.png,5,0.057942130079,0.617695336317,[-0.678125   -0.15833333],,,,,,,,,,,,,2018_Jun_24_1716,59.737986241,sequenceLearningTask,001,143,
min1.png,min2.png,min3.png,min4.png,allBlank.png,,,,,,,,,,,,0,4,4,4,,,,,,,,,,,,,,,,,"(-0.25, -0.04)",images/min2.png,5,0.0244922976417,0.885640252061,[ 0.3171875  -0.20277778],0.466536834254,1,,,,,,,,,,,2018_Jun_24_1716,59.737986241,sequenceLearningTask,001,143,
min1.png,min2.png,min3.png,min4.png,allBlank.png,,,,,,,,,,,,0,4,4,4,,,,,,,,,,,,,,,,,"(0.75, -0.04)",images/min4.png,5,0.0638715635287,0.244634566305,[-0.184375   -0.16944444],,,,,,,,,,,,,2018_Jun_24_1716,59.737986241,sequenceLearningTask,001,143,
min1.png,min2.png,min3.png,min4.png,allBlank.png,,,,,,,,,,,,0,4,4,4,,,,,,,,,,,,,,,,,"(0.75, -0.04)",images/min4.png,5,0.0582436684344,0.233836211759,[ 0.8515625 -0.125    ],,,,,,,,,,,,,2018_Jun_24_1716,59.737986241,sequenceLearningTask,001,143,
min1.png,min2.png,min3.png,min4.png,allBlank.png,,,,,,,,,,,,0,4,4,4,,,,,,,,,,,,,,,,,"(-0.25, -0.04)",images/min2.png,5,0.0648180246935,0.562051871995,[ 0.80625    -0.25833333],,,,,,,,,,,,,2018_Jun_24_1716,59.737986241,sequenceLearningTask,001,143,
min1.png,min2.png,min3.png,min4.png,allBlank.png,,,,,,,,,,,,0,4,4,4,,,,,,,,,,,,,,,,,"(0.25, -0.04)",images/min3.png,5,0.0644496145833,0.295022237959,[-0.1796875  -0.18611111],,,,,,,,,,,,,2018_Jun_24_1716,59.737986241,sequenceLearningTask,001,143,
min1.png,min2.png,min3.png,min4.png,allBlank.png,,,,,,,,,,,,0,4,4,4,,,,,,,,,,,,,,,,,"(0.75, -0.04)",images/min4.png,5,0.0666055111215,0.341804167459,[ 0.3203125  -0.03333333],,,,,,,,,,,,,2018_Jun_24_1716,59.737986241,sequenceLearningTask,001,143,
min1.png,min2.png,min3.png,min4.png,allBlank.png,,,,,,,,,,,,0,5,5,5,,,,,,,,,,,,,,,,,"(-0.75, -0.04)",images/min1.png,6,0.0646662298823,0.352706316859,[ 0.7578125  -0.06111111],,,,,,,,,,,,,2018_Jun_24_1716,59.737986241,sequenceLearningTask,001,143,
min1.png,min2.png,min3.png,min4.png,allBlank.png,,,,,,,,,,,,0,5,5,5,,,,,,,,,,,,,,,,,"(0.25, -0.04)",images/min3.png,6,0.0561037718726,0.599655959115,[-0.7078125  -0.06388889],,,,,,,,,,,,,2018_Jun_24_1716,59.737986241,sequenceLearningTask,001,143,
min1.png,min2.png,min3.png,min4.png,allBlank.png,,,,,,,,,,,,0,5,5,5,,,,,,,,,,,,,,,,,"(-0.25, -0.04)",images/min2.png,6,0.0586522836238,0.563907050702,[ 0.1703125  -0.13611111],,,,,,,,,,,,,2018_Jun_24_1716,59.737986241,sequenceLearningTask,001,143,
min1.png,min2.png,min3.png,min4.png,allBlank.png,,,,,,,,,,,,0,5,5,5,,,,,,,,,,,,,,,,,"(0.75, -0.04)",images/min4.png,6,0.0533726960421,0.340350629616,[-0.1390625  -0.17222222],,,,,,,,,,,,,2018_Jun_24_1716,59.737986241,sequenceLearningTask,001,143,
min1.png,min2.png,min3.png,min4.png,allBlank.png,,,,,,,,,,,,0,5,5,5,,,,,,,,,,,,,,,,,"(0.75, -0.04)",images/min4.png,6,0.0598810010706,0.425362697308,[ 0.746875   -0.03055556],,,,,,,,,,,,,2018_Jun_24_1716,59.737986241,sequenceLearningTask,001,143,
min1.png,min2.png,min3.png,min4.png,allBlank.png,,,,,,,,,,,,0,5,5,5,,,,,,,,,,,,,,,,,"(-0.25, -0.04)",images/min2.png,6,0.060842231469,0.563677717466,[ 0.7078125  -0.25277778],,,,,,,,,,,,,2018_Jun_24_1716,59.737986241,sequenceLearningTask,001,143,
min1.png,min2.png,min3.png,min4.png,allBlank.png,,,,,,,,,,,,0,5,5,5,,,,,,,,,,,,,,,,,"(0.25, -0.04)",images/min3.png,6,0.0644988453423,0.487579287146,[-0.3515625  -0.21944444],,,,,,,,,,,,,2018_Jun_24_1716,59.737986241,sequenceLearningTask,001,143,
min1.png,min2.png,min3.png,min4.png,allBlank.png,,,,,,,,,,,,0,5,5,5,,,,,,,,,,,,,,,,,"(0.75, -0.04)",images/min4.png,6,0.0557177207374,0.472186883184,[ 0.178125    0.00833333],,,,,,,,,,,,,2018_Jun_24_1716,59.737986241,sequenceLearningTask,001,143,
min1.png,min2.png,min3.png,min4.png,allBlank.png,,,,,,,,,,,,0,6,6,6,,,,,,,,,,,,,,,,,"(-0.75, -0.04)",images/min1.png,7,0.0552291055501,0.733691186178,[ 0.7125     -0.06944444],,,,,,,,,,,,,2018_Jun_24_1716,59.737986241,sequenceLearningTask,001,143,
min1.png,min2.png,min3.png,min4.png,allBlank.png,,,,,,,,,,,,0,6,6,6,,,,,,,,,,,,,,,,,"(0.25, -0.04)",images/min3.png,7,0.0618522823206,0.445142791723,[-0.628125   -0.10833333],,,,,,,,,,,,,2018_Jun_24_1716,59.737986241,sequenceLearningTask,001,143,
min1.png,min2.png,min3.png,min4.png,allBlank.png,,,,,,,,,,,,0,6,6,6,,,,,,,,,,,,,,,,,"(-0.25, -0.04)",images/min2.png,7,0.0563593615079,0.637525482045,[ 0.2109375   0.08055556],,,,,,,,,,,,,2018_Jun_24_1716,59.737986241,sequenceLearningTask,001,143,
min1.png,min2.png,min3.png,min4.png,allBlank.png,,,,,,,,,,,,0,6,6,6,,,,,,,,,,,,,,,,,"(0.75, -0.04)",images/min4.png,7,0.061631974706,0.330780582241,[-0.20625    -0.25277778],,,,,,,,,,,,,2018_Jun_24_1716,59.737986241,sequenceLearningTask,001,143,
min1.png,min2.png,min3.png,min4.png,allBlank.png,,,,,,,,,,,,0,6,6,6,,,,,,,,,,,,,,,,,"(0.75, -0.04)",images/min4.png,7,0.0560746436531,0.335207657336,[ 0.8125     -0.06388889],,,,,,,,,,,,,2018_Jun_24_1716,59.737986241,sequenceLearningTask,001,143,
min1.png,min2.png,min3.png,min4.png,allBlank.png,,,,,,,,,,,,0,6,6,6,,,,,,,,,,,,,,,,,"(-0.25, -0.04)",images/min2.png,7,0.0560369000887,0.568938843498,[ 0.7265625   0.00277778],,,,,,,,,,,,,2018_Jun_24_1716,59.737986241,sequenceLearningTask,001,143,
min1.png,min2.png,min3.png,min4.png,allBlank.png,,,,,,,,,,,,0,6,6,6,,,,,,,,,,,,,,,,,"(0.25, -0.04)",images/min3.png,7,0.0498933128547,0.509508303803,[-0.203125   -0.01666667],,,,,,,,,,,,,2018_Jun_24_1716,59.737986241,sequenceLearningTask,001,143,
min1.png,min2.png,min3.png,min4.png,allBlank.png,,,,,,,,,,,,0,6,6,6,,,,,,,,,,,,,,,,,"(0.75, -0.04)",images/min4.png,7,0.0531076705083,0.339345912071,[ 0.2953125  -0.01944444],,,,,,,,,,,,,2018_Jun_24_1716,59.737986241,sequenceLearningTask,001,143,
min1.png,min2.png,min3.png,min4.png,allBlank.png,,,,,,,,,,,,0,7,7,7,,,,,,,,,,,,,,,,,"(-0.75, -0.04)",images/min1.png,8,0.0551839773543,0.41872064874,[ 0.7046875  -0.19444444],,,,,,,,,,,,,2018_Jun_24_1716,59.737986241,sequenceLearningTask,001,143,
min1.png,min2.png,min3.png,min4.png,allBlank.png,,,,,,,,,,,,0,7,7,7,,,,,,,,,,,,,,,,,"(0.25, -0.04)",images/min3.png,8,0.0586407964583,0.500942153449,[-0.7484375  -0.20833333],,,,,,,,,,,,,2018_Jun_24_1716,59.737986241,sequenceLearningTask,001,143,
min1.png,min2.png,min3.png,min4.png,allBlank.png,,,,,,,,,,,,0,7,7,7,,,,,,,,,,,,,,,,,"(-0.25, -0.04)",images/min2.png,8,0.0628492049873,0.378275126859,[ 0.3203125  -0.18611111],,,,,,,,,,,,,2018_Jun_24_1716,59.737986241,sequenceLearningTask,001,143,
min1.png,min2.png,min3.png,min4.png,allBlank.png,,,,,,,,,,,,0,7,7,7,,,,,,,,,,,,,,,,,"(0.75, -0.04)",images/min4.png,8,0.0637550507672,0.330104890221,[-0.1203125  -0.09166667],,,,,,,,,,,,,2018_Jun_24_1716,59.737986241,sequenceLearningTask,001,143,
min1.png,min2.png,min3.png,min4.png,allBlank.png,,,,,,,,,,,,0,7,7,7,,,,,,,,,,,,,,,,,"(0.75, -0.04)",images/min4.png,8,0.0566034639778,0.471127191355,[ 0.6703125  -0.08055556],,,,,,,,,,,,,2018_Jun_24_1716,59.737986241,sequenceLearningTask,001,143,
min1.png,min2.png,min3.png,min4.png,allBlank.png,,,,,,,,,,,,0,7,7,7,,,,,,,,,,,,,,,,,"(-0.25, -0.04)",images/min2.png,8,0.0551610030234,0.733295699174,[ 0.8078125   0.05833333],,,,,,,,,,,,,2018_Jun_24_1716,59.737986241,sequenceLearningTask,001,143,
min1.png,min2.png,min3.png,min4.png,allBlank.png,,,,,,,,,,,,0,7,7,7,,,,,,,,,,,,,,,,,"(0.25, -0.04)",images/min3.png,8,0.0567831561784,0.419662597065,[-0.08125    -0.09722222],,,,,,,,,,,,,2018_Jun_24_1716,59.737986241,sequenceLearningTask,001,143,
min1.png,min2.png,min3.png,min4.png,allBlank.png,,,,,,,,,,,,0,7,7,7,,,,,,,,,,,,,,,,,"(0.75, -0.04)",images/min4.png,8,0.0622892052052,0.260953739111,[ 0.296875   -0.00833333],,,,,,,,,,,,,2018_Jun_24_1716,59.737986241,sequenceLearningTask,001,143,
min1.png,min2.png,min3.png,min4.png,allBlank.png,,,,,,,,,,,,0,8,8,8,,,,,,,,,,,,,,,,,"(-0.75, -0.04)",images/min1.png,9,0.0568606946326,0.616489182983,[ 0.6984375   0.15833333],,,,,,,,,,,,,2018_Jun_24_1716,59.737986241,sequenceLearningTask,001,143,
min1.png,min2.png,min3.png,min4.png,allBlank.png,,,,,,,,,,,,0,8,8,8,,,,,,,,,,,,,,,,,"(0.25, -0.04)",images/min3.png,9,0.0578235660214,0.535030344588,[-0.6203125   0.04722222],,,,,,,,,,,,,2018_Jun_24_1716,59.737986241,sequenceLearningTask,001,143,
min1.png,min2.png,min3.png,min4.png,allBlank.png,,,,,,,,,,,,0,8,8,8,,,,,,,,,,,,,,,,,"(-0.25, -0.04)",images/min2.png,9,0.0563191563706,0.619763438037,[ 0.1828125   0.03888889],,,,,,,,,,,,,2018_Jun_24_1716,59.737986241,sequenceLearningTask,001,143,
min1.png,min2.png,min3.png,min4.png,allBlank.png,,,,,,,,,,,,0,8,8,8,,,,,,,,,,,,,,,,,"(0.75, -0.04)",images/min4.png,9,0.0305645002809,0.0565505409031,[-0.1734375  -0.21944444],,,,,,,,,,,,,2018_Jun_24_1716,59.737986241,sequenceLearningTask,001,143,
min1.png,min2.png,min3.png,min4.png,allBlank.png,,,,,,,,,,,,0,8,8,8,,,,,,,,,,,,,,,,,"(0.75, -0.04)",images/min4.png,9,0.0245517847943,0.0261542456865,[ 0.6921875   0.03055556],,,,,,,,,,,,,2018_Jun_24_1716,59.737986241,sequenceLearningTask,001,143,
min1.png,min2.png,min3.png,min4.png,allBlank.png,,,,,,,,,,,,0,8,8,8,,,,,,,,,,,,,,,,,"(-0.25, -0.04)",images/min2.png,9,0.0669197674142,0.508748509252,[ 0.715625    0.04722222],,,,,,,,,,,,,2018_Jun_24_1716,59.737986241,sequenceLearningTask,001,143,
min1.png,min2.png,min3.png,min4.png,allBlank.png,,,,,,,,,,,,0,8,8,8,,,,,,,,,,,,,,,,,"(0.25, -0.04)",images/min3.png,9,0.0577033609152,0.168109469494,[-0.240625   -0.17222222],,,,,,,,,,,,,2018_Jun_24_1716,59.737986241,sequenceLearningTask,001,143,
min1.png,min2.png,min3.png,min4.png,allBlank.png,,,,,,,,,,,,0,8,8,8,,,,,,,,,,,,,,,,,"(0.75, -0.04)",images/min4.png,9,0.0610046929214,0.00462851091288,[ 0.3296875  -0.07222222],,,1,,,,,,,,,,2018_Jun_24_1716,59.737986241,sequenceLearningTask,001,143,
min1.png,min2.png,min3.png,min4.png,allBlank.png,,,,,,,,,,,,0,9,9,9,,,,,,,,,,,,,,,,,"(-0.75, -0.04)",images/min1.png,10,0.0621353591268,0.764302455675,[ 0.7453125   0.11388889],,,,,,,,,,,,,2018_Jun_24_1716,59.737986241,sequenceLearningTask,001,143,
min1.png,min2.png,min3.png,min4.png,allBlank.png,,,,,,,,,,,,0,9,9,9,,,,,,,,,,,,,,,,,"(0.25, -0.04)",images/min3.png,10,0.0602768983517,0.478899495822,[-0.6828125  -0.25833333],,,,,,,,,,,,,2018_Jun_24_1716,59.737986241,sequenceLearningTask,001,143,
min1.png,min2.png,min3.png,min4.png,allBlank.png,,,,,,,,,,,,0,9,9,9,,,,,,,,,,,,,,,,,"(-0.25, -0.04)",images/min2.png,10,0.0548250031425,0.55367156773,[ 0.3109375  -0.05277778],,,,,,,,,,,,,2018_Jun_24_1716,59.737986241,sequenceLearningTask,001,143,
min1.png,min2.png,min3.png,min4.png,allBlank.png,,,,,,,,,,,,0,9,9,9,,,,,,,,,,,,,,,,,"(0.75, -0.04)",images/min4.png,10,0.054744592926,0.39094260885,[-0.24375 -0.125  ],,,,,,,,,,,,,2018_Jun_24_1716,59.737986241,sequenceLearningTask,001,143,
min1.png,min2.png,min3.png,min4.png,allBlank.png,,,,,,,,,,,,0,9,9,9,,,,,,,,,,,,,,,,,"(0.75, -0.04)",images/min4.png,10,0.0251363999269,0.0671692031901,[ 0.6828125   0.10277778],,,,,,,,,,,,,2018_Jun_24_1716,59.737986241,sequenceLearningTask,001,143,
min1.png,min2.png,min3.png,min4.png,allBlank.png,,,,,,,,,,,,0,9,9,9,,,,,,,,,,,,,,,,,"(-0.25, -0.04)",images/min2.png,10,0.0639281788899,0.623804051778,[ 0.75       -0.00555556],,,,,,,,,,,,,2018_Jun_24_1716,59.737986241,sequenceLearningTask,001,143,
min1.png,min2.png,min3.png,min4.png,allBlank.png,,,,,,,,,,,,0,9,9,9,,,,,,,,,,,,,,,,,"(0.25, -0.04)",images/min3.png,10,0.0609694109007,0.391040249844,[-0.178125   -0.19444444],,,,,,,,,,,,,2018_Jun_24_1716,59.737986241,sequenceLearningTask,001,143,
min1.png,min2.png,min3.png,min4.png,allBlank.png,,,,,,,,,,,,0,9,9,9,,,,,,,,,,,,,,,,,"(0.75, -0.04)",images/min4.png,10,0.0610186416307,0.249925230804,[ 0.3125     -0.05833333],,,,,,,,,,,,,2018_Jun_24_1716,59.737986241,sequenceLearningTask,001,143,
min1.png,min2.png,min3.png,min4.png,allBlank.png,,,,,,,,,,,,0,0,0,0,,,,,,,,,,,,,,,,,"(-0.75, -0.04)",images/min1.png,1,0.0393029582337,0.55743607902,[ 0.7328125  -0.00277778],,,,,,,,,,,,,2018_Jun_24_1716,59.737986241,sequenceLearningTask,001,143,
min1.png,min2.png,min3.png,min4.png,allBlank.png,,,,,,,,,,,,0,0,0,0,,,,,,,,,,,,,,,,,"(0.25, -0.04)",images/min3.png,1,0.0652898193803,0.429652336548,[-0.6828125  -0.08055556],,,,,,,,,,,,,2018_Jun_24_1716,59.737986241,sequenceLearningTask,001,143,
min1.png,min2.png,min3.png,min4.png,allBlank.png,,,,,,,,,,,,0,0,0,0,,,,,,,,,,,,,,,,,"(-0.25, -0.04)",images/min2.png,1,0.0591540270252,0.495349540375,[ 0.2421875  0.125    ],,,,,,,,,,,,,2018_Jun_24_1716,59.737986241,sequenceLearningTask,001,143,
min1.png,min2.png,min3.png,min4.png,allBlank.png,,,,,,,,,,,,0,0,0,0,,,,,,,,,,,,,,,,,"(0.75, -0.04)",images/min4.png,1,0.0604824367329,0.366974208417,[-0.2359375  -0.04722222],,,,,,,,,,,,,2018_Jun_24_1716,59.737986241,sequenceLearningTask,001,143,
min1.png,min2.png,min3.png,min4.png,allBlank.png,,,,,,,,,,,,0,0,0,0,,,,,,,,,,,,,,,,,"(0.75, -0.04)",images/min4.png,1,0.056771669013,0.668943315308,[ 0.7234375   0.08055556],,,,,,,,,,,,,2018_Jun_24_1716,59.737986241,sequenceLearningTask,001,143,
min1.png,min2.png,min3.png,min4.png,allBlank.png,,,,,,,,,,,,0,0,0,0,,,,,,,,,,,,,,,,,"(-0.25, -0.04)",images/min2.png,1,0.0636684866913,0.579347864899,[ 0.5984375   0.00833333],,,,,,,,,,,,,2018_Jun_24_1716,59.737986241,sequenceLearningTask,001,143,
min1.png,min2.png,min3.png,min4.png,allBlank.png,,,,,,,,,,,,0,0,0,0,,,,,,,,,,,,,,,,,"(0.25, -0.04)",images/min3.png,1,0.0605940264359,0.417715931195,[-0.15  -0.175],,,,,,,,,,,,,2018_Jun_24_1716,59.737986241,sequenceLearningTask,001,143,
min1.png,min2.png,min3.png,min4.png,allBlank.png,,,,,,,,,,,,0,0,0,0,,,,,,,,,,,,,,,,,"(0.75, -0.04)",images/min4.png,1,0.0568172074563,0.937948333129,[ 0.26875    -0.06944444],0.437247000082,1,,,,,,,,,,,2018_Jun_24_1716,59.737986241,sequenceLearningTask,001,143,
min1.png,min2.png,min3.png,min4.png,allBlank.png,,,,,,,,,,,,0,1,1,1,,,,,,,,,,,,,,,,,"(-0.75, -0.04)",images/min1.png,2,0.0602313599084,0.813914332743,[ 0.834375   -0.11944444],,,,,,,,,,,,,2018_Jun_24_1716,59.737986241,sequenceLearningTask,001,143,
min1.png,min2.png,min3.png,min4.png,allBlank.png,,,,,,,,,,,,0,1,1,1,,,,,,,,,,,,,,,,,"(0.25, -0.04)",images/min3.png,2,0.0570141304634,0.436281667149,[-0.6        -0.21944444],,,,,,,,,,,,,2018_Jun_24_1716,59.737986241,sequenceLearningTask,001,143,
min1.png,min2.png,min3.png,min4.png,allBlank.png,,,,,,,,,,,,0,1,1,1,,,,,,,,,,,,,,,,,"(-0.25, -0.04)",images/min2.png,2,0.0540167983563,0.571099663153,[ 0.28125    -0.06944444],,,,,,,,,,,,,2018_Jun_24_1716,59.737986241,sequenceLearningTask,001,143,
min1.png,min2.png,min3.png,min4.png,allBlank.png,,,,,,,,,,,,0,1,1,1,,,,,,,,,,,,,,,,,"(0.75, -0.04)",images/min4.png,2,0.0595511550491,0.45021889222,[-0.1515625  -0.20277778],,,,,,,,,,,,,2018_Jun_24_1716,59.737986241,sequenceLearningTask,001,143,
min1.png,min2.png,min3.png,min4.png,allBlank.png,,,,,,,,,,,,0,1,1,1,,,,,,,,,,,,,,,,,"(0.75, -0.04)",images/min4.png,2,0.0551540286397,0.786304497946,[ 0.7234375  -0.04166667],,,,,,,,,,,,,2018_Jun_24_1716,59.737986241,sequenceLearningTask,001,143,
min1.png,min2.png,min3.png,min4.png,allBlank.png,,,,,,,,,,,,0,1,1,1,,,,,,,,,,,,,,,,,"(-0.25, -0.04)",images/min2.png,2,0.0607745391608,0.525217425544,[ 0.690625   -0.11666667],,,,,,,,,,,,,2018_Jun_24_1716,59.737986241,sequenceLearningTask,001,143,
min1.png,min2.png,min3.png,min4.png,allBlank.png,,,,,,,,,,,,0,1,1,1,,,,,,,,,,,,,,,,,"(0.25, -0.04)",images/min3.png,2,0.0567187459674,0.402478604112,[-0.1984375  -0.29166667],,,,,,,,,,,,,2018_Jun_24_1716,59.737986241,sequenceLearningTask,001,143,
min1.png,min2.png,min3.png,min4.png,allBlank.png,,,,,,,,,,,,0,1,1,1,,,,,,,,,,,,,,,,,"(0.75, -0.04)",images/min4.png,2,0.0606650007539,0.393959633249,[ 0.2234375  -0.13333333],,,,,,,,,,,,,2018_Jun_24_1716,59.737986241,sequenceLearningTask,001,143,
min1.png,min2.png,min3.png,min4.png,allBlank.png,,,,,,,,,,,,0,2,2,2,,,,,,,,,,,,,,,,,"(-0.75, -0.04)",images/min1.png,3,0.0607285904698,0.695102073805,[ 0.6171875  -0.14166667],,,,,,,,,,,,,2018_Jun_24_1716,59.737986241,sequenceLearningTask,001,143,
min1.png,min2.png,min3.png,min4.png,allBlank.png,,,,,,,,,,,,0,2,2,2,,,,,,,,,,,,,,,,,"(0.25, -0.04)",images/min3.png,3,0.0551240799541,0.422589775349,[-0.6953125  -0.35277778],,,,,,,,,,,,,2018_Jun_24_1716,59.737986241,sequenceLearningTask,001,143,
min1.png,min2.png,min3.png,min4.png,allBlank.png,,,,,,,,,,,,0,2,2,2,,,,,,,,,,,,,,,,,"(-0.25, -0.04)",images/min2.png,3,0.0625587435497,0.510984816006,[ 0.2640625  -0.16388889],,,,,,,,,,,,,2018_Jun_24_1716,59.737986241,sequenceLearningTask,001,143,
min1.png,min2.png,min3.png,min4.png,allBlank.png,,,,,,,,,,,,0,2,2,2,,,,,,,,,,,,,,,,,"(0.75, -0.04)",images/min4.png,3,0.0541661316238,0.11872897693,[-0.1890625  -0.24166667],,,,,,,,,,,,,2018_Jun_24_1716,59.737986241,sequenceLearningTask,001,143,
min1.png,min2.png,min3.png,min4.png,allBlank.png,,,,,,,,,,,,0,2,2,2,,,,,,,,,,,,,,,,,"(0.75, -0.04)",images/min4.png,3,0.0244783489325,0.0639507430024,[ 0.8640625  -0.20833333],,,,,,,,,,,,,2018_Jun_24_1716,59.737986241,sequenceLearningTask,001,143,
min1.png,min2.png,min3.png,min4.png,allBlank.png,,,,,,,,,,,,0,2,2,2,,,,,,,,,,,,,,,,,"(-0.25, -0.04)",images/min2.png,3,0.0578641814063,0.564594640164,[ 0.7953125  -0.20833333],,,,,,,,,,,,,2018_Jun_24_1716,59.737986241,sequenceLearningTask,001,143,
min1.png,min2.png,min3.png,min4.png,allBlank.png,,,,,,,,,,,,0,2,2,2,,,,,,,,,,,,,,,,,"(0.25, -0.04)",images/min3.png,3,0.0621784360264,0.581014736003,[-0.1046875  -0.15833333],,,,,,,,,,,,,2018_Jun_24_1716,59.737986241,sequenceLearningTask,001,143,
min1.png,min2.png,min3.png,min4.png,allBlank.png,,,,,,,,,,,,0,2,2,2,,,,,,,,,,,,,,,,,"(0.75, -0.04)",images/min4.png,3,0.0568693100067,0.715705962793,[ 0.790625   -0.10277778],,,,,,,,,,,,,2018_Jun_24_1716,59.737986241,sequenceLearningTask,001,143,
min1.png,min2.png,min3.png,min4.png,allBlank.png,,,,,,,,,,,,0,3,3,3,,,,,,,,,,,,,,,,,"(-0.75, -0.04)",images/min1.png,4,0.05257761947,0.558935975831,[-0.7296875 -0.15     ],,,,,,,,,,,,,2018_Jun_24_1716,59.737986241,sequenceLearningTask,001,143,
min1.png,min2.png,min3.png,min4.png,allBlank.png,,,,,,,,,,,,0,3,3,3,,,,,,,,,,,,,,,,,"(0.25, -0.04)",images/min3.png,4,0.0580463351507,0.377994511597,[-0.7359375  -0.16111111],,,,,,,,,,,,,2018_Jun_24_1716,59.737986241,sequenceLearningTask,001,143,
min1.png,min2.png,min3.png,min4.png,allBlank.png,,,,,,,,,,,,0,3,3,3,,,,,,,,,,,,,,,,,"(-0.25, -0.04)",images/min2.png,4,0.04623382719,0.211566272192,[ 0.2890625  -0.01111111],,,,,,,,,,,,,2018_Jun_24_1716,59.737986241,sequenceLearningTask,001,143,
min1.png,min2.png,min3.png,min4.png,allBlank.png,,,,,,,,,,,,0,3,3,3,,,,,,,,,,,,,,,,,"(0.75, -0.04)",images/min4.png,4,0.0637095123238,0.181548233231,[-0.2        -0.18611111],,,,,,,,,,,,,2018_Jun_24_1716,59.737986241,sequenceLearningTask,001,143,
min1.png,min2.png,min3.png,min4.png,allBlank.png,,,,,,,,,,,,0,3,3,3,,,,,,,,,,,,,,,,,"(0.75, -0.04)",images/min4.png,4,0.0528143373085,0.241900208435,[ 0.8109375   0.01111111],,,,,,,,,,,,,2018_Jun_24_1716,59.737986241,sequenceLearningTask,001,143,
min1.png,min2.png,min3.png,min4.png,allBlank.png,,,,,,,,,,,,0,3,3,3,,,,,,,,,,,,,,,,,"(-0.25, -0.04)",images/min2.png,4,0.0572188483202,0.580670531024,[ 0.7171875  -0.05277778],,,,,,,,,,,,,2018_Jun_24_1716,59.737986241,sequenceLearningTask,001,143,
min1.png,min2.png,min3.png,min4.png,allBlank.png,,,,,,,,,,,,0,3,3,3,,,,,,,,,,,,,,,,,"(0.25, -0.04)",images/min3.png,4,0.0564348486369,0.355516982352,[-0.3359375  -0.19722222],,,,,,,,,,,,,2018_Jun_24_1716,59.737986241,sequenceLearningTask,001,143,
min1.png,min2.png,min3.png,min4.png,allBlank.png,,,,,,,,,,,,0,3,3,3,,,,,,,,,,,,,,,,,"(0.75, -0.04)",images/min4.png,4,0.0601292061037,0.397674503532,[ 0.2796875  -0.04444444],,,,,,,,,,,,,2018_Jun_24_1716,59.737986241,sequenceLearningTask,001,143,
min1.png,min2.png,min3.png,min4.png,allBlank.png,,,,,,,,,,,,0,4,4,4,,,,,,,,,,,,,,,,,"(-0.75, -0.04)",images/min1.png,5,0.061284077412,0.59713124219,[ 0.6421875  -0.00277778],,,,,,,,,,,,,2018_Jun_24_1716,59.737986241,sequenceLearningTask,001,143,
min1.png,min2.png,min3.png,min4.png,allBlank.png,,,,,,,,,,,,0,4,4,4,,,,,,,,,,,,,,,,,"(0.25, -0.04)",images/min3.png,5,0.0582141299383,0.446154483623,[-0.7140625 -0.05     ],,,,,,,,,,,,,2018_Jun_24_1716,59.737986241,sequenceLearningTask,001,143,
min1.png,min2.png,min3.png,min4.png,allBlank.png,,,,,,,,,,,,0,4,4,4,,,,,,,,,,,,,,,,,"(-0.25, -0.04)",images/min2.png,5,0.0557944386674,0.569998945633,[ 0.2296875   0.06944444],,,,,,,,,,,,,2018_Jun_24_1716,59.737986241,sequenceLearningTask,001,143,
min1.png,min2.png,min3.png,min4.png,allBlank.png,,,,,,,,,,,,0,4,4,4,,,,,,,,,,,,,,,,,"(0.75, -0.04)",images/min4.png,5,0.0625841794536,0.408035524917,[-0.215625   -0.18611111],,,,,,,,,,,,,2018_Jun_24_1716,59.737986241,sequenceLearningTask,001,143,
min1.png,min2.png,min3.png,min4.png,allBlank.png,,,,,,,,,,,,0,4,4,4,,,,,,,,,,,,,,,,,"(0.75, -0.04)",images/min4.png,5,0.0573587457184,0.730700828426,[ 0.6625      0.08888889],,,,,,,,,,,,,2018_Jun_24_1716,59.737986241,sequenceLearningTask,001,143,
min1.png,min2.png,min3.png,min4.png,allBlank.png,,,,,,,,,,,,0,4,4,4,,,,,,,,,,,,,,,,,"(-0.25, -0.04)",images/min2.png,5,0.0562079769443,0.499708512943,[ 0.7546875   0.10277778],,,,,,,,,,,,,2018_Jun_24_1716,59.737986241,sequenceLearningTask,001,143,
min1.png,min2.png,min3.png,min4.png,allBlank.png,,,,,,,,,,,,0,4,4,4,,,,,,,,,,,,,,,,,"(0.25, -0.04)",images/min3.png,5,0.0563326948613,0.370086002018,[-0.0984375  -0.06944444],,,,,,,,,,,,,2018_Jun_24_1716,59.737986241,sequenceLearningTask,001,143,
min1.png,min2.png,min3.png,min4.png,allBlank.png,,,,,,,,,,,,0,4,4,4,,,,,,,,,,,,,,,,,"(0.75, -0.04)",images/min4.png,5,0.0639503327257,0.276096296962,[ 0.2640625   0.11388889],,,,,,,,,,,,,2018_Jun_24_1716,59.737986241,sequenceLearningTask,001,143,
min1.png,min2.png,min3.png,min4.png,allBlank.png,,,,,,,,,,,,0,5,5,5,,,,,,,,,,,,,,,,,"(-0.75, -0.04)",images/min1.png,6,0.0608299237501,0.428652952367,[ 0.7703125   0.04722222],,,,,,,,,,,,,2018_Jun_24_1716,59.737986241,sequenceLearningTask,001,143,
min1.png,min2.png,min3.png,min4.png,allBlank.png,,,,,,,,,,,,0,5,5,5,,,,,,,,,,,,,,,,,"(0.25, -0.04)",images/min3.png,6,0.0625657179335,0.566464177857,[-0.665625   -0.13333333],,,,,,,,,,,,,2018_Jun_24_1716,59.737986241,sequenceLearningTask,001,143,
min1.png,min2.png,min3.png,min4.png,allBlank.png,,,,,,,,,,,,0,5,5,5,,,,,,,,,,,,,,,,,"(-0.25, -0.04)",images/min2.png,6,0.0638489994453,0.260030252277,[ 0.2015625   0.07222222],,,,,,,,,,,,,2018_Jun_24_1716,59.737986241,sequenceLearningTask,001,143,
min1.png,min2.png,min3.png,min4.png,allBlank.png,,,,,,,,,,,,0,5,5,5,,,,,,,,,,,,,,,,,"(0.75, -0.04)",images/min4.png,6,0.0572578226565,0.0823921713163,[-0.121875   -0.13333333],,,,,,,,,,,,,2018_Jun_24_1716,59.737986241,sequenceLearningTask,001,143,
min1.png,min2.png,min3.png,min4.png,allBlank.png,,,,,,,,,,,,0,5,5,5,,,,,,,,,,,,,,,,,"(0.75, -0.04)",images/min4.png,6,0.0750580205058,0.583665811835,[ 0.74375     0.00555556],,,,,,,,,,,,,2018_Jun_24_1716,59.737986241,sequenceLearningTask,001,143,
min1.png,min2.png,min3.png,min4.png,allBlank.png,,,,,,,,,,,,0,5,5,5,,,,,,,,,,,,,,,,,"(-0.25, -0.04)",images/min2.png,6,0.0607179237995,0.593847961514,[ 0.7296875   0.06388889],,,,,,,,,,,,,2018_Jun_24_1716,59.737986241,sequenceLearningTask,001,143,
min1.png,min2.png,min3.png,min4.png,allBlank.png,,,,,,,,,,,,0,5,5,5,,,,,,,,,,,,,,,,,"(0.25, -0.04)",images/min3.png,6,0.0544922853587,0.353295444802,[-0.2546875  -0.14722222],,,,,,,,,,,,,2018_Jun_24_1716,59.737986241,sequenceLearningTask,001,143,
min1.png,min2.png,min3.png,min4.png,allBlank.png,,,,,,,,,,,,0,5,5,5,,,,,,,,,,,,,,,,,"(0.75, -0.04)",images/min4.png,6,0.0527585424716,0.45176801979,[ 0.271875   -0.07222222],,,,,,,,,,,,,2018_Jun_24_1716,59.737986241,sequenceLearningTask,001,143,
min1.png,min2.png,min3.png,min4.png,allBlank.png,,,,,,,,,,,,0,6,6,6,,,,,,,,,,,,,,,,,"(-0.75, -0.04)",images/min1.png,7,0.0633033586491,0.511682251614,[ 0.665625  0.05    ],,,,,,,,,,,,,2018_Jun_24_1716,59.737986241,sequenceLearningTask,001,143,
min1.png,min2.png,min3.png,min4.png,allBlank.png,,,,,,,,,,,,0,6,6,6,,,,,,,,,,,,,,,,,"(0.25, -0.04)",images/min3.png,7,0.0552479773469,0.336751041352,[-0.596875   -0.03888889],,,,,,,,,,,,,2018_Jun_24_1716,59.737986241,sequenceLearningTask,001,143,
min1.png,min2.png,min3.png,min4.png,allBlank.png,,,,,,,,,,,,0,6,6,6,,,,,,,,,,,,,,,,,"(-0.25, -0.04)",images/min2.png,7,0.0624299230985,0.380687843804,[ 0.1703125  -0.04722222],,,,,,,,,,,,,2018_Jun_24_1716,59.737986241,sequenceLearningTask,001,143,
min1.png,min2.png,min3.png,min4.png,allBlank.png,,,,,,,,,,,,0,6,6,6,,,,,,,,,,,,,,,,,"(0.75, -0.04)",images/min4.png,7,0.0517000813561,0.341433295805,[-0.115625   -0.14166667],,,,,,,,,,,,,2018_Jun_24_1716,59.737986241,sequenceLearningTask,001,143,
min1.png,min2.png,min3.png,min4.png,allBlank.png,,,,,,,,,,,,0,6,6,6,,,,,,,,,,,,,,,,,"(0.75, -0.04)",images/min4.png,7,0.0754481741751,0.216980423807,[ 0.7140625   0.04722222],,,,,,,,,,,,,2018_Jun_24_1716,59.737986241,sequenceLearningTask,001,143,
min1.png,min2.png,min3.png,min4.png,allBlank.png,,,,,,,,,,,,0,6,6,6,,,,,,,,,,,,,,,,,"(-0.25, -0.04)",images/min2.png,7,0.0549279774714,0.619985796948,[ 0.7609375   0.06666667],,,,,,,,,,,,,2018_Jun_24_1716,59.737986241,sequenceLearningTask,001,143,
min1.png,min2.png,min3.png,min4.png,allBlank.png,,,,,,,,,,,,0,6,6,6,,,,,,,,,,,,,,,,,"(0.25, -0.04)",images/min3.png,7,0.059273411578,0.382955740322,[-0.2171875  -0.03611111],,,,,,,,,,,,,2018_Jun_24_1716,59.737986241,sequenceLearningTask,001,143,
min1.png,min2.png,min3.png,min4.png,allBlank.png,,,,,,,,,,,,0,6,6,6,,,,,,,,,,,,,,,,,"(0.75, -0.04)",images/min4.png,7,0.0572799764923,0.214619809383,[ 0.2703125  -0.06111111],,,,,,,,,,,,,2018_Jun_24_1716,59.737986241,sequenceLearningTask,001,143,
min1.png,min2.png,min3.png,min4.png,allBlank.png,,,,,,,,,,,,0,7,7,7,,,,,,,,,,,,,,,,,"(-0.75, -0.04)",images/min1.png,8,0.0699298174586,0.344320268981,[ 0.728125    0.09166667],,,,,,,,,,,,,2018_Jun_24_1716,59.737986241,sequenceLearningTask,001,143,
min1.png,min2.png,min3.png,min4.png,allBlank.png,,,,,,,,,,,,0,7,7,7,,,,,,,,,,,,,,,,,"(0.25, -0.04)",images/min3.png,8,0.0579819249397,0.28402942195,[-0.703125    0.03611111],,,,,,,,,,,,,2018_Jun_24_1716,59.737986241,sequenceLearningTask,001,143,
min1.png,min2.png,min3.png,min4.png,allBlank.png,,,,,,,,,,,,0,7,7,7,,,,,,,,,,,,,,,,,"(-0.25, -0.04)",images/min2.png,8,0.0452779301268,0.198999713233,[ 0.20625     0.00833333],,,,,,,,,,,,,2018_Jun_24_1716,59.737986241,sequenceLearningTask,001,143,
min1.png,min2.png,min3.png,min4.png,allBlank.png,,,,,,,,,,,,0,7,7,7,,,,,,,,,,,,,,,,,"(0.75, -0.04)",images/min4.png,8,0.0552085927338,0.169939622603,[-0.2609375 -0.025    ],,,,,,,,,,,,,2018_Jun_24_1716,59.737986241,sequenceLearningTask,001,143,
min1.png,min2.png,min3.png,min4.png,allBlank.png,,,,,,,,,,,,0,7,7,7,,,,,,,,,,,,,,,,,"(0.75, -0.04)",images/min4.png,8,0.0375076768978,0.13955973761,[ 0.8171875  -0.06944444],,,,,,,,,,,,,2018_Jun_24_1716,59.737986241,sequenceLearningTask,001,143,
min1.png,min2.png,min3.png,min4.png,allBlank.png,,,,,,,,,,,,0,7,7,7,,,,,,,,,,,,,,,,,"(-0.25, -0.04)",images/min2.png,8,0.0638371020032,0.556817002333,[ 0.8109375 -0.05     ],,,,,,,,,,,,,2018_Jun_24_1716,59.737986241,sequenceLearningTask,001,143,
min1.png,min2.png,min3.png,min4.png,allBlank.png,,,,,,,,,,,,0,7,7,7,,,,,,,,,,,,,,,,,"(0.25, -0.04)",images/min3.png,8,0.0593706423242,0.0975359599688,[-0.2421875  -0.11666667],,,,,,,,,,,,,2018_Jun_24_1716,59.737986241,sequenceLearningTask,001,143,
min1.png,min2.png,min3.png,min4.png,allBlank.png,,,,,,,,,,,,0,7,7,7,,,,,,,,,,,,,,,,,"(0.75, -0.04)",images/min4.png,8,0.0588221297076,0.102834419347,[ 0.2375      0.00833333],,,,,,,,,,,,,2018_Jun_24_1716,59.737986241,sequenceLearningTask,001,143,
min1.png,min2.png,min3.png,min4.png,allBlank.png,,,,,,,,,,,,0,8,8,8,,,,,,,,,,,,,,,,,"(-0.75, -0.04)",images/min1.png,9,0.0609419237298,2.50568717715,[ 0.728125   -0.01111111],,,,,,,,,,,,,2018_Jun_24_1716,59.737986241,sequenceLearningTask,001,143,
min1.png,min2.png,min3.png,min4.png,allBlank.png,,,,,,,,,,,,0,8,8,8,,,,,,,,,,,,,,,,,"(0.25, -0.04)",images/min3.png,9,0.0548844902951,0.453352019133,[-0.60625    -0.10833333],,,,,,,,,,,,,2018_Jun_24_1716,59.737986241,sequenceLearningTask,001,143,
min1.png,min2.png,min3.png,min4.png,allBlank.png,,,,,,,,,,,,0,8,8,8,,,,,,,,,,,,,,,,,"(-0.25, -0.04)",images/min2.png,9,0.0589772065578,0.577280993923,[ 0.2578125  0.075    ],,,,,,,,,,,,,2018_Jun_24_1716,59.737986241,sequenceLearningTask,001,143,
min1.png,min2.png,min3.png,min4.png,allBlank.png,,,,,,,,,,,,0,8,8,8,,,,,,,,,,,,,,,,,"(0.75, -0.04)",images/min4.png,9,0.0573333098146,0.566927767417,[-0.2921875  -0.01944444],,,,,,,,,,,,,2018_Jun_24_1716,59.737986241,sequenceLearningTask,001,143,
min1.png,min2.png,min3.png,min4.png,allBlank.png,,,,,,,,,,,,0,8,8,8,,,,,,,,,,,,,,,,,"(0.75, -0.04)",images/min4.png,9,0.0553251054953,0.705075403064,[ 0.6640625   0.04166667],,,,,,,,,,,,,2018_Jun_24_1716,59.737986241,sequenceLearningTask,001,143,
min1.png,min2.png,min3.png,min4.png,allBlank.png,,,,,,,,,,,,0,8,8,8,,,,,,,,,,,,,,,,,"(-0.25, -0.04)",images/min2.png,9,0.0575934122608,0.563748691784,[ 0.7484375  -0.05277778],,,,,,,,,,,,,2018_Jun_24_1716,59.737986241,sequenceLearningTask,001,143,
min1.png,min2.png,min3.png,min4.png,allBlank.png,,,,,,,,,,,,0,8,8,8,,,,,,,,,,,,,,,,,"(0.25, -0.04)",images/min3.png,9,0.0576848993951,1.2202423712,[-0.2515625  -0.09722222],,,,,,,,,,,,,2018_Jun_24_1716,59.737986241,sequenceLearningTask,001,143,
min1.png,min2.png,min3.png,min4.png,allBlank.png,,,,,,,,,,,,0,8,8,8,,,,,,,,,,,,,,,,,"(0.75, -0.04)",images/min4.png,9,0.0637784353748,0.694975714898,[ 0.3265625   0.06666667],,,,,,,,,,,,,2018_Jun_24_1716,59.737986241,sequenceLearningTask,001,143,
min1.png,min2.png,min3.png,min4.png,allBlank.png,,,,,,,,,,,,0,9,9,9,,,,,,,,,,,,,,,,,"(-0.75, -0.04)",images/min1.png,10,0.0492582361912,1.0632155638,[ 0.734375   -0.09722222],0.544987263595,1,,,,,,,,,,,2018_Jun_24_1716,59.737986241,sequenceLearningTask,001,143,
min1.png,min2.png,min3.png,min4.png,allBlank.png,,,,,,,,,,,,0,9,9,9,,,,,,,,,,,,,,,,,"(0.25, -0.04)",images/min3.png,10,0.0544315674051,0.689056537813,[-0.7046875   0.04722222],,,,,,,,,,,,,2018_Jun_24_1716,59.737986241,sequenceLearningTask,001,143,
min1.png,min2.png,min3.png,min4.png,allBlank.png,,,,,,,,,,,,0,9,9,9,,,,,,,,,,,,,,,,,"(-0.25, -0.04)",images/min2.png,10,0.0569591561216,0.652772244997,[ 0.2265625   0.01388889],,,,,,,,,,,,,2018_Jun_24_1716,59.737986241,sequenceLearningTask,001,143,
min1.png,min2.png,min3.png,min4.png,allBlank.png,,,,,,,,,,,,0,9,9,9,,,,,,,,,,,,,,,,,"(0.75, -0.04)",images/min4.png,10,0.0615971029329,0.732945340336,[-0.2609375  -0.13611111],,,,,,,,,,,,,2018_Jun_24_1716,59.737986241,sequenceLearningTask,001,143,
min1.png,min2.png,min3.png,min4.png,allBlank.png,,,,,,,,,,,,0,9,9,9,,,,,,,,,,,,,,,,,"(0.75, -0.04)",images/min4.png,10,0.0602198727429,0.663303522742,[ 0.7296875  -0.03333333],,,,,,,,,,,,,2018_Jun_24_1716,59.737986241,sequenceLearningTask,001,143,
min1.png,min2.png,min3.png,min4.png,allBlank.png,,,,,,,,,,,,0,9,9,9,,,,,,,,,,,,,,,,,"(-0.25, -0.04)",images/min2.png,10,0.0529956705868,0.555523464398,[ 0.69375  0.075  ],,,,,,,,,,,,,2018_Jun_24_1716,59.737986241,sequenceLearningTask,001,143,
min1.png,min2.png,min3.png,min4.png,allBlank.png,,,,,,,,,,,,0,9,9,9,,,,,,,,,,,,,,,,,"(0.25, -0.04)",images/min3.png,10,0.0565148486057,0.455476325966,[-0.153125   -0.10833333],,,,,,,,,,,,,2018_Jun_24_1716,59.737986241,sequenceLearningTask,001,143,
min1.png,min2.png,min3.png,min4.png,allBlank.png,,,,,,,,,,,,0,9,9,9,,,,,,,,,,,,,,,,,"(0.75, -0.04)",images/min4.png,10,0.0526970040228,0.502913844975,[ 0.35625     0.06666667],,,,,,,,,,,,,2018_Jun_24_1716,59.737986241,sequenceLearningTask,001,143,
min1.png,min2.png,min3.png,min4.png,images/allBlank.png,"['num_7', 'num_4', 'num_1', 'num_0']",['num_0'],num_0,[4],'num_0',images/min4.png,"[(0.45, 0.79)]",,,,,0,-1,-1,0,0,0,0,3,,,,,,,,,,,,,"(-0.25, 0.04)",images/min2.png,1,0.0356065494998,0.572667252214,[ 0.7609375   0.05833333],,,,,,,,,['num_0'],,,,2018_Jun_24_1716,59.737986241,sequenceLearningTask,001,143,
min1.png,min2.png,min3.png,min4.png,images/allBlank.png,"['num_7', 'num_4', 'num_1', 'num_0']",['num_0'],num_0,[4],'num_0',images/min4.png,"[(0.45, 0.79)]",,,,,0,-1,-1,0,0,0,0,3,,,,,,,,,,,,,"(-0.75, 0.04)",images/min1.png,1,0.0546506442479,0.7532275884,[-0.140625   -0.08055556],,,,,,,,,['num_0'],,,,2018_Jun_24_1716,59.737986241,sequenceLearningTask,001,143,
min1.png,min2.png,min3.png,min4.png,images/allBlank.png,"['num_7', 'num_4', 'num_1', 'num_0']",['num_0'],num_0,[4],'num_0',images/min4.png,"[(0.45, 0.79)]",,,,,0,-1,-1,0,0,0,0,3,,,,,,,,,,,,,"(0.75, 0.04)",images/min4.png,1,0.0608282827307,0.614730414469,[-0.5671875  -0.05277778],,,,,,,,,['num_0'],,,,2018_Jun_24_1716,59.737986241,sequenceLearningTask,001,143,
min1.png,min2.png,min3.png,min4.png,images/allBlank.png,"['num_7', 'num_4', 'num_1', 'num_0']",['num_0'],num_0,[4],'num_0',images/min4.png,"[(0.45, 0.79)]",,,,,0,-1,-1,0,0,0,0,3,,,,,,,,,,,,,"(0.75, 0.04)",images/min4.png,1,0.0578608993383,0.417253162159,[ 0.684375    0.19166667],,,,,,,,,['num_0'],,,,2018_Jun_24_1716,59.737986241,sequenceLearningTask,001,143,
min1.png,min2.png,min3.png,min4.png,images/allBlank.png,"['num_7', 'num_4', 'num_1', 'num_0']",['num_4'],num_4,[2],'num_4',images/min2.png,"[(0.45, 0.79)]",,,,,0,-1,-1,0,0,1,1,1,,,,,,,,,,,,,"(-0.25, 0.04)",images/min2.png,2,0.0616697182995,0.470610268472,[ 0.7296875   0.06388889],,,,,,,,,['num_4'],,,,2018_Jun_24_1716,59.737986241,sequenceLearningTask,001,143,
min1.png,min2.png,min3.png,min4.png,images/allBlank.png,"['num_7', 'num_4', 'num_1', 'num_0']",['num_4'],num_4,[2],'num_4',images/min2.png,"[(0.45, 0.79)]",,,,,0,-1,-1,0,0,1,1,1,,,,,,,,,,,,,"(0.75, 0.04)",images/min4.png,2,0.0713345348195,0.555976387288,[-0.1421875  -0.17777778],,,,,,,,,['num_4'],,,,2018_Jun_24_1716,59.737986241,sequenceLearningTask,001,143,
min1.png,min2.png,min3.png,min4.png,images/allBlank.png,"['num_7', 'num_4', 'num_1', 'num_0']",['num_4'],num_4,[2],'num_4',images/min2.png,"[(0.45, 0.79)]",,,,,0,-1,-1,0,0,1,1,1,,,,,,,,,,,,,"(0.25, 0.04)",images/min3.png,2,0.0627921793784,0.545138237881,[ 0.65625  0.175  ],,,,,,,,,['num_4'],,,,2018_Jun_24_1716,59.737986241,sequenceLearningTask,001,143,
min1.png,min2.png,min3.png,min4.png,images/allBlank.png,"['num_7', 'num_4', 'num_1', 'num_0']",['num_4'],num_4,[2],'num_4',images/min2.png,"[(0.45, 0.79)]",,,,,0,-1,-1,0,0,1,1,1,,,,,,,,,,,,,"(0.25, 0.04)",images/min3.png,2,0.0563884896692,0.451859506924,[ 0.2390625   0.02777778],,,,,,,,,['num_4'],,,,2018_Jun_24_1716,59.737986241,sequenceLearningTask,001,143,
min1.png,min2.png,min3.png,min4.png,images/allBlank.png,"['num_7', 'num_4', 'num_1', 'num_0']",['num_7'],num_7,[1],'num_7',images/min1.png,"[(0.45, 0.79)]",,,,,0,-1,-1,0,0,2,2,0,,,,,,,,,,,,,"(0.25, 0.04)",images/min3.png,3,0.0681833566632,0.438960640429,[ 0.2734375  -0.00277778],,,,,,,,,['num_7'],,,,2018_Jun_24_1716,59.737986241,sequenceLearningTask,001,143,
min1.png,min2.png,min3.png,min4.png,images/allBlank.png,"['num_7', 'num_4', 'num_1', 'num_0']",['num_7'],num_7,[1],'num_7',images/min1.png,"[(0.45, 0.79)]",,,,,0,-1,-1,0,0,2,2,0,,,,,,,,,,,,,"(-0.75, 0.04)",images/min1.png,3,0.0695884842717,0.784603575565,[ 0.2859375  -0.01111111],,,,,,,,,['num_7'],,,,2018_Jun_24_1716,59.737986241,sequenceLearningTask,001,143,
min1.png,min2.png,min3.png,min4.png,images/allBlank.png,"['num_7', 'num_4', 'num_1', 'num_0']",['num_7'],num_7,[1],'num_7',images/min1.png,"[(0.45, 0.79)]",,,,,0,-1,-1,0,0,2,2,0,,,,,,,,,,,,,"(-0.25, 0.04)",images/min2.png,3,0.0631692048628,0.522265221633,[-0.621875   -0.31944444],,,,,,,,,['num_7'],,,,2018_Jun_24_1716,59.737986241,sequenceLearningTask,001,143,
min1.png,min2.png,min3.png,min4.png,images/allBlank.png,"['num_7', 'num_4', 'num_1', 'num_0']",['num_7'],num_7,[1],'num_7',images/min1.png,"[(0.45, 0.79)]",,,,,0,-1,-1,0,0,2,2,0,,,,,,,,,,,,,"(0.75, 0.04)",images/min4.png,3,0.0649177169835,0.508908919437,[-0.221875   -0.15277778],,,,,,,,,['num_7'],,,,2018_Jun_24_1716,59.737986241,sequenceLearningTask,001,143,
min1.png,min2.png,min3.png,min4.png,images/allBlank.png,"['num_7', 'num_4', 'num_1', 'num_0']",['num_1'],num_1,[3],'num_1',images/min3.png,"[(0.45, 0.79)]",,,,,0,-1,-1,0,0,3,3,2,,,,,,,,,,,,,"(0.75, 0.04)",images/min4.png,4,0.0610547441756,0.543919776857,[ 0.6953125   0.06944444],,,,,,,,,['num_1'],,,,2018_Jun_24_1716,59.737986241,sequenceLearningTask,001,143,
min1.png,min2.png,min3.png,min4.png,images/allBlank.png,"['num_7', 'num_4', 'num_1', 'num_0']",['num_1'],num_1,[3],'num_1',images/min3.png,"[(0.45, 0.79)]",,,,,0,-1,-1,0,0,3,3,2,,,,,,,,,,,,,"(-0.75, 0.04)",images/min1.png,4,0.0596586421889,0.767410967237,[ 0.6796875   0.12222222],,,,,,,,,['num_1'],,,,2018_Jun_24_1716,59.737986241,sequenceLearningTask,001,143,
min1.png,min2.png,min3.png,min4.png,images/allBlank.png,"['num_7', 'num_4', 'num_1', 'num_0']",['num_1'],num_1,[3],'num_1',images/min3.png,"[(0.45, 0.79)]",,,,,0,-1,-1,0,0,3,3,2,,,,,,,,,,,,,"(-0.75, 0.04)",images/min1.png,4,0.0599975138321,0.667294495448,[-0.6515625  -0.09722222],,,,,,,,,['num_1'],,,,2018_Jun_24_1716,59.737986241,sequenceLearningTask,001,143,
min1.png,min2.png,min3.png,min4.png,images/allBlank.png,"['num_7', 'num_4', 'num_1', 'num_0']",['num_1'],num_1,[3],'num_1',images/min3.png,"[(0.45, 0.79)]",,,,,0,-1,-1,0,0,3,3,2,,,,,,,,,,,,,"(0.25, 0.04)",images/min3.png,4,0.0629726921034,0.505698664347,[-0.6640625  -0.21388889],,,,,,,,,['num_1'],,,,2018_Jun_24_1716,59.737986241,sequenceLearningTask,001,143,
min1.png,min2.png,min3.png,min4.png,images/allBlank.png,"['num_7', 'num_4', 'num_1', 'num_0']",['num_7'],num_7,[1],'num_7',images/min1.png,"[(0.45, 0.79)]",,,,,0,-1,-1,0,1,0,4,0,,,,,,,,,,,,,"(-0.75, 0.04)",images/min1.png,5,0.0581386428094,0.693250997632,[ 0.1140625   0.13055556],,,,,,,,,['num_7'],,,,2018_Jun_24_1716,59.737986241,sequenceLearningTask,001,143,
min1.png,min2.png,min3.png,min4.png,images/allBlank.png,"['num_7', 'num_4', 'num_1', 'num_0']",['num_7'],num_7,[1],'num_7',images/min1.png,"[(0.45, 0.79)]",,,,,0,-1,-1,0,1,0,4,0,,,,,,,,,,,,,"(-0.25, 0.04)",images/min2.png,5,0.0726904317271,0.512610661506,[-0.5859375  -0.15833333],,,,,,,,,['num_7'],,,,2018_Jun_24_1716,59.737986241,sequenceLearningTask,001,143,
min1.png,min2.png,min3.png,min4.png,images/allBlank.png,"['num_7', 'num_4', 'num_1', 'num_0']",['num_7'],num_7,[1],'num_7',images/min1.png,"[(0.45, 0.79)]",,,,,0,-1,-1,0,1,0,4,0,,,,,,,,,,,,,"(0.25, 0.04)",images/min3.png,5,0.0653460244939,0.405781987385,[-0.1015625  -0.11944444],,,,,,,,,['num_7'],,,,2018_Jun_24_1716,59.737986241,sequenceLearningTask,001,143,
min1.png,min2.png,min3.png,min4.png,images/allBlank.png,"['num_7', 'num_4', 'num_1', 'num_0']",['num_7'],num_7,[1],'num_7',images/min1.png,"[(0.45, 0.79)]",,,,,0,-1,-1,0,1,0,4,0,,,,,,,,,,,,,"(-0.25, 0.04)",images/min2.png,5,0.0616922823829,0.495633027429,[ 0.296875   -0.00833333],,,,,,,,,['num_7'],,,,2018_Jun_24_1716,59.737986241,sequenceLearningTask,001,143,
min1.png,min2.png,min3.png,min4.png,images/allBlank.png,"['num_7', 'num_4', 'num_1', 'num_0']",['num_1'],num_1,[3],'num_1',images/min3.png,"[(0.45, 0.79)]",,,,,0,-1,-1,0,1,1,5,2,,,,,,,,,,,,,"(0.25, 0.04)",images/min3.png,6,0.067885920871,0.453840224072,[-0.2578125 -0.15     ],,,,,,,,,['num_1'],,,,2018_Jun_24_1716,59.737986241,sequenceLearningTask,001,143,
min1.png,min2.png,min3.png,min4.png,images/allBlank.png,"['num_7', 'num_4', 'num_1', 'num_0']",['num_1'],num_1,[3],'num_1',images/min3.png,"[(0.45, 0.79)]",,,,,0,-1,-1,0,1,1,5,2,,,,,,,,,,,,,"(-0.75, 0.04)",images/min1.png,6,0.063905204559,0.520765324822,[ 0.3421875  -0.03055556],,,,,,,,,['num_1'],,,,2018_Jun_24_1716,59.737986241,sequenceLearningTask,001,143,
min1.png,min2.png,min3.png,min4.png,images/allBlank.png,"['num_7', 'num_4', 'num_1', 'num_0']",['num_1'],num_1,[3],'num_1',images/min3.png,"[(0.45, 0.79)]",,,,,0,-1,-1,0,1,1,5,2,,,,,,,,,,,,,"(-0.75, 0.04)",images/min1.png,6,0.065797716612,0.558792796393,[-0.7484375  -0.04444444],,,,,,,,,['num_1'],,,,2018_Jun_24_1716,59.737986241,sequenceLearningTask,001,143,
min1.png,min2.png,min3.png,min4.png,images/allBlank.png,"['num_7', 'num_4', 'num_1', 'num_0']",['num_1'],num_1,[3],'num_1',images/min3.png,"[(0.45, 0.79)]",,,,,0,-1,-1,0,1,1,5,2,,,,,,,,,,,,,"(-0.25, 0.04)",images/min2.png,6,0.0636094098154,0.538893317367,[-0.759375   -0.08055556],,,,,,,,,['num_1'],,,,2018_Jun_24_1716,59.737986241,sequenceLearningTask,001,143,
min1.png,min2.png,min3.png,min4.png,images/allBlank.png,"['num_7', 'num_4', 'num_1', 'num_0']",['num_4'],num_4,[2],'num_4',images/min2.png,"[(0.45, 0.79)]",,,,,0,-1,-1,0,1,2,6,1,,,,,,,,,,,,,"(-0.25, 0.04)",images/min2.png,7,0.0626014102018,0.58652693886,[-0.2796875  -0.05277778],0.195695099217,1,,,,,,,['num_4'],,,,2018_Jun_24_1716,59.737986241,sequenceLearningTask,001,143,
min1.png,min2.png,min3.png,min4.png,images/allBlank.png,"['num_7', 'num_4', 'num_1', 'num_0']",['num_4'],num_4,[2],'num_4',images/min2.png,"[(0.45, 0.79)]",,,,,0,-1,-1,0,1,2,6,1,,,,,,,,,,,,,"(-0.75, 0.04)",images/min1.png,7,0.0638375122799,0.274195579841,[-0.2171875  -0.00277778],0.0577411045379,1,,,,,,,['num_4'],,,,2018_Jun_24_1716,59.737986241,sequenceLearningTask,001,143,
min1.png,min2.png,min3.png,min4.png,images/allBlank.png,"['num_7', 'num_4', 'num_1', 'num_0']",['num_4'],num_4,[2],'num_4',images/min2.png,"[(0.45, 0.79)]",,,,,0,-1,-1,0,1,2,6,1,,,,,,,,,,,,,"(0.25, 0.04)",images/min3.png,7,0.0252278870903,0.00150112758274,[-0.7015625  -0.05277778],,,1,,,,,,['num_4'],,,,2018_Jun_24_1716,59.737986241,sequenceLearningTask,001,143,
min1.png,min2.png,min3.png,min4.png,images/allBlank.png,"['num_7', 'num_4', 'num_1', 'num_0']",['num_4'],num_4,[2],'num_4',images/min2.png,"[(0.45, 0.79)]",,,,,0,-1,-1,0,1,2,6,1,,,,,,,,,,,,,"(-0.75, 0.04)",images/min1.png,7,0.0561837718124,0.0431437771767,[ 0.65       -0.00277778],,,1,,,,,,['num_4'],,,,2018_Jun_24_1716,59.737986241,sequenceLearningTask,001,143,
min1.png,min2.png,min3.png,min4.png,images/allBlank.png,"['num_7', 'num_4', 'num_1', 'num_0']",['num_0'],num_0,[4],'num_0',images/min4.png,"[(0.45, 0.79)]",,,,,0,-1,-1,0,1,3,7,3,,,,,,,,,,,,,"(-0.25, 0.04)",images/min2.png,8,0.0253407075361,0.518126146402,[-0.2171875  -0.02777778],0.364961081039,1,,,,,,,['num_0'],,,,2018_Jun_24_1716,59.737986241,sequenceLearningTask,001,143,
min1.png,min2.png,min3.png,min4.png,images/allBlank.png,"['num_7', 'num_4', 'num_1', 'num_0']",['num_0'],num_0,[4],'num_0',images/min4.png,"[(0.45, 0.79)]",,,,,0,-1,-1,0,1,3,7,3,,,,,,,,,,,,,"(-0.25, 0.04)",images/min2.png,8,0.060392590618,0.544934750797,[-0.1890625  -0.01111111],0.406825269019,1,,,,,,,['num_0'],,,,2018_Jun_24_1716,59.737986241,sequenceLearningTask,001,143,
min1.png,min2.png,min3.png,min4.png,images/allBlank.png,"['num_7', 'num_4', 'num_1', 'num_0']",['num_0'],num_0,[4],'num_0',images/min4.png,"[(0.45, 0.79)]",,,,,0,-1,-1,0,1,3,7,3,,,,,,,,,,,,,"(-0.75, 0.04)",images/min1.png,8,0.036027472408,0.555292079865,[-0.5296875  -0.19722222],0.372467949754,1,,,,,,,['num_0'],,,,2018_Jun_24_1716,59.737986241,sequenceLearningTask,001,143,
min1.png,min2.png,min3.png,min4.png,images/allBlank.png,"['num_7', 'num_4', 'num_1', 'num_0']",['num_0'],num_0,[4],'num_0',images/min4.png,"[(0.45, 0.79)]",,,,,0,-1,-1,0,1,3,7,3,,,,,,,,,,,,,"(0.25, 0.04)",images/min3.png,8,0.0350498317857,0.353681085689,[-0.3734375  -0.06944444],0.0992016003293,1,,,,,,,['num_0'],,,,2018_Jun_24_1716,59.737986241,sequenceLearningTask,001,143,
min1.png,min2.png,min3.png,min4.png,images/allBlank.png,"['num_7', 'num_4', 'num_1', 'num_0']",['num_0'],num_0,[4],'num_0',images/min4.png,"[(0.45, 0.79)]",,,,,0,-1,-1,0,2,0,8,3,,,,,,,,,,,,,"(0.25, 0.04)",images/min3.png,9,0.051310748182,0.351977701735,[ 0.2265625  -0.11666667],,,,,,,,,['num_0'],,,,2018_Jun_24_1716,59.737986241,sequenceLearningTask,001,143,
min1.png,min2.png,min3.png,min4.png,images/allBlank.png,"['num_7', 'num_4', 'num_1', 'num_0']",['num_0'],num_0,[4],'num_0',images/min4.png,"[(0.45, 0.79)]",,,,,0,-1,-1,0,2,0,8,3,,,,,,,,,,,,,"(-0.25, 0.04)",images/min2.png,9,0.0495753642754,0.102303137508,[-0.5515625   0.04166667],0.0548237723706,1,,,,,,,['num_0'],,,,2018_Jun_24_1716,59.737986241,sequenceLearningTask,001,143,
min1.png,min2.png,min3.png,min4.png,images/allBlank.png,"['num_7', 'num_4', 'num_1', 'num_0']",['num_0'],num_0,[4],'num_0',images/min4.png,"[(0.45, 0.79)]",,,,,0,-1,-1,0,2,0,8,3,,,,,,,,,,,,,"(0.75, 0.04)",images/min4.png,9,0.0309156796138,0.272431067715,[-0.509375   -0.01111111],0.00262687072973,1,,,,,,,['num_0'],,,,2018_Jun_24_1716,59.737986241,sequenceLearningTask,001,143,
min1.png,min2.png,min3.png,min4.png,images/allBlank.png,"['num_7', 'num_4', 'num_1', 'num_0']",['num_0'],num_0,[4],'num_0',images/min4.png,"[(0.45, 0.79)]",,,,,0,-1,-1,0,2,0,8,3,,,,,,,,,,,,,"(0.25, 0.04)",images/min3.png,9,0.02381701587,0.302278850344,[-0.1046875  -0.04444444],0.0622777180397,1,,,,,,,['num_0'],,,,2018_Jun_24_1716,59.737986241,sequenceLearningTask,001,143,
min1.png,min2.png,min3.png,min4.png,images/allBlank.png,"['num_7', 'num_4', 'num_1', 'num_0']",['num_4'],num_4,[2],'num_4',images/min2.png,"[(0.45, 0.79)]",,,,,0,-1,-1,0,2,1,9,1,,,,,,,,,,,,,"(0.75, 0.04)",images/min4.png,10,0.0481242879468,0.241853029002,[ 0.1828125  -0.11388889],0.0020492299227,1,,,,,,,['num_4'],,,,2018_Jun_24_1716,59.737986241,sequenceLearningTask,001,143,
min1.png,min2.png,min3.png,min4.png,images/allBlank.png,"['num_7', 'num_4', 'num_1', 'num_0']",['num_4'],num_4,[2],'num_4',images/min2.png,"[(0.45, 0.79)]",,,,,0,-1,-1,0,2,1,9,1,,,,,,,,,,,,,"(0.25, 0.04)",images/min3.png,10,0.022717529122,0.0,[ 0.3265625  -0.11388889],,,1,,,,,,['num_4'],,,,2018_Jun_24_1716,59.737986241,sequenceLearningTask,001,143,
min1.png,min2.png,min3.png,min4.png,images/allBlank.png,"['num_7', 'num_4', 'num_1', 'num_0']",['num_4'],num_4,[2],'num_4',images/min2.png,"[(0.45, 0.79)]",,,,,0,-1,-1,0,2,1,9,1,,,,,,,,,,,,,"(0.75, 0.04)",images/min4.png,10,0.0329608070024,0.0545189520053,[-0.1640625  -0.16111111],,,,,,,,,['num_4'],,,,2018_Jun_24_1716,59.737986241,sequenceLearningTask,001,143,
min1.png,min2.png,min3.png,min4.png,images/allBlank.png,"['num_7', 'num_4', 'num_1', 'num_0']",['num_4'],num_4,[2],'num_4',images/min2.png,"[(0.45, 0.79)]",,,,,0,-1,-1,0,2,1,9,1,,,,,,,,,,,,,"(0.25, 0.04)",images/min3.png,10,0.0252771178202,0.180392131122,[ 0.653125 -0.125   ],0.00259076815564,1,,,,,,,['num_4'],,,,2018_Jun_24_1716,59.737986241,sequenceLearningTask,001,143,
min1.png,min2.png,min3.png,min4.png,images/allBlank.png,"['num_7', 'num_4', 'num_1', 'num_0']",['num_1'],num_1,[3],'num_1',images/min3.png,"[(0.45, 0.79)]",,,,,0,-1,-1,0,2,2,10,2,,,,,,,,,,,,,"(-0.25, 0.04)",images/min2.png,11,0.0556007976993,1.18018946453,[-0.25625 -0.125  ],0.916027521627,1,,,,,,,['num_1'],,,,2018_Jun_24_1716,59.737986241,sequenceLearningTask,001,143,
min1.png,min2.png,min3.png,min4.png,images/allBlank.png,"['num_7', 'num_4', 'num_1', 'num_0']",['num_1'],num_1,[3],'num_1',images/min3.png,"[(0.45, 0.79)]",,,,,0,-1,-1,0,2,2,10,2,,,,,,,,,,,,,"(0.75, 0.04)",images/min4.png,11,0.0664496137761,0.65749429437,[-0.6625 -0.025 ],0.385839021212,1,,,,,,,['num_1'],,,,2018_Jun_24_1716,59.737986241,sequenceLearningTask,001,143,
min1.png,min2.png,min3.png,min4.png,images/allBlank.png,"['num_7', 'num_4', 'num_1', 'num_0']",['num_1'],num_1,[3],'num_1',images/min3.png,"[(0.45, 0.79)]",,,,,0,-1,-1,0,2,2,10,2,,,,,,,,,,,,,"(-0.25, 0.04)",images/min2.png,11,0.037358753907,0.538399779121,[ 0.7828125  -0.04166667],0.296686647518,1,,,,,,,['num_1'],,,,2018_Jun_24_1716,59.737986241,sequenceLearningTask,001,143,
min1.png,min2.png,min3.png,min4.png,images/allBlank.png,"['num_7', 'num_4', 'num_1', 'num_0']",['num_1'],num_1,[3],'num_1',images/min3.png,"[(0.45, 0.79)]",,,,,0,-1,-1,0,2,2,10,2,,,,,,,,,,,,,"(0.75, 0.04)",images/min4.png,11,0.0609562826867,0.447301560082,[-0.146875   -0.01666667],,,,,,,,,['num_1'],,,,2018_Jun_24_1716,59.737986241,sequenceLearningTask,001,143,
min1.png,min2.png,min3.png,min4.png,images/allBlank.png,"['num_7', 'num_4', 'num_1', 'num_0']",['num_7'],num_7,[1],'num_7',images/min1.png,"[(0.45, 0.79)]",,,,,0,-1,-1,0,2,3,11,0,,,,,,,,,,,,,"(0.25, 0.04)",images/min3.png,12,0.0633251022082,0.3757631279,[ 0.63125     0.04444444],,,,,,,,,['num_7'],,,,2018_Jun_24_1716,59.737986241,sequenceLearningTask,001,143,
min1.png,min2.png,min3.png,min4.png,images/allBlank.png,"['num_7', 'num_4', 'num_1', 'num_0']",['num_7'],num_7,[1],'num_7',images/min1.png,"[(0.45, 0.79)]",,,,,0,-1,-1,0,2,3,11,0,,,,,,,,,,,,,"(-0.75, 0.04)",images/min1.png,12,0.0640664352395,0.743423695007,[ 0.2953125   0.05277778],,,,,,,,,['num_7'],,,,2018_Jun_24_1716,59.737986241,sequenceLearningTask,001,143,
min1.png,min2.png,min3.png,min4.png,images/allBlank.png,"['num_7', 'num_4', 'num_1', 'num_0']",['num_7'],num_7,[1],'num_7',images/min1.png,"[(0.45, 0.79)]",,,,,0,-1,-1,0,2,3,11,0,,,,,,,,,,,,,"(-0.75, 0.04)",images/min1.png,12,0.0644963837985,0.672530185635,[-0.7171875  -0.00277778],,,,,,,,,['num_7'],,,,2018_Jun_24_1716,59.737986241,sequenceLearningTask,001,143,
min1.png,min2.png,min3.png,min4.png,images/allBlank.png,"['num_7', 'num_4', 'num_1', 'num_0']",['num_7'],num_7,[1],'num_7',images/min1.png,"[(0.45, 0.79)]",,,,,0,-1,-1,0,2,3,11,0,,,,,,,,,,,,,"(-0.25, 0.04)",images/min2.png,12,0.0604471546831,0.508167586406,[-0.6671875   0.01388889],,,,,,,,,['num_7'],,,,2018_Jun_24_1716,59.737986241,sequenceLearningTask,001,143,
min1.png,min2.png,min3.png,min4.png,images/allBlank.png,"['num_7', 'num_4', 'num_1', 'num_0']",['num_4'],num_4,[2],'num_4',images/min2.png,"[(0.45, 0.79)]",,,,,0,-1,-1,0,3,0,12,1,,,,,,,,,,,,,"(0.25, 0.04)",images/min3.png,13,0.0623880769708,0.340166424547,[-0.2203125  -0.09722222],,,,,,,,,['num_4'],,,,2018_Jun_24_1716,59.737986241,sequenceLearningTask,001,143,
min1.png,min2.png,min3.png,min4.png,images/allBlank.png,"['num_7', 'num_4', 'num_1', 'num_0']",['num_4'],num_4,[2],'num_4',images/min2.png,"[(0.45, 0.79)]",,,,,0,-1,-1,0,3,0,12,1,,,,,,,,,,,,,"(-0.25, 0.04)",images/min2.png,13,0.0553095157666,0.583028683875,[ 0.2328125   0.04166667],,,,,,,,,['num_4'],,,,2018_Jun_24_1716,59.737986241,sequenceLearningTask,001,143,
min1.png,min2.png,min3.png,min4.png,images/allBlank.png,"['num_7', 'num_4', 'num_1', 'num_0']",['num_4'],num_4,[2],'num_4',images/min2.png,"[(0.45, 0.79)]",,,,,0,-1,-1,0,3,0,12,1,,,,,,,,,,,,,"(-0.75, 0.04)",images/min1.png,13,0.0584742324136,0.650170399924,[-0.165625   -0.00277778],,,,,,,,,['num_4'],,,,2018_Jun_24_1716,59.737986241,sequenceLearningTask,001,143,
min1.png,min2.png,min3.png,min4.png,images/allBlank.png,"['num_7', 'num_4', 'num_1', 'num_0']",['num_4'],num_4,[2],'num_4',images/min2.png,"[(0.45, 0.79)]",,,,,0,-1,-1,0,3,0,12,1,,,,,,,,,,,,,"(0.25, 0.04)",images/min3.png,13,0.0656266397564,0.420826904272,[-0.684375   -0.10833333],,,,,,,,,['num_4'],,,,2018_Jun_24_1716,59.737986241,sequenceLearningTask,001,143,
min1.png,min2.png,min3.png,min4.png,images/allBlank.png,"['num_7', 'num_4', 'num_1', 'num_0']",['num_7'],num_7,[1],'num_7',images/min1.png,"[(0.45, 0.79)]",,,,,0,-1,-1,0,3,1,13,0,,,,,,,,,,,,,"(0.75, 0.04)",images/min4.png,14,0.0548721826053,0.428062183375,[ 0.225      -0.01388889],,,,,,,,,['num_7'],,,,2018_Jun_24_1716,59.737986241,sequenceLearningTask,001,143,
min1.png,min2.png,min3.png,min4.png,images/allBlank.png,"['num_7', 'num_4', 'num_1', 'num_0']",['num_7'],num_7,[1],'num_7',images/min1.png,"[(0.45, 0.79)]",,,,,0,-1,-1,0,3,1,13,0,,,,,,,,,,,,,"(-0.75, 0.04)",images/min1.png,14,0.0547339262557,0.614732055488,[ 0.65625     0.02777778],,,,,,,,,['num_7'],,,,2018_Jun_24_1716,59.737986241,sequenceLearningTask,001,143,
min1.png,min2.png,min3.png,min4.png,images/allBlank.png,"['num_7', 'num_4', 'num_1', 'num_0']",['num_7'],num_7,[1],'num_7',images/min1.png,"[(0.45, 0.79)]",,,,,0,-1,-1,0,3,1,13,0,,,,,,,,,,,,,"(-0.25, 0.04)",images/min2.png,14,0.0718005859235,0.463929655816,[-0.6296875  -0.15833333],,,,,,,,,['num_7'],,,,2018_Jun_24_1716,59.737986241,sequenceLearningTask,001,143,
min1.png,min2.png,min3.png,min4.png,images/allBlank.png,"['num_7', 'num_4', 'num_1', 'num_0']",['num_7'],num_7,[1],'num_7',images/min1.png,"[(0.45, 0.79)]",,,,,0,-1,-1,0,3,1,13,0,,,,,,,,,,,,,"(0.25, 0.04)",images/min3.png,14,0.0662900240859,0.369994104636,[-0.20625    -0.19722222],,,,,,,,,['num_7'],,,,2018_Jun_24_1716,59.737986241,sequenceLearningTask,001,143,
min1.png,min2.png,min3.png,min4.png,images/allBlank.png,"['num_7', 'num_4', 'num_1', 'num_0']",['num_1'],num_1,[3],'num_1',images/min3.png,"[(0.45, 0.79)]",,,,,0,-1,-1,0,3,2,14,2,,,,,,,,,,,,,"(0.25, 0.04)",images/min3.png,15,0.0573579251941,0.568488382152,[ 0.2734375 -0.025    ],,,,,,,,,['num_1'],,,,2018_Jun_24_1716,59.737986241,sequenceLearningTask,001,143,
min1.png,min2.png,min3.png,min4.png,images/allBlank.png,"['num_7', 'num_4', 'num_1', 'num_0']",['num_1'],num_1,[3],'num_1',images/min3.png,"[(0.45, 0.79)]",,,,,0,-1,-1,0,3,2,14,2,,,,,,,,,,,,,"(0.75, 0.04)",images/min4.png,15,0.0568483869429,0.550434645993,[ 0.2484375  -0.06111111],,,,,,,,,['num_1'],,,,2018_Jun_24_1716,59.737986241,sequenceLearningTask,001,143,
min1.png,min2.png,min3.png,min4.png,images/allBlank.png,"['num_7', 'num_4', 'num_1', 'num_0']",['num_1'],num_1,[3],'num_1',images/min3.png,"[(0.45, 0.79)]",,,,,0,-1,-1,0,3,2,14,2,,,,,,,,,,,,,"(0.75, 0.04)",images/min4.png,15,0.0556282848702,0.403733988205,[ 0.7734375   0.14722222],,,,,,,,,['num_1'],,,,2018_Jun_24_1716,59.737986241,sequenceLearningTask,001,143,
min1.png,min2.png,min3.png,min4.png,images/allBlank.png,"['num_7', 'num_4', 'num_1', 'num_0']",['num_1'],num_1,[3],'num_1',images/min3.png,"[(0.45, 0.79)]",,,,,0,-1,-1,0,3,2,14,2,,,,,,,,,,,,,"(-0.75, 0.04)",images/min1.png,15,0.0557111566304,0.682860027533,[ 0.7671875  0.025    ],,,,,,,,,['num_1'],,,,2018_Jun_24_1716,59.737986241,sequenceLearningTask,001,143,
min1.png,min2.png,min3.png,min4.png,images/allBlank.png,"['num_7', 'num_4', 'num_1', 'num_0']",['num_0'],num_0,[4],'num_0',images/min4.png,"[(0.45, 0.79)]",,,,,0,-1,-1,0,3,3,15,3,,,,,,,,,,,,,"(-0.25, 0.04)",images/min2.png,16,0.0618133079843,0.459942375397,[-0.690625   -0.13888889],,,,,,,,,['num_0'],,,,2018_Jun_24_1716,59.737986241,sequenceLearningTask,001,143,
min1.png,min2.png,min3.png,min4.png,images/allBlank.png,"['num_7', 'num_4', 'num_1', 'num_0']",['num_0'],num_0,[4],'num_0',images/min4.png,"[(0.45, 0.79)]",,,,,0,-1,-1,0,3,3,15,3,,,,,,,,,,,,,"(-0.25, 0.04)",images/min2.png,16,0.0648959733662,0.863199645857,[-0.3015625   0.07777778],0.373602718522,1,,,,,,,['num_0'],,,,2018_Jun_24_1716,59.737986241,sequenceLearningTask,001,143,
min1.png,min2.png,min3.png,min4.png,images/allBlank.png,"['num_7', 'num_4', 'num_1', 'num_0']",['num_0'],num_0,[4],'num_0',images/min4.png,"[(0.45, 0.79)]",,,,,0,-1,-1,0,3,3,15,3,,,,,,,,,,,,,"(-0.25, 0.04)",images/min2.png,16,0.0699511507992,0.571190740011,[-0.1765625  -0.09722222],,,,,,,,,['num_0'],,,,2018_Jun_24_1716,59.737986241,sequenceLearningTask,001,143,
min1.png,min2.png,min3.png,min4.png,images/allBlank.png,"['num_7', 'num_4', 'num_1', 'num_0']",['num_0'],num_0,[4],'num_0',images/min4.png,"[(0.45, 0.79)]",,,,,0,-1,-1,0,3,3,15,3,,,,,,,,,,,,,"(0.25, 0.04)",images/min3.png,16,0.0598970010469,0.433625257981,[-0.1453125  -0.09722222],,,,,,,,,['num_0'],,,,2018_Jun_24_1716,59.737986241,sequenceLearningTask,001,143,
min1.png,min2.png,min3.png,min4.png,images/allBlank.png,"['num_7', 'num_4', 'num_1', 'num_0']",['num_1'],num_1,[3],'num_1',images/min3.png,"[(0.45, 0.79)]",,,,,0,-1,-1,0,4,0,16,2,,,,,,,,,,,,,"(-0.75, 0.04)",images/min1.png,17,0.0618330002762,0.738951491687,[ 0.2703125   0.06666667],0.227528932272,1,,,,,,,['num_1'],,,,2018_Jun_24_1716,59.737986241,sequenceLearningTask,001,143,
min1.png,min2.png,min3.png,min4.png,images/allBlank.png,"['num_7', 'num_4', 'num_1', 'num_0']",['num_1'],num_1,[3],'num_1',images/min3.png,"[(0.45, 0.79)]",,,,,0,-1,-1,0,4,0,16,2,,,,,,,,,,,,,"(-0.75, 0.04)",images/min1.png,17,0.0569365920092,0.517902556749,[-0.6171875  -0.09722222],,,,,,,,,['num_1'],,,,2018_Jun_24_1716,59.737986241,sequenceLearningTask,001,143,
min1.png,min2.png,min3.png,min4.png,images/allBlank.png,"['num_7', 'num_4', 'num_1', 'num_0']",['num_1'],num_1,[3],'num_1',images/min3.png,"[(0.45, 0.79)]",,,,,0,-1,-1,0,4,0,16,2,,,,,,,,,,,,,"(-0.25, 0.04)",images/min2.png,17,0.0600500266592,0.627421691315,[-0.6265625  -0.24444444],,,,,,,,,['num_1'],,,,2018_Jun_24_1716,59.737986241,sequenceLearningTask,001,143,
min1.png,min2.png,min3.png,min4.png,images/allBlank.png,"['num_7', 'num_4', 'num_1', 'num_0']",['num_1'],num_1,[3],'num_1',images/min3.png,"[(0.45, 0.79)]",,,,,0,-1,-1,0,4,0,16,2,,,,,,,,,,,,,"(-0.75, 0.04)",images/min1.png,17,0.0672803826455,1.2113307851,[-0.2484375  -0.18611111],0.274449528428,1,,,,,,,['num_1'],,,,2018_Jun_24_1716,59.737986241,sequenceLearningTask,001,143,
min1.png,min2.png,min3.png,min4.png,images/allBlank.png,"['num_7', 'num_4', 'num_1', 'num_0']",['num_4'],num_4,[2],'num_4',images/min2.png,"[(0.45, 0.79)]",,,,,0,-1,-1,0,4,1,17,1,,,,,,,,,,,,,"(-0.75, 0.04)",images/min1.png,18,0.0629316664999,0.678421465273,[-0.6234375  -0.12777778],,,,,,,,,['num_4'],,,,2018_Jun_24_1716,59.737986241,sequenceLearningTask,001,143,
min1.png,min2.png,min3.png,min4.png,images/allBlank.png,"['num_7', 'num_4', 'num_1', 'num_0']",['num_4'],num_4,[2],'num_4',images/min2.png,"[(0.45, 0.79)]",,,,,0,-1,-1,0,4,1,17,1,,,,,,,,,,,,,"(0.75, 0.04)",images/min4.png,18,0.0600939240539,0.667910700344,[-0.6171875  -0.11944444],,,,,,,,,['num_4'],,,,2018_Jun_24_1716,59.737986241,sequenceLearningTask,001,143,
min1.png,min2.png,min3.png,min4.png,images/allBlank.png,"['num_7', 'num_4', 'num_1', 'num_0']",['num_4'],num_4,[2],'num_4',images/min2.png,"[(0.45, 0.79)]",,,,,0,-1,-1,0,4,1,17,1,,,,,,,,,,,,,"(-0.75, 0.04)",images/min1.png,18,0.0819552484318,0.623385180166,[ 0.6640625   0.04722222],,,,,,,,,['num_4'],,,,2018_Jun_24_1716,59.737986241,sequenceLearningTask,001,143,
min1.png,min2.png,min3.png,min4.png,images/allBlank.png,"['num_7', 'num_4', 'num_1', 'num_0']",['num_4'],num_4,[2],'num_4',images/min2.png,"[(0.45, 0.79)]",,,,,0,-1,-1,0,4,1,17,1,,,,,,,,,,,,,"(-0.75, 0.04)",images/min1.png,18,0.0658026396704,0.60269965019,[-0.6921875 -0.025    ],,,,,,,,,['num_4'],,,,2018_Jun_24_1716,59.737986241,sequenceLearningTask,001,143,
min1.png,min2.png,min3.png,min4.png,images/allBlank.png,"['num_7', 'num_4', 'num_1', 'num_0']",['num_7'],num_7,[1],'num_7',images/min1.png,"[(0.45, 0.79)]",,,,,0,-1,-1,0,4,2,18,0,,,,,,,,,,,,,"(0.75, 0.04)",images/min4.png,19,0.0572791559971,0.579301505932,[-0.5890625  -0.11388889],,,,,,,,,['num_7'],,,,2018_Jun_24_1716,59.737986241,sequenceLearningTask,001,143,
min1.png,min2.png,min3.png,min4.png,images/allBlank.png,"['num_7', 'num_4', 'num_1', 'num_0']",['num_7'],num_7,[1],'num_7',images/min1.png,"[(0.45, 0.79)]",,,,,0,-1,-1,0,4,2,18,0,,,,,,,,,,,,,"(-0.75, 0.04)",images/min1.png,19,0.0658022294228,0.57499996922,[ 0.7828125   0.10833333],,,,,,,,,['num_7'],,,,2018_Jun_24_1716,59.737986241,sequenceLearningTask,001,143,
min1.png,min2.png,min3.png,min4.png,images/allBlank.png,"['num_7', 'num_4', 'num_1', 'num_0']",['num_7'],num_7,[1],'num_7',images/min1.png,"[(0.45, 0.79)]",,,,,0,-1,-1,0,4,2,18,0,,,,,,,,,,,,,"(-0.25, 0.04)",images/min2.png,19,0.0731954571675,0.70205017351,[-0.6484375 -0.025    ],,,,,,,,,['num_7'],,,,2018_Jun_24_1716,59.737986241,sequenceLearningTask,001,143,
min1.png,min2.png,min3.png,min4.png,images/allBlank.png,"['num_7', 'num_4', 'num_1', 'num_0']",['num_7'],num_7,[1],'num_7',images/min1.png,"[(0.45, 0.79)]",,,,,0,-1,-1,0,4,2,18,0,,,,,,,,,,,,,"(-0.75, 0.04)",images/min1.png,19,0.0547716698493,0.670529776195,[-0.1953125  -0.14166667],,,,,,,,,['num_7'],,,,2018_Jun_24_1716,59.737986241,sequenceLearningTask,001,143,
min1.png,min2.png,min3.png,min4.png,images/allBlank.png,"['num_7', 'num_4', 'num_1', 'num_0']",['num_0'],num_0,[4],'num_0',images/min4.png,"[(0.45, 0.79)]",,,,,0,-1,-1,0,4,3,19,3,,,,,,,,,,,,,"(-0.25, 0.04)",images/min2.png,20,0.0554444900772,0.449227302888,[-0.6890625 -0.3      ],,,,,,,,,['num_0'],,,,2018_Jun_24_1716,59.737986241,sequenceLearningTask,001,143,
min1.png,min2.png,min3.png,min4.png,images/allBlank.png,"['num_7', 'num_4', 'num_1', 'num_0']",['num_0'],num_0,[4],'num_0',images/min4.png,"[(0.45, 0.79)]",,,,,0,-1,-1,0,4,3,19,3,,,,,,,,,,,,,"(-0.25, 0.04)",images/min2.png,20,0.0844610935601,0.556819463876,[-0.1734375  0.       ],,,,,,,,,['num_0'],,,,2018_Jun_24_1716,59.737986241,sequenceLearningTask,001,143,
min1.png,min2.png,min3.png,min4.png,images/allBlank.png,"['num_7', 'num_4', 'num_1', 'num_0']",['num_0'],num_0,[4],'num_0',images/min4.png,"[(0.45, 0.79)]",,,,,0,-1,-1,0,4,3,19,3,,,,,,,,,,,,,"(-0.25, 0.04)",images/min2.png,20,0.070221509668,0.42189890382,[-0.1953125  -0.05277778],,,,,,,,,['num_0'],,,,2018_Jun_24_1716,59.737986241,sequenceLearningTask,001,143,
min1.png,min2.png,min3.png,min4.png,images/allBlank.png,"['num_7', 'num_4', 'num_1', 'num_0']",['num_0'],num_0,[4],'num_0',images/min4.png,"[(0.45, 0.79)]",,,,,0,-1,-1,0,4,3,19,3,,,,,,,,,,,,,"(-0.75, 0.04)",images/min1.png,20,0.0607273596979,0.696883816679,[-0.209375   -0.01388889],,,,,,,,,['num_0'],,,,2018_Jun_24_1716,59.737986241,sequenceLearningTask,001,143,
min1.png,min2.png,min3.png,min4.png,allBlank.png,"['num_7', 'num_4', 'num_1', 'num_0']",['num_0'],num_0,[4],'num_0',images/min4.png,"[(0.45, 0.79)]",,,,,0,0,0,0,4,3,19,3,,,,,,,,,,,,,"(-0.75, -0.04)",images/min1.png,1,0.0612627441005,0.616995849443,[-0.5953125  -0.05277778],,,,,,,,,['num_0'],,,,2018_Jun_24_1716,59.737986241,sequenceLearningTask,001,143,
min1.png,min2.png,min3.png,min4.png,allBlank.png,"['num_7', 'num_4', 'num_1', 'num_0']",['num_0'],num_0,[4],'num_0',images/min4.png,"[(0.45, 0.79)]",,,,,0,0,0,0,4,3,19,3,,,,,,,,,,,,,"(0.25, -0.04)",images/min3.png,1,0.0601210009772,0.447527611279,[-0.8109375  -0.15833333],,,,,,,,,['num_0'],,,,2018_Jun_24_1716,59.737986241,sequenceLearningTask,001,143,
min1.png,min2.png,min3.png,min4.png,allBlank.png,"['num_7', 'num_4', 'num_1', 'num_0']",['num_0'],num_0,[4],'num_0',images/min4.png,"[(0.45, 0.79)]",,,,,0,0,0,0,4,3,19,3,,,,,,,,,,,,,"(-0.25, -0.04)",images/min2.png,1,0.0587987450999,0.780318859353,[ 0.3421875   0.00277778],,,,,,,,,['num_0'],,,,2018_Jun_24_1716,59.737986241,sequenceLearningTask,001,143,
min1.png,min2.png,min3.png,min4.png,allBlank.png,"['num_7', 'num_4', 'num_1', 'num_0']",['num_0'],num_0,[4],'num_0',images/min4.png,"[(0.45, 0.79)]",,,,,0,0,0,0,4,3,19,3,,,,,,,,,,,,,"(0.75, -0.04)",images/min4.png,1,0.0643171018164,0.47671652236,[-0.1890625  -0.10555556],,,,,,,,,['num_0'],,,,2018_Jun_24_1716,59.737986241,sequenceLearningTask,001,143,
min1.png,min2.png,min3.png,min4.png,allBlank.png,"['num_7', 'num_4', 'num_1', 'num_0']",['num_0'],num_0,[4],'num_0',images/min4.png,"[(0.45, 0.79)]",,,,,0,0,0,0,4,3,19,3,,,,,,,,,,,,,"(0.75, -0.04)",images/min4.png,1,0.0534641831764,0.438548743172,[ 0.7828125   0.16388889],,,,,,,,,['num_0'],,,,2018_Jun_24_1716,59.737986241,sequenceLearningTask,001,143,
min1.png,min2.png,min3.png,min4.png,allBlank.png,"['num_7', 'num_4', 'num_1', 'num_0']",['num_0'],num_0,[4],'num_0',images/min4.png,"[(0.45, 0.79)]",,,,,0,0,0,0,4,3,19,3,,,,,,,,,,,,,"(-0.25, -0.04)",images/min2.png,1,0.0555548490083,0.532930242916,[ 0.690625    0.01388889],,,,,,,,,['num_0'],,,,2018_Jun_24_1716,59.737986241,sequenceLearningTask,001,143,
min1.png,min2.png,min3.png,min4.png,allBlank.png,"['num_7', 'num_4', 'num_1', 'num_0']",['num_0'],num_0,[4],'num_0',images/min4.png,"[(0.45, 0.79)]",,,,,0,0,0,0,4,3,19,3,,,,,,,,,,,,,"(0.25, -0.04)",images/min3.png,1,0.0563737204648,0.402509373351,[-0.165625 -0.025   ],,,,,,,,,['num_0'],,,,2018_Jun_24_1716,59.737986241,sequenceLearningTask,001,143,
min1.png,min2.png,min3.png,min4.png,allBlank.png,"['num_7', 'num_4', 'num_1', 'num_0']",['num_0'],num_0,[4],'num_0',images/min4.png,"[(0.45, 0.79)]",,,,,0,0,0,0,4,3,19,3,,,,,,,,,,,,,"(0.75, -0.04)",images/min4.png,1,0.0569833612244,0.414858496457,[ 0.2546875   0.06111111],,,,,,,,,['num_0'],,,,2018_Jun_24_1716,59.737986241,sequenceLearningTask,001,143,
min1.png,min2.png,min3.png,min4.png,allBlank.png,"['num_7', 'num_4', 'num_1', 'num_0']",['num_0'],num_0,[4],'num_0',images/min4.png,"[(0.45, 0.79)]",,,,,0,1,1,1,4,3,19,3,,,,,,,,,,,,,"(-0.75, -0.04)",images/min1.png,2,0.0552832593676,0.635954610887,[ 0.6578125   0.10833333],,,,,,,,,['num_0'],,,,2018_Jun_24_1716,59.737986241,sequenceLearningTask,001,143,
min1.png,min2.png,min3.png,min4.png,allBlank.png,"['num_7', 'num_4', 'num_1', 'num_0']",['num_0'],num_0,[4],'num_0',images/min4.png,"[(0.45, 0.79)]",,,,,0,1,1,1,4,3,19,3,,,,,,,,,,,,,"(0.25, -0.04)",images/min3.png,2,0.0584176170814,0.502483075892,[-0.6640625  -0.19444444],,,,,,,,,['num_0'],,,,2018_Jun_24_1716,59.737986241,sequenceLearningTask,001,143,
min1.png,min2.png,min3.png,min4.png,allBlank.png,"['num_7', 'num_4', 'num_1', 'num_0']",['num_0'],num_0,[4],'num_0',images/min4.png,"[(0.45, 0.79)]",,,,,0,1,1,1,4,3,19,3,,,,,,,,,,,,,"(-0.25, -0.04)",images/min2.png,2,0.0558998745109,0.43068372077,[ 0.2953125   0.00833333],,,,,,,,,['num_0'],,,,2018_Jun_24_1716,59.737986241,sequenceLearningTask,001,143,
min1.png,min2.png,min3.png,min4.png,allBlank.png,"['num_7', 'num_4', 'num_1', 'num_0']",['num_0'],num_0,[4],'num_0',images/min4.png,"[(0.45, 0.79)]",,,,,0,1,1,1,4,3,19,3,,,,,,,,,,,,,"(0.75, -0.04)",images/min4.png,2,0.0574157713272,0.444594689412,[-0.1015625   0.04166667],,,,,,,,,['num_0'],,,,2018_Jun_24_1716,59.737986241,sequenceLearningTask,001,143,
min1.png,min2.png,min3.png,min4.png,allBlank.png,"['num_7', 'num_4', 'num_1', 'num_0']",['num_0'],num_0,[4],'num_0',images/min4.png,"[(0.45, 0.79)]",,,,,0,1,1,1,4,3,19,3,,,,,,,,,,,,,"(0.75, -0.04)",images/min4.png,2,0.0543642853736,0.622059642221,[ 0.7734375  -0.05555556],,,,,,,,,['num_0'],,,,2018_Jun_24_1716,59.737986241,sequenceLearningTask,001,143,
min1.png,min2.png,min3.png,min4.png,allBlank.png,"['num_7', 'num_4', 'num_1', 'num_0']",['num_0'],num_0,[4],'num_0',images/min4.png,"[(0.45, 0.79)]",,,,,0,1,1,1,4,3,19,3,,,,,,,,,,,,,"(-0.25, -0.04)",images/min2.png,2,0.0550970030308,0.47123713998,[ 0.775       0.06944444],,,,,,,,,['num_0'],,,,2018_Jun_24_1716,59.737986241,sequenceLearningTask,001,143,
min1.png,min2.png,min3.png,min4.png,allBlank.png,"['num_7', 'num_4', 'num_1', 'num_0']",['num_0'],num_0,[4],'num_0',images/min4.png,"[(0.45, 0.79)]",,,,,0,1,1,1,4,3,19,3,,,,,,,,,,,,,"(0.25, -0.04)",images/min3.png,2,0.0577997711662,0.500738666364,[-0.1890625 -0.075    ],,,,,,,,,['num_0'],,,,2018_Jun_24_1716,59.737986241,sequenceLearningTask,001,143,
min1.png,min2.png,min3.png,min4.png,allBlank.png,"['num_7', 'num_4', 'num_1', 'num_0']",['num_0'],num_0,[4],'num_0',images/min4.png,"[(0.45, 0.79)]",,,,,0,1,1,1,4,3,19,3,,,,,,,,,,,,,"(0.75, -0.04)",images/min4.png,2,0.0625452050881,0.543347469415,[ 0.26875     0.12777778],,,,,,,,,['num_0'],,,,2018_Jun_24_1716,59.737986241,sequenceLearningTask,001,143,
min1.png,min2.png,min3.png,min4.png,allBlank.png,"['num_7', 'num_4', 'num_1', 'num_0']",['num_0'],num_0,[4],'num_0',images/min4.png,"[(0.45, 0.79)]",,,,,0,2,2,2,4,3,19,3,,,,,,,,,,,,,"(-0.75, -0.04)",images/min1.png,3,0.0609205903893,0.511076713388,[ 0.6984375   0.00833333],,,,,,,,,['num_0'],,,,2018_Jun_24_1716,59.737986241,sequenceLearningTask,001,143,
min1.png,min2.png,min3.png,min4.png,allBlank.png,"['num_7', 'num_4', 'num_1', 'num_0']",['num_0'],num_0,[4],'num_0',images/min4.png,"[(0.45, 0.79)]",,,,,0,2,2,2,4,3,19,3,,,,,,,,,,,,,"(0.25, -0.04)",images/min3.png,3,0.053360798629,0.549917312863,[-0.7328125  -0.03888889],,,,,,,,,['num_0'],,,,2018_Jun_24_1716,59.737986241,sequenceLearningTask,001,143,
min1.png,min2.png,min3.png,min4.png,allBlank.png,"['num_7', 'num_4', 'num_1', 'num_0']",['num_0'],num_0,[4],'num_0',images/min4.png,"[(0.45, 0.79)]",,,,,0,2,2,2,4,3,19,3,,,,,,,,,,,,,"(-0.25, -0.04)",images/min2.png,3,0.055432592635,0.413475932932,[ 0.2953125  -0.13611111],,,,,,,,,['num_0'],,,,2018_Jun_24_1716,59.737986241,sequenceLearningTask,001,143,
min1.png,min2.png,min3.png,min4.png,allBlank.png,"['num_7', 'num_4', 'num_1', 'num_0']",['num_0'],num_0,[4],'num_0',images/min4.png,"[(0.45, 0.79)]",,,,,0,2,2,2,4,3,19,3,,,,,,,,,,,,,"(0.75, -0.04)",images/min4.png,3,0.0630572048831,0.289119471126,[-0.215625  0.025   ],,,,,,,,,['num_0'],,,,2018_Jun_24_1716,59.737986241,sequenceLearningTask,001,143,
min1.png,min2.png,min3.png,min4.png,allBlank.png,"['num_7', 'num_4', 'num_1', 'num_0']",['num_0'],num_0,[4],'num_0',images/min4.png,"[(0.45, 0.79)]",,,,,0,2,2,2,4,3,19,3,,,,,,,,,,,,,"(0.75, -0.04)",images/min4.png,3,0.061832179781,0.462412938476,[ 0.7359375  -0.00555556],,,,,,,,,['num_0'],,,,2018_Jun_24_1716,59.737986241,sequenceLearningTask,001,143,
min1.png,min2.png,min3.png,min4.png,allBlank.png,"['num_7', 'num_4', 'num_1', 'num_0']",['num_0'],num_0,[4],'num_0',images/min4.png,"[(0.45, 0.79)]",,,,,0,2,2,2,4,3,19,3,,,,,,,,,,,,,"(-0.25, -0.04)",images/min2.png,3,0.0611786415684,0.445180535316,[ 0.7765625   0.01944444],,,,,,,,,['num_0'],,,,2018_Jun_24_1716,59.737986241,sequenceLearningTask,001,143,
min1.png,min2.png,min3.png,min4.png,allBlank.png,"['num_7', 'num_4', 'num_1', 'num_0']",['num_0'],num_0,[4],'num_0',images/min4.png,"[(0.45, 0.79)]",,,,,0,2,2,2,4,3,19,3,,,,,,,,,,,,,"(0.25, -0.04)",images/min3.png,3,0.0622834616224,0.460396939336,[-0.1375      0.00833333],,,,,,,,,['num_0'],,,,2018_Jun_24_1716,59.737986241,sequenceLearningTask,001,143,
min1.png,min2.png,min3.png,min4.png,allBlank.png,"['num_7', 'num_4', 'num_1', 'num_0']",['num_0'],num_0,[4],'num_0',images/min4.png,"[(0.45, 0.79)]",,,,,0,2,2,2,4,3,19,3,,,,,,,,,,,,,"(0.75, -0.04)",images/min4.png,3,0.0607478725142,0.373376667354,[ 0.275       0.01388889],,,,,,,,,['num_0'],,,,2018_Jun_24_1716,59.737986241,sequenceLearningTask,001,143,
min1.png,min2.png,min3.png,min4.png,allBlank.png,"['num_7', 'num_4', 'num_1', 'num_0']",['num_0'],num_0,[4],'num_0',images/min4.png,"[(0.45, 0.79)]",,,,,0,3,3,3,4,3,19,3,,,,,,,,,,,,,"(-0.75, -0.04)",images/min1.png,4,0.071227868204,0.210434785462,[ 0.8046875  -0.04444444],,,,,,,,,['num_0'],,,,2018_Jun_24_1716,59.737986241,sequenceLearningTask,001,143,
min1.png,min2.png,min3.png,min4.png,allBlank.png,"['num_7', 'num_4', 'num_1', 'num_0']",['num_0'],num_0,[4],'num_0',images/min4.png,"[(0.45, 0.79)]",,,,,0,3,3,3,4,3,19,3,,,,,,,,,,,,,"(0.25, -0.04)",images/min3.png,4,0.0570358740515,0.837278425723,[-0.71875    -0.18333333],0.40308988592,1,,,,,,,['num_0'],,,,2018_Jun_24_1716,59.737986241,sequenceLearningTask,001,143,
min1.png,min2.png,min3.png,min4.png,allBlank.png,"['num_7', 'num_4', 'num_1', 'num_0']",['num_0'],num_0,[4],'num_0',images/min4.png,"[(0.45, 0.79)]",,,,,0,3,3,3,4,3,19,3,,,,,,,,,,,,,"(-0.25, -0.04)",images/min2.png,4,0.0517612095282,0.17185469871,[ 0.4390625  -0.04166667],,,,,,,,,['num_0'],,,,2018_Jun_24_1716,59.737986241,sequenceLearningTask,001,143,
min1.png,min2.png,min3.png,min4.png,allBlank.png,"['num_7', 'num_4', 'num_1', 'num_0']",['num_0'],num_0,[4],'num_0',images/min4.png,"[(0.45, 0.79)]",,,,,0,3,3,3,4,3,19,3,,,,,,,,,,,,,"(0.75, -0.04)",images/min4.png,4,0.0595958729682,0.247297539579,[-0.1046875  -0.01388889],,,,,,,,,['num_0'],,,,2018_Jun_24_1716,59.737986241,sequenceLearningTask,001,143,
min1.png,min2.png,min3.png,min4.png,allBlank.png,"['num_7', 'num_4', 'num_1', 'num_0']",['num_0'],num_0,[4],'num_0',images/min4.png,"[(0.45, 0.79)]",,,,,0,3,3,3,4,3,19,3,,,,,,,,,,,,,"(0.75, -0.04)",images/min4.png,4,0.0567339254194,0.149752553931,[ 0.75625    -0.00277778],,,,,,,,,['num_0'],,,,2018_Jun_24_1716,59.737986241,sequenceLearningTask,001,143,
min1.png,min2.png,min3.png,min4.png,allBlank.png,"['num_7', 'num_4', 'num_1', 'num_0']",['num_0'],num_0,[4],'num_0',images/min4.png,"[(0.45, 0.79)]",,,,,0,3,3,3,4,3,19,3,,,,,,,,,,,,,"(-0.25, -0.04)",images/min2.png,4,0.0657566909504,0.705175095296,[ 0.659375   -0.04166667],0.344325602317,1,,,,,,,['num_0'],,,,2018_Jun_24_1716,59.737986241,sequenceLearningTask,001,143,
min1.png,min2.png,min3.png,min4.png,allBlank.png,"['num_7', 'num_4', 'num_1', 'num_0']",['num_0'],num_0,[4],'num_0',images/min4.png,"[(0.45, 0.79)]",,,,,0,3,3,3,4,3,19,3,,,,,,,,,,,,,"(0.25, -0.04)",images/min3.png,4,0.0612053082441,0.245888309379,[-0.3890625  -0.16944444],,,,,,,,,['num_0'],,,,2018_Jun_24_1716,59.737986241,sequenceLearningTask,001,143,
min1.png,min2.png,min3.png,min4.png,allBlank.png,"['num_7', 'num_4', 'num_1', 'num_0']",['num_0'],num_0,[4],'num_0',images/min4.png,"[(0.45, 0.79)]",,,,,0,3,3,3,4,3,19,3,,,,,,,,,,,,,"(0.75, -0.04)",images/min4.png,4,0.0247126052564,0.260949636518,[ 0.2609375  -0.03333333],,,,,,,,,['num_0'],,,,2018_Jun_24_1716,59.737986241,sequenceLearningTask,001,143,
min1.png,min2.png,min3.png,min4.png,allBlank.png,"['num_7', 'num_4', 'num_1', 'num_0']",['num_0'],num_0,[4],'num_0',images/min4.png,"[(0.45, 0.79)]",,,,,0,4,4,4,4,3,19,3,,,,,,,,,,,,,"(-0.75, -0.04)",images/min1.png,5,0.0628729998716,0.208893042523,[ 0.7015625  -0.00833333],,,,,,,,,['num_0'],,,,2018_Jun_24_1716,59.737986241,sequenceLearningTask,001,143,
min1.png,min2.png,min3.png,min4.png,allBlank.png,"['num_7', 'num_4', 'num_1', 'num_0']",['num_0'],num_0,[4],'num_0',images/min4.png,"[(0.45, 0.79)]",,,,,0,4,4,4,4,3,19,3,,,,,,,,,,,,,"(0.25, -0.04)",images/min3.png,5,0.0539220291539,0.599242420809,[-0.7625     -0.24444444],0.181460848631,1,,,,,,,['num_0'],,,,2018_Jun_24_1716,59.737986241,sequenceLearningTask,001,143,
min1.png,min2.png,min3.png,min4.png,allBlank.png,"['num_7', 'num_4', 'num_1', 'num_0']",['num_0'],num_0,[4],'num_0',images/min4.png,"[(0.45, 0.79)]",,,,,0,4,4,4,4,3,19,3,,,,,,,,,,,,,"(-0.25, -0.04)",images/min2.png,5,0.0603638726752,0.0583207965828,[ 0.2265625  -0.08333333],,,1,,,,,,['num_0'],,,,2018_Jun_24_1716,59.737986241,sequenceLearningTask,001,143,
min1.png,min2.png,min3.png,min4.png,allBlank.png,"['num_7', 'num_4', 'num_1', 'num_0']",['num_0'],num_0,[4],'num_0',images/min4.png,"[(0.45, 0.79)]",,,,,0,4,4,4,4,3,19,3,,,,,,,,,,,,,"(0.75, -0.04)",images/min4.png,5,0.0526449014724,0.136532456818,[-0.1171875  -0.04166667],,,,,,,,,['num_0'],,,,2018_Jun_24_1716,59.737986241,sequenceLearningTask,001,143,
min1.png,min2.png,min3.png,min4.png,allBlank.png,"['num_7', 'num_4', 'num_1', 'num_0']",['num_0'],num_0,[4],'num_0',images/min4.png,"[(0.45, 0.79)]",,,,,0,4,4,4,4,3,19,3,,,,,,,,,,,,,"(0.75, -0.04)",images/min4.png,5,0.0250605025503,0.0260652200668,[ 0.7796875  -0.12222222],,,,,,,,,['num_0'],,,,2018_Jun_24_1716,59.737986241,sequenceLearningTask,001,143,
min1.png,min2.png,min3.png,min4.png,allBlank.png,"['num_7', 'num_4', 'num_1', 'num_0']",['num_0'],num_0,[4],'num_0',images/min4.png,"[(0.45, 0.79)]",,,,,0,4,4,4,4,3,19,3,,,,,,,,,,,,,"(-0.25, -0.04)",images/min2.png,5,0.0635503328813,0.656555217836,[ 0.6953125   0.06666667],0.274620195036,1,,,,,,,['num_0'],,,,2018_Jun_24_1716,59.737986241,sequenceLearningTask,001,143,
min1.png,min2.png,min3.png,min4.png,allBlank.png,"['num_7', 'num_4', 'num_1', 'num_0']",['num_0'],num_0,[4],'num_0',images/min4.png,"[(0.45, 0.79)]",,,,,0,4,4,4,4,3,19,3,,,,,,,,,,,,,"(0.25, -0.04)",images/min3.png,5,0.0564307461027,0.412294805225,[-0.15       -0.05277778],,,,,,,,,['num_0'],,,,2018_Jun_24_1716,59.737986241,sequenceLearningTask,001,143,
min1.png,min2.png,min3.png,min4.png,allBlank.png,"['num_7', 'num_4', 'num_1', 'num_0']",['num_0'],num_0,[4],'num_0',images/min4.png,"[(0.45, 0.79)]",,,,,0,4,4,4,4,3,19,3,,,,,,,,,,,,,"(0.75, -0.04)",images/min4.png,5,0.0569041817798,0.229526059673,[ 0.284375    0.01388889],,,,,,,,,['num_0'],,,,2018_Jun_24_1716,59.737986241,sequenceLearningTask,001,143,
min1.png,min2.png,min3.png,min4.png,allBlank.png,"['num_7', 'num_4', 'num_1', 'num_0']",['num_0'],num_0,[4],'num_0',images/min4.png,"[(0.45, 0.79)]",,,,,0,5,5,5,4,3,19,3,,,,,,,,,,,,,"(-0.75, -0.04)",images/min1.png,6,0.0616270516475,0.160085677926,[ 0.76875    -0.01111111],,,,,,,,,['num_0'],,,,2018_Jun_24_1716,59.737986241,sequenceLearningTask,001,143,
min1.png,min2.png,min3.png,min4.png,allBlank.png,"['num_7', 'num_4', 'num_1', 'num_0']",['num_0'],num_0,[4],'num_0',images/min4.png,"[(0.45, 0.79)]",,,,,0,5,5,5,4,3,19,3,,,,,,,,,,,,,"(0.25, -0.04)",images/min3.png,6,0.0547724903445,0.619326104905,[-0.8296875  -0.10277778],0.236594364484,1,,,,,,,['num_0'],,,,2018_Jun_24_1716,59.737986241,sequenceLearningTask,001,143,
min1.png,min2.png,min3.png,min4.png,allBlank.png,"['num_7', 'num_4', 'num_1', 'num_0']",['num_0'],num_0,[4],'num_0',images/min4.png,"[(0.45, 0.79)]",,,,,0,5,5,5,4,3,19,3,,,,,,,,,,,,,"(-0.25, -0.04)",images/min2.png,6,0.0253456306236,0.0240188619646,[ 0.3890625  -0.01944444],,,1,,,,,,['num_0'],,,,2018_Jun_24_1716,59.737986241,sequenceLearningTask,001,143,
min1.png,min2.png,min3.png,min4.png,allBlank.png,"['num_7', 'num_4', 'num_1', 'num_0']",['num_0'],num_0,[4],'num_0',images/min4.png,"[(0.45, 0.79)]",,,,,0,5,5,5,4,3,19,3,,,,,,,,,,,,,"(0.75, -0.04)",images/min4.png,6,0.0682740232733,0.159542498674,[-0.146875   -0.13333333],,,,,,,,,['num_0'],,,,2018_Jun_24_1716,59.737986241,sequenceLearningTask,001,143,
min1.png,min2.png,min3.png,min4.png,allBlank.png,"['num_7', 'num_4', 'num_1', 'num_0']",['num_0'],num_0,[4],'num_0',images/min4.png,"[(0.45, 0.79)]",,,,,0,5,5,5,4,3,19,3,,,,,,,,,,,,,"(0.75, -0.04)",images/min4.png,6,0.0683876642433,0.574487559206,[ 0.7109375  -0.05277778],,,,,,,,,['num_0'],,,,2018_Jun_24_1716,59.737986241,sequenceLearningTask,001,143,
min1.png,min2.png,min3.png,min4.png,allBlank.png,"['num_7', 'num_4', 'num_1', 'num_0']",['num_0'],num_0,[4],'num_0',images/min4.png,"[(0.45, 0.79)]",,,,,0,5,5,5,4,3,19,3,,,,,,,,,,,,,"(-0.25, -0.04)",images/min2.png,6,0.0542309521115,0.622246719082,[ 0.6875     -0.03055556],0.165334086021,1,,,,,,,['num_0'],,,,2018_Jun_24_1716,59.737986241,sequenceLearningTask,001,143,
min1.png,min2.png,min3.png,min4.png,allBlank.png,"['num_7', 'num_4', 'num_1', 'num_0']",['num_0'],num_0,[4],'num_0',images/min4.png,"[(0.45, 0.79)]",,,,,0,5,5,5,4,3,19,3,,,,,,,,,,,,,"(0.25, -0.04)",images/min3.png,6,0.033951165562,0.035804293002,[-0.1828125  -0.20833333],,,,,,,,,['num_0'],,,,2018_Jun_24_1716,59.737986241,sequenceLearningTask,001,143,
min1.png,min2.png,min3.png,min4.png,allBlank.png,"['num_7', 'num_4', 'num_1', 'num_0']",['num_0'],num_0,[4],'num_0',images/min4.png,"[(0.45, 0.79)]",,,,,0,5,5,5,4,3,19,3,,,,,,,,,,,,,"(0.75, -0.04)",images/min4.png,6,0.0258387586509,0.0255741433648,[ 0.2203125  -0.04166667],,,1,,,,,,['num_0'],,,,2018_Jun_24_1716,59.737986241,sequenceLearningTask,001,143,
min1.png,min2.png,min3.png,min4.png,allBlank.png,"['num_7', 'num_4', 'num_1', 'num_0']",['num_0'],num_0,[4],'num_0',images/min4.png,"[(0.45, 0.79)]",,,,,0,6,6,6,4,3,19,3,,,,,,,,,,,,,"(-0.75, -0.04)",images/min1.png,7,0.0254047075287,0.00190317869419,[ 0.7609375  -0.01944444],,,1,,,,,,['num_0'],,,,2018_Jun_24_1716,59.737986241,sequenceLearningTask,001,143,
min1.png,min2.png,min3.png,min4.png,allBlank.png,"['num_7', 'num_4', 'num_1', 'num_0']",['num_0'],num_0,[4],'num_0',images/min4.png,"[(0.45, 0.79)]",,,,,0,6,6,6,4,3,19,3,,,,,,,,,,,,,"(0.25, -0.04)",images/min3.png,7,0.0633845893608,0.689733050356,[-0.6453125   0.05833333],,,,,,,,,['num_0'],,,,2018_Jun_24_1716,59.737986241,sequenceLearningTask,001,143,
min1.png,min2.png,min3.png,min4.png,allBlank.png,"['num_7', 'num_4', 'num_1', 'num_0']",['num_0'],num_0,[4],'num_0',images/min4.png,"[(0.45, 0.79)]",,,,,0,6,6,6,4,3,19,3,,,,,,,,,,,,,"(-0.25, -0.04)",images/min2.png,7,0.0747753539472,0.70238945543,[ 0.2421875  -0.08888889],,,,,,,,,['num_0'],,,,2018_Jun_24_1716,59.737986241,sequenceLearningTask,001,143,
min1.png,min2.png,min3.png,min4.png,allBlank.png,"['num_7', 'num_4', 'num_1', 'num_0']",['num_0'],num_0,[4],'num_0',images/min4.png,"[(0.45, 0.79)]",,,,,0,6,6,6,4,3,19,3,,,,,,,,,,,,,"(0.75, -0.04)",images/min4.png,7,0.0521579273336,0.786484600423,[-0.1796875  -0.03611111],,,,,,,,,['num_0'],,,,2018_Jun_24_1716,59.737986241,sequenceLearningTask,001,143,
min1.png,min2.png,min3.png,min4.png,allBlank.png,"['num_7', 'num_4', 'num_1', 'num_0']",['num_0'],num_0,[4],'num_0',images/min4.png,"[(0.45, 0.79)]",,,,,0,6,6,6,4,3,19,3,,,,,,,,,,,,,"(0.75, -0.04)",images/min4.png,7,0.0251868614578,0.043871981994,[ 0.8046875   0.03333333],,,,,,,,,['num_0'],,,,2018_Jun_24_1716,59.737986241,sequenceLearningTask,001,143,
min1.png,min2.png,min3.png,min4.png,allBlank.png,"['num_7', 'num_4', 'num_1', 'num_0']",['num_0'],num_0,[4],'num_0',images/min4.png,"[(0.45, 0.79)]",,,,,0,6,6,6,4,3,19,3,,,,,,,,,,,,,"(-0.25, -0.04)",images/min2.png,7,0.0558305412123,0.587501707691,[ 0.8078125   0.07222222],0.00339199858718,1,,,,,,,['num_0'],,,,2018_Jun_24_1716,59.737986241,sequenceLearningTask,001,143,
min1.png,min2.png,min3.png,min4.png,allBlank.png,"['num_7', 'num_4', 'num_1', 'num_0']",['num_0'],num_0,[4],'num_0',images/min4.png,"[(0.45, 0.79)]",,,,,0,6,6,6,4,3,19,3,,,,,,,,,,,,,"(0.25, -0.04)",images/min3.png,7,0.0580229505431,0.082221914985,[-0.25       -0.01388889],,,,,,,,,['num_0'],,,,2018_Jun_24_1716,59.737986241,sequenceLearningTask,001,143,
min1.png,min2.png,min3.png,min4.png,allBlank.png,"['num_7', 'num_4', 'num_1', 'num_0']",['num_0'],num_0,[4],'num_0',images/min4.png,"[(0.45, 0.79)]",,,,,0,6,6,6,4,3,19,3,,,,,,,,,,,,,"(0.75, -0.04)",images/min4.png,7,0.025443681865,0.0269632709969,[ 0.2171875   0.09166667],,,,,,,,,['num_0'],,,,2018_Jun_24_1716,59.737986241,sequenceLearningTask,001,143,
min1.png,min2.png,min3.png,min4.png,allBlank.png,"['num_7', 'num_4', 'num_1', 'num_0']",['num_0'],num_0,[4],'num_0',images/min4.png,"[(0.45, 0.79)]",,,,,0,7,7,7,4,3,19,3,,,,,,,,,,,,,"(-0.75, -0.04)",images/min1.png,8,0.0463995707105,0.0356602930697,[ 0.83125     0.01944444],,,1,,,,,,['num_0'],,,,2018_Jun_24_1716,59.737986241,sequenceLearningTask,001,143,
min1.png,min2.png,min3.png,min4.png,allBlank.png,"['num_7', 'num_4', 'num_1', 'num_0']",['num_0'],num_0,[4],'num_0',images/min4.png,"[(0.45, 0.79)]",,,,,0,7,7,7,4,3,19,3,,,,,,,,,,,,,"(0.25, -0.04)",images/min3.png,8,0.0553115670336,0.322714944545,[-0.690625   -0.03055556],,,,,,,,,['num_0'],,,,2018_Jun_24_1716,59.737986241,sequenceLearningTask,001,143,
min1.png,min2.png,min3.png,min4.png,allBlank.png,"['num_7', 'num_4', 'num_1', 'num_0']",['num_0'],num_0,[4],'num_0',images/min4.png,"[(0.45, 0.79)]",,,,,0,7,7,7,4,3,19,3,,,,,,,,,,,,,"(-0.25, -0.04)",images/min2.png,8,0.0618658207823,0.513555071375,[ 0.759375   -0.08611111],,,,,,,,,['num_0'],,,,2018_Jun_24_1716,59.737986241,sequenceLearningTask,001,143,
min1.png,min2.png,min3.png,min4.png,allBlank.png,"['num_7', 'num_4', 'num_1', 'num_0']",['num_0'],num_0,[4],'num_0',images/min4.png,"[(0.45, 0.79)]",,,,,0,7,7,7,4,3,19,3,,,,,,,,,,,,,"(0.75, -0.04)",images/min4.png,8,0.0599031549064,0.500999589305,[ 0.7078125   0.04166667],,,,,,,,,['num_0'],,,,2018_Jun_24_1716,59.737986241,sequenceLearningTask,001,143,
min1.png,min2.png,min3.png,min4.png,allBlank.png,"['num_7', 'num_4', 'num_1', 'num_0']",['num_0'],num_0,[4],'num_0',images/min4.png,"[(0.45, 0.79)]",,,,,0,7,7,7,4,3,19,3,,,,,,,,,,,,,"(0.75, -0.04)",images/min4.png,8,0.0519363889471,0.0144430710061,[ 0.7140625  -0.04166667],,,1,,,,,,['num_0'],,,,2018_Jun_24_1716,59.737986241,sequenceLearningTask,001,143,
min1.png,min2.png,min3.png,min4.png,allBlank.png,"['num_7', 'num_4', 'num_1', 'num_0']",['num_0'],num_0,[4],'num_0',images/min4.png,"[(0.45, 0.79)]",,,,,0,7,7,7,4,3,19,3,,,,,,,,,,,,,"(-0.25, -0.04)",images/min2.png,8,0.0559031565499,0.452772737306,[ 0.6984375  -0.05555556],,,,,,,,,['num_0'],,,,2018_Jun_24_1716,59.737986241,sequenceLearningTask,001,143,
min1.png,min2.png,min3.png,min4.png,allBlank.png,"['num_7', 'num_4', 'num_1', 'num_0']",['num_0'],num_0,[4],'num_0',images/min4.png,"[(0.45, 0.79)]",,,,,0,7,7,7,4,3,19,3,,,,,,,,,,,,,"(0.25, -0.04)",images/min3.png,8,0.0570633612224,0.417135828873,[-0.040625   -0.11388889],,,,,,,,,['num_0'],,,,2018_Jun_24_1716,59.737986241,sequenceLearningTask,001,143,
min1.png,min2.png,min3.png,min4.png,allBlank.png,"['num_7', 'num_4', 'num_1', 'num_0']",['num_0'],num_0,[4],'num_0',images/min4.png,"[(0.45, 0.79)]",,,,,0,7,7,7,4,3,19,3,,,,,,,,,,,,,"(0.75, -0.04)",images/min4.png,8,0.0639187430206,0.444227510045,[ 0.20625     0.06666667],,,,,,,,,['num_0'],,,,2018_Jun_24_1716,59.737986241,sequenceLearningTask,001,143,
min1.png,min2.png,min3.png,min4.png,allBlank.png,"['num_7', 'num_4', 'num_1', 'num_0']",['num_0'],num_0,[4],'num_0',images/min4.png,"[(0.45, 0.79)]",,,,,0,8,8,8,4,3,19,3,,,,,,,,,,,,,"(-0.75, -0.04)",images/min1.png,9,0.0564299255493,0.603106214112,[ 0.5703125   0.19166667],,,,,,,,,['num_0'],,,,2018_Jun_24_1716,59.737986241,sequenceLearningTask,001,143,
min1.png,min2.png,min3.png,min4.png,allBlank.png,"['num_7', 'num_4', 'num_1', 'num_0']",['num_0'],num_0,[4],'num_0',images/min4.png,"[(0.45, 0.79)]",,,,,0,8,8,8,4,3,19,3,,,,,,,,,,,,,"(0.25, -0.04)",images/min3.png,9,0.0553825413808,0.447758995782,[-0.6359375  -0.15277778],,,,,,,,,['num_0'],,,,2018_Jun_24_1716,59.737986241,sequenceLearningTask,001,143,
min1.png,min2.png,min3.png,min4.png,allBlank.png,"['num_7', 'num_4', 'num_1', 'num_0']",['num_0'],num_0,[4],'num_0',images/min4.png,"[(0.45, 0.79)]",,,,,0,8,8,8,4,3,19,3,,,,,,,,,,,,,"(-0.25, -0.04)",images/min2.png,9,0.0586219246616,0.577870121895,[ 0.26875     0.06944444],,,,,,,,,['num_0'],,,,2018_Jun_24_1716,59.737986241,sequenceLearningTask,001,143,
min1.png,min2.png,min3.png,min4.png,allBlank.png,"['num_7', 'num_4', 'num_1', 'num_0']",['num_0'],num_0,[4],'num_0',images/min4.png,"[(0.45, 0.79)]",,,,,0,8,8,8,4,3,19,3,,,,,,,,,,,,,"(0.75, -0.04)",images/min4.png,9,0.0602030522132,0.434604539652,[-0.1375     -0.04444444],,,,,,,,,['num_0'],,,,2018_Jun_24_1716,59.737986241,sequenceLearningTask,001,143,
min1.png,min2.png,min3.png,min4.png,allBlank.png,"['num_7', 'num_4', 'num_1', 'num_0']",['num_0'],num_0,[4],'num_0',images/min4.png,"[(0.45, 0.79)]",,,,,0,8,8,8,4,3,19,3,,,,,,,,,,,,,"(0.75, -0.04)",images/min4.png,9,0.0277866552933,0.598367754515,[ 0.6546875   0.12222222],,,,,,,,,['num_0'],,,,2018_Jun_24_1716,59.737986241,sequenceLearningTask,001,143,
min1.png,min2.png,min3.png,min4.png,allBlank.png,"['num_7', 'num_4', 'num_1', 'num_0']",['num_0'],num_0,[4],'num_0',images/min4.png,"[(0.45, 0.79)]",,,,,0,8,8,8,4,3,19,3,,,,,,,,,,,,,"(-0.25, -0.04)",images/min2.png,9,0.0589952578594,0.481949340756,[ 0.7609375  -0.05277778],,,,,,,,,['num_0'],,,,2018_Jun_24_1716,59.737986241,sequenceLearningTask,001,143,
min1.png,min2.png,min3.png,min4.png,allBlank.png,"['num_7', 'num_4', 'num_1', 'num_0']",['num_0'],num_0,[4],'num_0',images/min4.png,"[(0.45, 0.79)]",,,,,0,8,8,8,4,3,19,3,,,,,,,,,,,,,"(0.25, -0.04)",images/min3.png,9,0.0551991568354,0.435727000731,[-0.278125   -0.02222222],,,,,,,,,['num_0'],,,,2018_Jun_24_1716,59.737986241,sequenceLearningTask,001,143,
min1.png,min2.png,min3.png,min4.png,allBlank.png,"['num_7', 'num_4', 'num_1', 'num_0']",['num_0'],num_0,[4],'num_0',images/min4.png,"[(0.45, 0.79)]",,,,,0,8,8,8,4,3,19,3,,,,,,,,,,,,,"(0.75, -0.04)",images/min4.png,9,0.0569562843302,0.517227685254,[ 0.2953125   0.13611111],,,,,,,,,['num_0'],,,,2018_Jun_24_1716,59.737986241,sequenceLearningTask,001,143,
min1.png,min2.png,min3.png,min4.png,allBlank.png,"['num_7', 'num_4', 'num_1', 'num_0']",['num_0'],num_0,[4],'num_0',images/min4.png,"[(0.45, 0.79)]",,,,,0,9,9,9,4,3,19,3,,,,,,,,,,,,,"(-0.75, -0.04)",images/min1.png,10,0.0615121799055,0.813155358715,[ 0.7140625  0.       ],0.32146284249,1,,,,,,,['num_0'],,,,2018_Jun_24_1716,59.737986241,sequenceLearningTask,001,143,
min1.png,min2.png,min3.png,min4.png,allBlank.png,"['num_7', 'num_4', 'num_1', 'num_0']",['num_0'],num_0,[4],'num_0',images/min4.png,"[(0.45, 0.79)]",,,,,0,9,9,9,4,3,19,3,,,,,,,,,,,,,"(0.25, -0.04)",images/min3.png,10,0.0629300254514,0.552898234717,[-0.75625     0.04166667],,,,,,,,,['num_0'],,,,2018_Jun_24_1716,59.737986241,sequenceLearningTask,001,143,
min1.png,min2.png,min3.png,min4.png,allBlank.png,"['num_7', 'num_4', 'num_1', 'num_0']",['num_0'],num_0,[4],'num_0',images/min4.png,"[(0.45, 0.79)]",,,,,0,9,9,9,4,3,19,3,,,,,,,,,,,,,"(-0.25, -0.04)",images/min2.png,10,0.0646695119503,0.540717316646,[ 0.2546875  0.       ],,,,,,,,,['num_0'],,,,2018_Jun_24_1716,59.737986241,sequenceLearningTask,001,143,
min1.png,min2.png,min3.png,min4.png,allBlank.png,"['num_7', 'num_4', 'num_1', 'num_0']",['num_0'],num_0,[4],'num_0',images/min4.png,"[(0.45, 0.79)]",,,,,0,9,9,9,4,3,19,3,,,,,,,,,,,,,"(0.75, -0.04)",images/min4.png,10,0.0546777211712,0.486830159265,[-0.178125   -0.11388889],,,,,,,,,['num_0'],,,,2018_Jun_24_1716,59.737986241,sequenceLearningTask,001,143,
min1.png,min2.png,min3.png,min4.png,allBlank.png,"['num_7', 'num_4', 'num_1', 'num_0']",['num_0'],num_0,[4],'num_0',images/min4.png,"[(0.45, 0.79)]",,,,,0,9,9,9,4,3,19,3,,,,,,,,,,,,,"(0.75, -0.04)",images/min4.png,10,0.0541337213945,1.15190557871,[ 0.684375    0.13611111],,,,,,,,,['num_0'],,,,2018_Jun_24_1716,59.737986241,sequenceLearningTask,001,143,
min1.png,min2.png,min3.png,min4.png,allBlank.png,"['num_7', 'num_4', 'num_1', 'num_0']",['num_0'],num_0,[4],'num_0',images/min4.png,"[(0.45, 0.79)]",,,,,0,9,9,9,4,3,19,3,,,,,,,,,,,,,"(-0.25, -0.04)",images/min2.png,10,0.0639519737451,0.472788729123,[ 0.6734375  -0.03611111],,,,,,,,,['num_0'],,,,2018_Jun_24_1716,59.737986241,sequenceLearningTask,001,143,
min1.png,min2.png,min3.png,min4.png,allBlank.png,"['num_7', 'num_4', 'num_1', 'num_0']",['num_0'],num_0,[4],'num_0',images/min4.png,"[(0.45, 0.79)]",,,,,0,9,9,9,4,3,19,3,,,,,,,,,,,,,"(0.25, -0.04)",images/min3.png,10,0.0637033584644,0.359856262628,[-0.3546875  -0.13055556],,,,,,,,,['num_0'],,,,2018_Jun_24_1716,59.737986241,sequenceLearningTask,001,143,
min1.png,min2.png,min3.png,min4.png,allBlank.png,"['num_7', 'num_4', 'num_1', 'num_0']",['num_0'],num_0,[4],'num_0',images/min4.png,"[(0.45, 0.79)]",,,,,0,9,9,9,4,3,19,3,,,,,,,,,,,,,"(0.75, -0.04)",images/min4.png,10,0.0608549493772,0.583621504164,[ 0.2046875 -0.05     ],,,,,,,,,['num_0'],,,,2018_Jun_24_1716,59.737986241,sequenceLearningTask,001,143,
min1.png,min2.png,min3.png,min4.png,allBlank.png,"['num_7', 'num_4', 'num_1', 'num_0']",['num_0'],num_0,[4],'num_0',images/min4.png,"[(0.45, 0.79)]",,,,,0,9,9,9,4,3,19,3,0,-1,-1,0,,,,,,,,,,,,,,,,,,,,,,,['num_0'],,,,2018_Jun_24_1716,59.737986241,sequenceLearningTask,001,143,
min1.png,min2.png,min3.png,min4.png,allBlank.png,"['num_7', 'num_4', 'num_1', 'num_0']",['num_0'],num_0,[4],'num_0',images/min4.png,"[(0.45, 0.79)]",,,,,0,9,9,9,4,3,19,3,0,-1,-1,0,,,,,,,,,,,,,,,,,,['3'],,,,,['num_0'],,,,2018_Jun_24_1716,59.737986241,sequenceLearningTask,001,143,
min1.png,min2.png,min3.png,min4.png,allBlank.png,"['num_7', 'num_4', 'num_1', 'num_0']",['num_0'],num_0,[4],'num_0',images/min4.png,"[(0.45, 0.79)]",,,,,0,9,9,9,4,3,19,3,0,-1,-1,0,,,,,,,,,,,,,,,,,,['1'],,,,,['num_0'],,,,2018_Jun_24_1716,59.737986241,sequenceLearningTask,001,143,
min1.png,min2.png,min3.png,min4.png,allBlank.png,"['num_7', 'num_4', 'num_1', 'num_0']",['num_0'],num_0,[4],'num_0',images/min4.png,"[(0.45, 0.79)]",,,,,0,9,9,9,4,3,19,3,0,-1,-1,0,,,,,,,,,,,,,,,,,,['1'],,,,,['num_0'],,,,2018_Jun_24_1716,59.737986241,sequenceLearningTask,001,143,
min1.png,min2.png,min3.png,min4.png,allBlank.png,"['num_7', 'num_4', 'num_1', 'num_0']",['num_0'],num_0,[4],'num_0',images/min4.png,"[(0.45, 0.79)]",,,,,0,9,9,9,4,3,19,3,0,-1,-1,0,,,,,,,,,,,,,,,,,,['1'],,,,,['num_0'],,,,2018_Jun_24_1716,59.737986241,sequenceLearningTask,001,143,
