pawPatrol1,pawPatrol2,pawPatrol3,pawPatrol4,blank,allowableKey,correctKey,correctKeyPressNum,posLoc,correctKeyPress,randomPaw,im_size,trials.thisRepN,trials.thisTrialN,trials.thisN,trials.thisIndex,trials_3.thisRepN,trials_3.thisTrialN,trials_3.thisN,trials_3.thisIndex,trials_2.thisRepN,trials_2.thisTrialN,trials_2.thisN,trials_2.thisIndex,trials_questions.thisRepN,trials_questions.thisTrialN,trials_questions.thisN,trials_questions.thisIndex,trials_test.thisRepN,trials_test.thisTrialN,trials_test.thisN,trials_test.thisIndex,trials_recogtest.thisRepN,trials_recogtest.thisTrialN,trials_recogtest.thisN,trials_recogtest.thisIndex,correctLocation,correctImage,repetitionNumber,stimulusPresent.t,responseTimeCorrect,pressLoc,responseTimeIncorrect,trialIncorrect,questionsResponses,AnswerFinished.keys,AnswerFinished.rt,RecordAnswer.keys,RecordAnswer.rt,correctKey,trialCorrect,recallResponse,recallResponseTime,date,frameRate,expName,session,participant,
min1.png,min2.png,min3.png,min4.png,allBlank.png,,,,,,,,,,,,0,0,0,0,,,,,,,,,,,,,,,,,"(-0.75, -0.04)",images/min1.png,1,0.0602584368316,0.618951541022,[-0.35625    -0.70277778],,,,,,,,,,,,2018_Jul_07_1421,60.0201174991,sequenceLearningTask,001,158,
min1.png,min2.png,min3.png,min4.png,allBlank.png,,,,,,,,,,,,0,0,0,0,,,,,,,,,,,,,,,,,"(0.25, -0.04)",images/min3.png,1,0.0637636660831,0.472964729066,[-0.7109375   0.01944444],,,,,,,,,,,,2018_Jul_07_1421,60.0201174991,sequenceLearningTask,001,158,
min1.png,min2.png,min3.png,min4.png,allBlank.png,,,,,,,,,,,,0,0,0,0,,,,,,,,,,,,,,,,,"(-0.25, -0.04)",images/min2.png,1,0.0591733090114,0.544279571623,[ 0.3390625  -0.05277778],,,,,,,,,,,,2018_Jul_07_1421,60.0201174991,sequenceLearningTask,001,158,
min1.png,min2.png,min3.png,min4.png,allBlank.png,,,,,,,,,,,,0,0,0,0,,,,,,,,,,,,,,,,,"(0.75, -0.04)",images/min4.png,1,0.0569341304945,0.479753649328,[-0.2328125  -0.08055556],,,,,,,,,,,,2018_Jul_07_1421,60.0201174991,sequenceLearningTask,001,158,
min1.png,min2.png,min3.png,min4.png,allBlank.png,,,,,,,,,,,,0,0,0,0,,,,,,,,,,,,,,,,,"(0.75, -0.04)",images/min4.png,1,0.0516098249936,0.501911999309,[ 0.7921875  -0.18888889],,,,,,,,,,,,2018_Jul_07_1421,60.0201174991,sequenceLearningTask,001,158,
min1.png,min2.png,min3.png,min4.png,allBlank.png,,,,,,,,,,,,0,0,0,0,,,,,,,,,,,,,,,,,"(-0.25, -0.04)",images/min2.png,1,0.0548262338853,0.515178045025,[ 0.78125    -0.15277778],,,,,,,,,,,,2018_Jul_07_1421,60.0201174991,sequenceLearningTask,001,158,
min1.png,min2.png,min3.png,min4.png,allBlank.png,,,,,,,,,,,,0,0,0,0,,,,,,,,,,,,,,,,,"(0.25, -0.04)",images/min3.png,1,0.049967569299,0.470275499392,[-0.140625   -0.08611111],,,,,,,,,,,,2018_Jul_07_1421,60.0201174991,sequenceLearningTask,001,158,
min1.png,min2.png,min3.png,min4.png,allBlank.png,,,,,,,,,,,,0,0,0,0,,,,,,,,,,,,,,,,,"(0.75, -0.04)",images/min4.png,1,0.0442457254976,0.642545787734,[ 0.296875 -0.25    ],,,,,,,,,,,,2018_Jul_07_1421,60.0201174991,sequenceLearningTask,001,158,
min1.png,min2.png,min3.png,min4.png,allBlank.png,,,,,,,,,,,,0,1,1,1,,,,,,,,,,,,,,,,,"(-0.75, -0.04)",images/min1.png,2,0.0544783365913,0.581424582051,[ 0.765625   -0.13888889],,,,,,,,,,,,2018_Jul_07_1421,60.0201174991,sequenceLearningTask,001,158,
min1.png,min2.png,min3.png,min4.png,allBlank.png,,,,,,,,,,,,0,1,1,1,,,,,,,,,,,,,,,,,"(0.25, -0.04)",images/min3.png,2,0.0550149517367,0.414349778672,[-0.709375 -0.175   ],,,,,,,,,,,,2018_Jul_07_1421,60.0201174991,sequenceLearningTask,001,158,
min1.png,min2.png,min3.png,min4.png,allBlank.png,,,,,,,,,,,,0,1,1,1,,,,,,,,,,,,,,,,,"(-0.25, -0.04)",images/min2.png,2,0.0519384403015,0.601872983854,[ 0.2640625  -0.15555556],,,,,,,,,,,,2018_Jul_07_1421,60.0201174991,sequenceLearningTask,001,158,
min1.png,min2.png,min3.png,min4.png,allBlank.png,,,,,,,,,,,,0,1,1,1,,,,,,,,,,,,,,,,,"(0.75, -0.04)",images/min4.png,2,0.0574133096961,0.580579043832,[-0.2546875 -0.225    ],,,,,,,,,,,,2018_Jul_07_1421,60.0201174991,sequenceLearningTask,001,158,
min1.png,min2.png,min3.png,min4.png,allBlank.png,,,,,,,,,,,,0,1,1,1,,,,,,,,,,,,,,,,,"(0.75, -0.04)",images/min4.png,2,0.0526990552898,0.517313839053,[ 0.7671875 -0.025    ],,,,,,,,,,,,2018_Jul_07_1421,60.0201174991,sequenceLearningTask,001,158,
min1.png,min2.png,min3.png,min4.png,allBlank.png,,,,,,,,,,,,0,1,1,1,,,,,,,,,,,,,,,,,"(-0.25, -0.04)",images/min2.png,2,0.0660935114138,0.552887157886,[ 0.734375 -0.1     ],,,,,,,,,,,,2018_Jul_07_1421,60.0201174991,sequenceLearningTask,001,158,
min1.png,min2.png,min3.png,min4.png,allBlank.png,,,,,,,,,,,,0,1,1,1,,,,,,,,,,,,,,,,,"(0.25, -0.04)",images/min3.png,2,0.0527076706057,0.550895363791,[-0.290625   -0.13055556],,,,,,,,,,,,2018_Jul_07_1421,60.0201174991,sequenceLearningTask,001,158,
min1.png,min2.png,min3.png,min4.png,allBlank.png,,,,,,,,,,,,0,1,1,1,,,,,,,,,,,,,,,,,"(0.75, -0.04)",images/min4.png,2,0.0559499257943,0.497475488111,[ 0.2390625  -0.27777778],,,,,,,,,,,,2018_Jul_07_1421,60.0201174991,sequenceLearningTask,001,158,
min1.png,min2.png,min3.png,min4.png,allBlank.png,,,,,,,,,,,,0,2,2,2,,,,,,,,,,,,,,,,,"(-0.75, -0.04)",images/min1.png,3,0.0528381321346,0.583221093984,[ 0.728125    0.05833333],,,,,,,,,,,,2018_Jul_07_1421,60.0201174991,sequenceLearningTask,001,158,
min1.png,min2.png,min3.png,min4.png,allBlank.png,,,,,,,,,,,,0,2,2,2,,,,,,,,,,,,,,,,,"(0.25, -0.04)",images/min3.png,3,0.0512381328736,0.569029510138,[-0.815625   -0.05555556],,,,,,,,,,,,2018_Jul_07_1421,60.0201174991,sequenceLearningTask,001,158,
min1.png,min2.png,min3.png,min4.png,allBlank.png,,,,,,,,,,,,0,2,2,2,,,,,,,,,,,,,,,,,"(-0.25, -0.04)",images/min2.png,3,0.0620598719688,0.507573125069,[ 0.321875   -0.05277778],,,,,,,,,,,,2018_Jul_07_1421,60.0201174991,sequenceLearningTask,001,158,
min1.png,min2.png,min3.png,min4.png,allBlank.png,,,,,,,,,,,,0,2,2,2,,,,,,,,,,,,,,,,,"(0.75, -0.04)",images/min4.png,3,0.0620635641972,0.475033651222,[-0.203125   -0.13333333],,,,,,,,,,,,2018_Jul_07_1421,60.0201174991,sequenceLearningTask,001,158,
min1.png,min2.png,min3.png,min4.png,allBlank.png,,,,,,,,,,,,0,2,2,2,,,,,,,,,,,,,,,,,"(0.75, -0.04)",images/min4.png,3,0.051405927632,0.635481175152,[ 0.7046875  -0.09166667],,,,,,,,,,,,2018_Jul_07_1421,60.0201174991,sequenceLearningTask,001,158,
min1.png,min2.png,min3.png,min4.png,allBlank.png,,,,,,,,,,,,0,2,2,2,,,,,,,,,,,,,,,,,"(-0.25, -0.04)",images/min2.png,3,0.0559285924537,0.664601983735,[ 0.7734375  -0.13055556],,,,,,,,,,,,2018_Jul_07_1421,60.0201174991,sequenceLearningTask,001,158,
min1.png,min2.png,min3.png,min4.png,allBlank.png,,,,,,,,,,,,0,2,2,2,,,,,,,,,,,,,,,,,"(0.25, -0.04)",images/min3.png,3,0.0550859260838,0.531535782036,[-0.2   -0.125],,,,,,,,,,,,2018_Jul_07_1421,60.0201174991,sequenceLearningTask,001,158,
min1.png,min2.png,min3.png,min4.png,allBlank.png,,,,,,,,,,,,0,2,2,2,,,,,,,,,,,,,,,,,"(0.75, -0.04)",images/min4.png,3,0.0525673630182,0.519528812496,[ 0.265625   -0.06944444],,,,,,,,,,,,2018_Jul_07_1421,60.0201174991,sequenceLearningTask,001,158,
min1.png,min2.png,min3.png,min4.png,allBlank.png,,,,,,,,,,,,0,3,3,3,,,,,,,,,,,,,,,,,"(-0.75, -0.04)",images/min1.png,4,0.0567445921479,0.528324296116,[ 0.721875   -0.16666667],,,,,,,,,,,,2018_Jul_07_1421,60.0201174991,sequenceLearningTask,001,158,
min1.png,min2.png,min3.png,min4.png,allBlank.png,,,,,,,,,,,,0,3,3,3,,,,,,,,,,,,,,,,,"(0.25, -0.04)",images/min3.png,4,0.0545234647579,0.54902582604,[-0.7015625   0.04722222],,,,,,,,,,,,2018_Jul_07_1421,60.0201174991,sequenceLearningTask,001,158,
min1.png,min2.png,min3.png,min4.png,allBlank.png,,,,,,,,,,,,0,3,3,3,,,,,,,,,,,,,,,,,"(-0.25, -0.04)",images/min2.png,4,0.0545037725242,0.56610397296,[ 0.3515625  -0.04722222],,,,,,,,,,,,2018_Jul_07_1421,60.0201174991,sequenceLearningTask,001,158,
min1.png,min2.png,min3.png,min4.png,allBlank.png,,,,,,,,,,,,0,3,3,3,,,,,,,,,,,,,,,,,"(0.75, -0.04)",images/min4.png,4,0.0537476702593,0.502416614443,[-0.26875    -0.01944444],,,,,,,,,,,,2018_Jul_07_1421,60.0201174991,sequenceLearningTask,001,158,
min1.png,min2.png,min3.png,min4.png,allBlank.png,,,,,,,,,,,,0,3,3,3,,,,,,,,,,,,,,,,,"(0.75, -0.04)",images/min4.png,4,0.0434633668046,0.577041814569,[ 0.7546875  -0.09166667],,,,,,,,,,,,2018_Jul_07_1421,60.0201174991,sequenceLearningTask,001,158,
min1.png,min2.png,min3.png,min4.png,allBlank.png,,,,,,,,,,,,0,3,3,3,,,,,,,,,,,,,,,,,"(-0.25, -0.04)",images/min2.png,4,0.0526211066172,0.584252067958,[ 0.8546875  -0.15833333],,,,,,,,,,,,2018_Jul_07_1421,60.0201174991,sequenceLearningTask,001,158,
min1.png,min2.png,min3.png,min4.png,allBlank.png,,,,,,,,,,,,0,3,3,3,,,,,,,,,,,,,,,,,"(0.25, -0.04)",images/min3.png,4,0.0566555665573,0.563236691989,[-0.30625    -0.07777778],,,,,,,,,,,,2018_Jul_07_1421,60.0201174991,sequenceLearningTask,001,158,
min1.png,min2.png,min3.png,min4.png,allBlank.png,,,,,,,,,,,,0,3,3,3,,,,,,,,,,,,,,,,,"(0.75, -0.04)",images/min4.png,4,0.0436266488396,0.576579045504,[ 0.1703125  -0.04166667],,,,,,,,,,,,2018_Jul_07_1421,60.0201174991,sequenceLearningTask,001,158,
min1.png,min2.png,min3.png,min4.png,allBlank.png,,,,,,,,,,,,0,4,4,4,,,,,,,,,,,,,,,,,"(-0.75, -0.04)",images/min1.png,5,0.0441817254759,0.67524115881,[ 0.784375   -0.23611111],,,,,,,,,,,,2018_Jul_07_1421,60.0201174991,sequenceLearningTask,001,158,
min1.png,min2.png,min3.png,min4.png,allBlank.png,,,,,,,,,,,,0,4,4,4,,,,,,,,,,,,,,,,,"(0.25, -0.04)",images/min3.png,5,0.0608106417349,0.610002211295,[-0.7578125  -0.19166667],,,,,,,,,,,,2018_Jul_07_1421,60.0201174991,sequenceLearningTask,001,158,
min1.png,min2.png,min3.png,min4.png,allBlank.png,,,,,,,,,,,,0,4,4,4,,,,,,,,,,,,,,,,,"(-0.25, -0.04)",images/min2.png,5,0.05510972091,0.615363439778,[ 0.2421875 -0.125    ],,,,,,,,,,,,2018_Jul_07_1421,60.0201174991,sequenceLearningTask,001,158,
min1.png,min2.png,min3.png,min4.png,allBlank.png,,,,,,,,,,,,0,4,4,4,,,,,,,,,,,,,,,,,"(0.75, -0.04)",images/min4.png,5,0.0523162861355,0.434802693431,[-0.3265625  -0.06944444],,,,,,,,,,,,2018_Jul_07_1421,60.0201174991,sequenceLearningTask,001,158,
min1.png,min2.png,min3.png,min4.png,allBlank.png,,,,,,,,,,,,0,4,4,4,,,,,,,,,,,,,,,,,"(0.75, -0.04)",images/min4.png,5,0.0573423354654,0.579226429109,[ 0.7578125  -0.11388889],,,,,,,,,,,,2018_Jul_07_1421,60.0201174991,sequenceLearningTask,001,158,
min1.png,min2.png,min3.png,min4.png,allBlank.png,,,,,,,,,,,,0,4,4,4,,,,,,,,,,,,,,,,,"(-0.25, -0.04)",images/min2.png,5,0.0473837754689,0.489728619577,[ 0.8171875  -0.15277778],,,,,,,,,,,,2018_Jul_07_1421,60.0201174991,sequenceLearningTask,001,158,
min1.png,min2.png,min3.png,min4.png,allBlank.png,,,,,,,,,,,,0,4,4,4,,,,,,,,,,,,,,,,,"(0.25, -0.04)",images/min3.png,5,0.0545017211698,0.515676916693,[-0.28125    -0.15555556],,,,,,,,,,,,2018_Jul_07_1421,60.0201174991,sequenceLearningTask,001,158,
min1.png,min2.png,min3.png,min4.png,allBlank.png,,,,,,,,,,,,0,4,4,4,,,,,,,,,,,,,,,,,"(0.75, -0.04)",images/min4.png,5,0.0628291025059,0.507038561278,[ 0.2921875  -0.20277778],,,,,,,,,,,,2018_Jul_07_1421,60.0201174991,sequenceLearningTask,001,158,
min1.png,min2.png,min3.png,min4.png,allBlank.png,,,,,,,,,,,,0,5,5,5,,,,,,,,,,,,,,,,,"(-0.75, -0.04)",images/min1.png,6,0.0545386442682,0.597875447129,[ 0.81875    -0.28333333],,,,,,,,,,,,2018_Jul_07_1421,60.0201174991,sequenceLearningTask,001,158,
min1.png,min2.png,min3.png,min4.png,allBlank.png,,,,,,,,,,,,0,5,5,5,,,,,,,,,,,,,,,,,"(0.25, -0.04)",images/min3.png,6,0.0601977189071,0.643762197462,[-0.8015625  -0.05555556],,,,,,,,,,,,2018_Jul_07_1421,60.0201174991,sequenceLearningTask,001,158,
min1.png,min2.png,min3.png,min4.png,allBlank.png,,,,,,,,,,,,0,5,5,5,,,,,,,,,,,,,,,,,"(-0.25, -0.04)",images/min2.png,6,0.0614584363066,0.524633630877,[ 0.2578125  -0.26388889],,,,,,,,,,,,2018_Jul_07_1421,60.0201174991,sequenceLearningTask,001,158,
min1.png,min2.png,min3.png,min4.png,allBlank.png,,,,,,,,,,,,0,5,5,5,,,,,,,,,,,,,,,,,"(0.75, -0.04)",images/min4.png,6,0.0632996662753,0.55722561758,[-0.2921875  -0.11944444],,,,,,,,,,,,2018_Jul_07_1421,60.0201174991,sequenceLearningTask,001,158,
min1.png,min2.png,min3.png,min4.png,allBlank.png,,,,,,,,,,,,0,5,5,5,,,,,,,,,,,,,,,,,"(0.75, -0.04)",images/min4.png,6,0.0559893103782,0.497205539607,[ 0.7015625  -0.19444444],,,,,,,,,,,,2018_Jul_07_1421,60.0201174991,sequenceLearningTask,001,158,
min1.png,min2.png,min3.png,min4.png,allBlank.png,,,,,,,,,,,,0,5,5,5,,,,,,,,,,,,,,,,,"(-0.25, -0.04)",images/min2.png,6,0.0598128985148,0.727886060369,[ 0.728125   -0.11388889],,,,,,,,,,,,2018_Jul_07_1421,60.0201174991,sequenceLearningTask,001,158,
min1.png,min2.png,min3.png,min4.png,allBlank.png,,,,,,,,,,,,0,5,5,5,,,,,,,,,,,,,,,,,"(0.25, -0.04)",images/min3.png,6,0.0589714630041,0.645496350597,[-0.259375   -0.20833333],,,,,,,,,,,,2018_Jul_07_1421,60.0201174991,sequenceLearningTask,001,158,
min1.png,min2.png,min3.png,min4.png,allBlank.png,,,,,,,,,,,,0,5,5,5,,,,,,,,,,,,,,,,,"(0.75, -0.04)",images/min4.png,6,0.0592557706404,0.577943557757,[ 0.2640625  -0.19722222],,,,,,,,,,,,2018_Jul_07_1421,60.0201174991,sequenceLearningTask,001,158,
min1.png,min2.png,min3.png,min4.png,allBlank.png,,,,,,,,,,,,0,6,6,6,,,,,,,,,,,,,,,,,"(-0.75, -0.04)",images/min1.png,7,0.0604479751782,0.675756030483,[ 0.7734375  -0.21388889],,,,,,,,,,,,2018_Jul_07_1421,60.0201174991,sequenceLearningTask,001,158,
min1.png,min2.png,min3.png,min4.png,allBlank.png,,,,,,,,,,,,0,6,6,6,,,,,,,,,,,,,,,,,"(0.25, -0.04)",images/min3.png,7,0.0609821288381,0.508977022022,[-0.7703125  -0.14444444],,,,,,,,,,,,2018_Jul_07_1421,60.0201174991,sequenceLearningTask,001,158,
min1.png,min2.png,min3.png,min4.png,allBlank.png,,,,,,,,,,,,0,6,6,6,,,,,,,,,,,,,,,,,"(-0.25, -0.04)",images/min2.png,7,0.059243873111,0.628288562759,[ 0.2609375  -0.15277778],,,,,,,,,,,,2018_Jul_07_1421,60.0201174991,sequenceLearningTask,001,158,
min1.png,min2.png,min3.png,min4.png,allBlank.png,,,,,,,,,,,,0,6,6,6,,,,,,,,,,,,,,,,,"(0.75, -0.04)",images/min4.png,7,0.0416996751446,0.478231188376,[-0.259375 -0.225   ],,,,,,,,,,,,2018_Jul_07_1421,60.0201174991,sequenceLearningTask,001,158,
min1.png,min2.png,min3.png,min4.png,allBlank.png,,,,,,,,,,,,0,6,6,6,,,,,,,,,,,,,,,,,"(0.75, -0.04)",images/min4.png,7,0.0514785429696,0.53522685729,[ 0.7421875  -0.16111111],,,,,,,,,,,,2018_Jul_07_1421,60.0201174991,sequenceLearningTask,001,158,
min1.png,min2.png,min3.png,min4.png,allBlank.png,,,,,,,,,,,,0,6,6,6,,,,,,,,,,,,,,,,,"(-0.25, -0.04)",images/min2.png,7,0.0580541300587,0.629801587784,[ 0.7921875  -0.13611111],,,,,,,,,,,,2018_Jul_07_1421,60.0201174991,sequenceLearningTask,001,158,
min1.png,min2.png,min3.png,min4.png,allBlank.png,,,,,,,,,,,,0,6,6,6,,,,,,,,,,,,,,,,,"(0.25, -0.04)",images/min3.png,7,0.0555326951435,0.480754674529,[-0.3109375   0.00277778],,,,,,,,,,,,2018_Jul_07_1421,60.0201174991,sequenceLearningTask,001,158,
min1.png,min2.png,min3.png,min4.png,allBlank.png,,,,,,,,,,,,0,6,6,6,,,,,,,,,,,,,,,,,"(0.75, -0.04)",images/min4.png,7,0.0467376218876,0.540255778353,[ 0.2359375  -0.23055556],,,,,,,,,,,,2018_Jul_07_1421,60.0201174991,sequenceLearningTask,001,158,
min1.png,min2.png,min3.png,min4.png,allBlank.png,,,,,,,,,,,,0,7,7,7,,,,,,,,,,,,,,,,,"(-0.75, -0.04)",images/min1.png,8,0.044294135645,0.691367511172,[ 0.7546875  -0.16944444],,,,,,,,,,,,2018_Jul_07_1421,60.0201174991,sequenceLearningTask,001,158,
min1.png,min2.png,min3.png,min4.png,allBlank.png,,,,,,,,,,,,0,7,7,7,,,,,,,,,,,,,,,,,"(0.25, -0.04)",images/min3.png,8,0.0536656189943,0.466196321533,[-0.7828125  -0.18611111],,,,,,,,,,,,2018_Jul_07_1421,60.0201174991,sequenceLearningTask,001,158,
min1.png,min2.png,min3.png,min4.png,allBlank.png,,,,,,,,,,,,0,7,7,7,,,,,,,,,,,,,,,,,"(-0.25, -0.04)",images/min2.png,8,0.0589763860917,0.627795845037,[ 0.3515625  -0.14166667],,,,,,,,,,,,2018_Jul_07_1421,60.0201174991,sequenceLearningTask,001,158,
min1.png,min2.png,min3.png,min4.png,allBlank.png,,,,,,,,,,,,0,7,7,7,,,,,,,,,,,,,,,,,"(0.75, -0.04)",images/min4.png,8,0.0507856202312,0.569786432898,[-0.259375   -0.13055556],,,,,,,,,,,,2018_Jul_07_1421,60.0201174991,sequenceLearningTask,001,158,
min1.png,min2.png,min3.png,min4.png,allBlank.png,,,,,,,,,,,,0,7,7,7,,,,,,,,,,,,,,,,,"(0.75, -0.04)",images/min4.png,8,0.0523367989808,0.605037700501,[ 0.721875   -0.23333333],,,,,,,,,,,,2018_Jul_07_1421,60.0201174991,sequenceLearningTask,001,158,
min1.png,min2.png,min3.png,min4.png,allBlank.png,,,,,,,,,,,,0,7,7,7,,,,,,,,,,,,,,,,,"(-0.25, -0.04)",images/min2.png,8,0.0566596690333,0.596774319303,[ 0.7671875  -0.21944444],,,,,,,,,,,,2018_Jul_07_1421,60.0201174991,sequenceLearningTask,001,158,
min1.png,min2.png,min3.png,min4.png,allBlank.png,,,,,,,,,,,,0,7,7,7,,,,,,,,,,,,,,,,,"(0.25, -0.04)",images/min3.png,8,0.0583372068359,0.595479140291,[-0.2890625  -0.15833333],,,,,,,,,,,,2018_Jul_07_1421,60.0201174991,sequenceLearningTask,001,158,
min1.png,min2.png,min3.png,min4.png,allBlank.png,,,,,,,,,,,,0,7,7,7,,,,,,,,,,,,,,,,,"(0.75, -0.04)",images/min4.png,8,0.0576323866844,0.512404712848,[ 0.19375    -0.24722222],,,,,,,,,,,,2018_Jul_07_1421,60.0201174991,sequenceLearningTask,001,158,
min1.png,min2.png,min3.png,min4.png,allBlank.png,,,,,,,,,,,,0,8,8,8,,,,,,,,,,,,,,,,,"(-0.75, -0.04)",images/min1.png,9,0.0529443884734,0.66634352156,[ 0.703125   -0.21944444],,,,,,,,,,,,2018_Jul_07_1421,60.0201174991,sequenceLearningTask,001,158,
min1.png,min2.png,min3.png,min4.png,allBlank.png,,,,,,,,,,,,0,8,8,8,,,,,,,,,,,,,,,,,"(0.25, -0.04)",images/min3.png,9,0.0569919766858,0.479730674997,[-0.7421875  -0.14444444],,,,,,,,,,,,2018_Jul_07_1421,60.0201174991,sequenceLearningTask,001,158,
min1.png,min2.png,min3.png,min4.png,allBlank.png,,,,,,,,,,,,0,8,8,8,,,,,,,,,,,,,,,,,"(-0.25, -0.04)",images/min2.png,9,0.0461324938806,0.590867039631,[ 0.2703125 -0.125    ],,,,,,,,,,,,2018_Jul_07_1421,60.0201174991,sequenceLearningTask,001,158,
min1.png,min2.png,min3.png,min4.png,allBlank.png,,,,,,,,,,,,0,8,8,8,,,,,,,,,,,,,,,,,"(0.75, -0.04)",images/min4.png,9,0.0433419309556,0.460869554547,[-0.2828125  -0.19444444],,,,,,,,,,,,2018_Jul_07_1421,60.0201174991,sequenceLearningTask,001,158,
min1.png,min2.png,min3.png,min4.png,allBlank.png,,,,,,,,,,,,0,8,8,8,,,,,,,,,,,,,,,,,"(0.75, -0.04)",images/min4.png,9,0.0565226434264,0.614123235224,[ 0.7359375  -0.15277778],,,,,,,,,,,,2018_Jul_07_1421,60.0201174991,sequenceLearningTask,001,158,
min1.png,min2.png,min3.png,min4.png,allBlank.png,,,,,,,,,,,,0,8,8,8,,,,,,,,,,,,,,,,,"(-0.25, -0.04)",images/min2.png,9,0.0546264392324,0.465235911775,[ 0.8984375  -0.08055556],,,,,,,,,,,,2018_Jul_07_1421,60.0201174991,sequenceLearningTask,001,158,
min1.png,min2.png,min3.png,min4.png,allBlank.png,,,,,,,,,,,,0,8,8,8,,,,,,,,,,,,,,,,,"(0.25, -0.04)",images/min3.png,9,0.0562051051529,0.497213744791,[-0.275      -0.10277778],,,,,,,,,,,,2018_Jul_07_1421,60.0201174991,sequenceLearningTask,001,158,
min1.png,min2.png,min3.png,min4.png,allBlank.png,,,,,,,,,,,,0,8,8,8,,,,,,,,,,,,,,,,,"(0.75, -0.04)",images/min4.png,9,0.0584381298395,0.52858809079,[ 0.2546875  -0.23055556],,,,,,,,,,,,2018_Jul_07_1421,60.0201174991,sequenceLearningTask,001,158,
min1.png,min2.png,min3.png,min4.png,allBlank.png,,,,,,,,,,,,0,9,9,9,,,,,,,,,,,,,,,,,"(-0.75, -0.04)",images/min1.png,10,0.0393755735131,0.730482982355,[ 0.76875    -0.22222222],,,,,,,,,,,,2018_Jul_07_1421,60.0201174991,sequenceLearningTask,001,158,
min1.png,min2.png,min3.png,min4.png,allBlank.png,,,,,,,,,,,,0,9,9,9,,,,,,,,,,,,,,,,,"(0.25, -0.04)",images/min3.png,10,0.0526781321969,0.601088163676,[-0.703125   -0.11111111],,,,,,,,,,,,2018_Jul_07_1421,60.0201174991,sequenceLearningTask,001,158,
min1.png,min2.png,min3.png,min4.png,allBlank.png,,,,,,,,,,,,0,9,9,9,,,,,,,,,,,,,,,,,"(-0.25, -0.04)",images/min2.png,10,0.0568373100832,0.68081079761,[ 0.271875   -0.19722222],,,,,,,,,,,,2018_Jul_07_1421,60.0201174991,sequenceLearningTask,001,158,
min1.png,min2.png,min3.png,min4.png,allBlank.png,,,,,,,,,,,,0,9,9,9,,,,,,,,,,,,,,,,,"(0.75, -0.04)",images/min4.png,10,0.0559827463003,0.497667077929,[-0.2171875  -0.19166667],,,,,,,,,,,,2018_Jul_07_1421,60.0201174991,sequenceLearningTask,001,158,
min1.png,min2.png,min3.png,min4.png,allBlank.png,,,,,,,,,,,,0,9,9,9,,,,,,,,,,,,,,,,,"(0.75, -0.04)",images/min4.png,10,0.0572820277885,0.813953717356,[ 0.6859375  -0.08055556],,,,,,,,,,,,2018_Jul_07_1421,60.0201174991,sequenceLearningTask,001,158,
min1.png,min2.png,min3.png,min4.png,allBlank.png,,,,,,,,,,,,0,9,9,9,,,,,,,,,,,,,,,,,"(-0.25, -0.04)",images/min2.png,10,0.0583372068359,0.695651406888,[ 0.6859375 -0.075    ],,,,,,,,,,,,2018_Jul_07_1421,60.0201174991,sequenceLearningTask,001,158,
min1.png,min2.png,min3.png,min4.png,allBlank.png,,,,,,,,,,,,0,9,9,9,,,,,,,,,,,,,,,,,"(0.25, -0.04)",images/min3.png,10,0.0453406993765,0.659139421885,[-0.2015625  -0.11944444],,,,,,,,,,,,2018_Jul_07_1421,60.0201174991,sequenceLearningTask,001,158,
min1.png,min2.png,min3.png,min4.png,allBlank.png,,,,,,,,,,,,0,9,9,9,,,,,,,,,,,,,,,,,"(0.75, -0.04)",images/min4.png,10,0.0561009000521,0.69806453411,[ 0.2921875  -0.20555556],,,,,,,,,,,,2018_Jul_07_1421,60.0201174991,sequenceLearningTask,001,158,
min1.png,min2.png,min3.png,min4.png,allBlank.png,,,,,,,,,,,,0,0,0,0,,,,,,,,,,,,,,,,,"(-0.75, -0.04)",images/min1.png,1,0.0637390507618,0.719840525184,[ 0.784375   -0.20277778],,,,,,,,,,,,2018_Jul_07_1421,60.0201174991,sequenceLearningTask,001,158,
min1.png,min2.png,min3.png,min4.png,allBlank.png,,,,,,,,,,,,0,0,0,0,,,,,,,,,,,,,,,,,"(0.25, -0.04)",images/min3.png,1,0.054967772332,0.447873457219,[-0.6640625   0.11944444],,,,,,,,,,,,2018_Jul_07_1421,60.0201174991,sequenceLearningTask,001,158,
min1.png,min2.png,min3.png,min4.png,allBlank.png,,,,,,,,,,,,0,0,0,0,,,,,,,,,,,,,,,,,"(-0.25, -0.04)",images/min2.png,1,0.0566875664517,0.49596738629,[ 0.2859375  -0.08333333],,,,,,,,,,,,2018_Jul_07_1421,60.0201174991,sequenceLearningTask,001,158,
min1.png,min2.png,min3.png,min4.png,allBlank.png,,,,,,,,,,,,0,0,0,0,,,,,,,,,,,,,,,,,"(0.75, -0.04)",images/min4.png,1,0.0528163886629,0.450175405014,[-0.184375   -0.06944444],,,,,,,,,,,,2018_Jul_07_1421,60.0201174991,sequenceLearningTask,001,158,
min1.png,min2.png,min3.png,min4.png,allBlank.png,,,,,,,,,,,,0,0,0,0,,,,,,,,,,,,,,,,,"(0.75, -0.04)",images/min4.png,1,0.0447363918647,0.578835865133,[ 0.7265625 -0.225    ],,,,,,,,,,,,2018_Jul_07_1421,60.0201174991,sequenceLearningTask,001,158,
min1.png,min2.png,min3.png,min4.png,allBlank.png,,,,,,,,,,,,0,0,0,0,,,,,,,,,,,,,,,,,"(-0.25, -0.04)",images/min2.png,1,0.0529579269933,0.51717435196,[ 0.7609375  -0.04444444],,,,,,,,,,,,2018_Jul_07_1421,60.0201174991,sequenceLearningTask,001,158,
min1.png,min2.png,min3.png,min4.png,allBlank.png,,,,,,,,,,,,0,0,0,0,,,,,,,,,,,,,,,,,"(0.25, -0.04)",images/min3.png,1,0.0556524900021,0.530472808052,[-0.2546875 -0.15     ],,,,,,,,,,,,2018_Jul_07_1421,60.0201174991,sequenceLearningTask,001,158,
min1.png,min2.png,min3.png,min4.png,allBlank.png,,,,,,,,,,,,0,0,0,0,,,,,,,,,,,,,,,,,"(0.75, -0.04)",images/min4.png,1,0.0445148535073,0.642638915917,[ 0.1828125  -0.08055556],,,,,,,,,,,,2018_Jul_07_1421,60.0201174991,sequenceLearningTask,001,158,
min1.png,min2.png,min3.png,min4.png,allBlank.png,,,,,,,,,,,,0,1,1,1,,,,,,,,,,,,,,,,,"(-0.75, -0.04)",images/min1.png,2,0.0577960788505,0.678075619275,[ 0.771875   -0.25277778],,,,,,,,,,,,2018_Jul_07_1421,60.0201174991,sequenceLearningTask,001,158,
min1.png,min2.png,min3.png,min4.png,allBlank.png,,,,,,,,,,,,0,1,1,1,,,,,,,,,,,,,,,,,"(0.25, -0.04)",images/min3.png,2,0.0517952607479,0.518325120676,[-0.80625    -0.09722222],,,,,,,,,,,,2018_Jul_07_1421,60.0201174991,sequenceLearningTask,001,158,
min1.png,min2.png,min3.png,min4.png,allBlank.png,,,,,,,,,,,,0,1,1,1,,,,,,,,,,,,,,,,,"(-0.25, -0.04)",images/min2.png,2,0.0566424382851,0.630327946506,[ 0.284375   -0.10555556],,,,,,,,,,,,2018_Jul_07_1421,60.0201174991,sequenceLearningTask,001,158,
min1.png,min2.png,min3.png,min4.png,allBlank.png,,,,,,,,,,,,0,1,1,1,,,,,,,,,,,,,,,,,"(0.75, -0.04)",images/min4.png,2,0.0326547558652,0.454325557221,[-0.2796875 -0.025    ],,,,,,,,,,,,2018_Jul_07_1421,60.0201174991,sequenceLearningTask,001,158,
min1.png,min2.png,min3.png,min4.png,allBlank.png,,,,,,,,,,,,0,1,1,1,,,,,,,,,,,,,,,,,"(0.75, -0.04)",images/min4.png,2,0.0610005903291,0.576476071146,[ 0.71875    -0.25833333],,,,,,,,,,,,2018_Jul_07_1421,60.0201174991,sequenceLearningTask,001,158,
min1.png,min2.png,min3.png,min4.png,allBlank.png,,,,,,,,,,,,0,1,1,1,,,,,,,,,,,,,,,,,"(-0.25, -0.04)",images/min2.png,2,0.0528155680513,0.600854317541,[ 0.7546875  -0.23333333],,,,,,,,,,,,2018_Jul_07_1421,60.0201174991,sequenceLearningTask,001,158,
min1.png,min2.png,min3.png,min4.png,allBlank.png,,,,,,,,,,,,0,1,1,1,,,,,,,,,,,,,,,,,"(0.25, -0.04)",images/min3.png,2,0.0594371038023,0.544385827961,[-0.3234375  -0.20277778],,,,,,,,,,,,2018_Jul_07_1421,60.0201174991,sequenceLearningTask,001,158,
min1.png,min2.png,min3.png,min4.png,allBlank.png,,,,,,,,,,,,0,1,1,1,,,,,,,,,,,,,,,,,"(0.75, -0.04)",images/min4.png,2,0.0495273642009,0.688009563833,[ 0.321875   -0.13888889],,,,,,,,,,,,2018_Jul_07_1421,60.0201174991,sequenceLearningTask,001,158,
min1.png,min2.png,min3.png,min4.png,allBlank.png,,,,,,,,,,,,0,2,2,2,,,,,,,,,,,,,,,,,"(-0.75, -0.04)",images/min1.png,3,0.0524606964318,0.600032574381,[ 0.734375   -0.19444444],,,,,,,,,,,,2018_Jul_07_1421,60.0201174991,sequenceLearningTask,001,158,
min1.png,min2.png,min3.png,min4.png,allBlank.png,,,,,,,,,,,,0,2,2,2,,,,,,,,,,,,,,,,,"(0.25, -0.04)",images/min3.png,3,0.0569255151786,0.563127563801,[-0.7703125 -0.15     ],,,,,,,,,,,,2018_Jul_07_1421,60.0201174991,sequenceLearningTask,001,158,
min1.png,min2.png,min3.png,min4.png,allBlank.png,,,,,,,,,,,,0,2,2,2,,,,,,,,,,,,,,,,,"(-0.25, -0.04)",images/min2.png,3,0.036976805306,0.583839350147,[ 0.228125 -0.175   ],,,,,,,,,,,,2018_Jul_07_1421,60.0201174991,sequenceLearningTask,001,158,
min1.png,min2.png,min3.png,min4.png,allBlank.png,,,,,,,,,,,,0,2,2,2,,,,,,,,,,,,,,,,,"(0.75, -0.04)",images/min4.png,3,0.0586900272174,0.52862378303,[-0.28125    -0.01944444],,,,,,,,,,,,2018_Jul_07_1421,60.0201174991,sequenceLearningTask,001,158,
min1.png,min2.png,min3.png,min4.png,allBlank.png,,,,,,,,,,,,0,2,2,2,,,,,,,,,,,,,,,,,"(0.75, -0.04)",images/min4.png,3,0.0505702357041,0.536081421073,[ 0.7171875  -0.14166667],,,,,,,,,,,,2018_Jul_07_1421,60.0201174991,sequenceLearningTask,001,158,
min1.png,min2.png,min3.png,min4.png,allBlank.png,,,,,,,,,,,,0,2,2,2,,,,,,,,,,,,,,,,,"(-0.25, -0.04)",images/min2.png,3,0.0564356691903,0.597751549562,[ 0.765625    0.04444444],,,,,,,,,,,,2018_Jul_07_1421,60.0201174991,sequenceLearningTask,001,158,
min1.png,min2.png,min3.png,min4.png,allBlank.png,,,,,,,,,,,,0,2,2,2,,,,,,,,,,,,,,,,,"(0.25, -0.04)",images/min3.png,3,0.0511987482896,0.636084662168,[-0.209375   -0.09722222],,,,,,,,,,,,2018_Jul_07_1421,60.0201174991,sequenceLearningTask,001,158,
min1.png,min2.png,min3.png,min4.png,allBlank.png,,,,,,,,,,,,0,2,2,2,,,,,,,,,,,,,,,,,"(0.75, -0.04)",images/min4.png,3,0.0558580283541,1.06676879304,[ 0.4078125  0.025    ],0.581500479369,1,,,,,,,,,,2018_Jul_07_1421,60.0201174991,sequenceLearningTask,001,158,
min1.png,min2.png,min3.png,min4.png,allBlank.png,,,,,,,,,,,,0,3,3,3,,,,,,,,,,,,,,,,,"(-0.75, -0.04)",images/min1.png,4,0.0598174114712,0.67647972249,[ 0.840625   -0.07222222],,,,,,,,,,,,2018_Jul_07_1421,60.0201174991,sequenceLearningTask,001,158,
min1.png,min2.png,min3.png,min4.png,allBlank.png,,,,,,,,,,,,0,3,3,3,,,,,,,,,,,,,,,,,"(0.25, -0.04)",images/min3.png,4,0.055315669626,0.598460062174,[-0.7578125  -0.06388889],,,,,,,,,,,,2018_Jul_07_1421,60.0201174991,sequenceLearningTask,001,158,
min1.png,min2.png,min3.png,min4.png,allBlank.png,,,,,,,,,,,,0,3,3,3,,,,,,,,,,,,,,,,,"(-0.25, -0.04)",images/min2.png,4,0.0620299233124,0.660439934116,[ 0.2578125  -0.04444444],,,,,,,,,,,,2018_Jul_07_1421,60.0201174991,sequenceLearningTask,001,158,
min1.png,min2.png,min3.png,min4.png,allBlank.png,,,,,,,,,,,,0,3,3,3,,,,,,,,,,,,,,,,,"(0.75, -0.04)",images/min4.png,4,0.0528176194057,0.61771790043,[-0.2640625 -0.075    ],,,,,,,,,,,,2018_Jul_07_1421,60.0201174991,sequenceLearningTask,001,158,
min1.png,min2.png,min3.png,min4.png,allBlank.png,,,,,,,,,,,,0,3,3,3,,,,,,,,,,,,,,,,,"(0.75, -0.04)",images/min4.png,4,0.0452791608404,0.57423402078,[ 0.8296875  -0.04722222],,,,,,,,,,,,2018_Jul_07_1421,60.0201174991,sequenceLearningTask,001,158,
min1.png,min2.png,min3.png,min4.png,allBlank.png,,,,,,,,,,,,0,3,3,3,,,,,,,,,,,,,,,,,"(-0.25, -0.04)",images/min2.png,4,0.0538358753547,0.700622481876,[ 0.8109375  -0.11666667],,,,,,,,,,,,2018_Jul_07_1421,60.0201174991,sequenceLearningTask,001,158,
min1.png,min2.png,min3.png,min4.png,allBlank.png,,,,,,,,,,,,0,3,3,3,,,,,,,,,,,,,,,,,"(0.25, -0.04)",images/min3.png,4,0.0539105420467,0.616757080308,[-0.11875    -0.26388889],,,,,,,,,,,,2018_Jul_07_1421,60.0201174991,sequenceLearningTask,001,158,
min1.png,min2.png,min3.png,min4.png,allBlank.png,,,,,,,,,,,,0,3,3,3,,,,,,,,,,,,,,,,,"(0.75, -0.04)",images/min4.png,4,0.050919773872,0.552712798933,[ 0.2515625  -0.12777778],,,,,,,,,,,,2018_Jul_07_1421,60.0201174991,sequenceLearningTask,001,158,
min1.png,min2.png,min3.png,min4.png,allBlank.png,,,,,,,,,,,,0,4,4,4,,,,,,,,,,,,,,,,,"(-0.75, -0.04)",images/min1.png,5,0.056717104977,0.678902285523,[ 0.796875   -0.35555556],,,,,,,,,,,,2018_Jul_07_1421,60.0201174991,sequenceLearningTask,001,158,
min1.png,min2.png,min3.png,min4.png,allBlank.png,,,,,,,,,,,,0,4,4,4,,,,,,,,,,,,,,,,,"(0.25, -0.04)",images/min3.png,5,0.0629308458883,0.708236427396,[-0.8390625  -0.05277778],,,,,,,,,,,,2018_Jul_07_1421,60.0201174991,sequenceLearningTask,001,158,
min1.png,min2.png,min3.png,min4.png,allBlank.png,,,,,,,,,,,,0,4,4,4,,,,,,,,,,,,,,,,,"(-0.25, -0.04)",images/min2.png,5,0.0548885928001,0.615328978281,[ 0.2015625  -0.25277778],,,,,,,,,,,,2018_Jul_07_1421,60.0201174991,sequenceLearningTask,001,158,
min1.png,min2.png,min3.png,min4.png,allBlank.png,,,,,,,,,,,,0,4,4,4,,,,,,,,,,,,,,,,,"(0.75, -0.04)",images/min4.png,5,0.0444221355719,0.592663551797,[-0.3        -0.11388889],,,,,,,,,,,,2018_Jul_07_1421,60.0201174991,sequenceLearningTask,001,158,
min1.png,min2.png,min3.png,min4.png,allBlank.png,,,,,,,,,,,,0,4,4,4,,,,,,,,,,,,,,,,,"(0.75, -0.04)",images/min4.png,5,0.0619458208093,0.624369795085,[ 0.825      -0.06388889],,,,,,,,,,,,2018_Jul_07_1421,60.0201174991,sequenceLearningTask,001,158,
min1.png,min2.png,min3.png,min4.png,allBlank.png,,,,,,,,,,,,0,4,4,4,,,,,,,,,,,,,,,,,"(-0.25, -0.04)",images/min2.png,5,0.0616816157708,0.709381042281,[ 0.79375    -0.03888889],,,,,,,,,,,,2018_Jul_07_1421,60.0201174991,sequenceLearningTask,001,158,
min1.png,min2.png,min3.png,min4.png,allBlank.png,,,,,,,,,,,,0,4,4,4,,,,,,,,,,,,,,,,,"(0.25, -0.04)",images/min3.png,5,0.0488972107414,0.621650616755,[-0.2734375  -0.01388889],,,,,,,,,,,,2018_Jul_07_1421,60.0201174991,sequenceLearningTask,001,158,
min1.png,min2.png,min3.png,min4.png,allBlank.png,,,,,,,,,,,,0,4,4,4,,,,,,,,,,,,,,,,,"(0.75, -0.04)",images/min4.png,5,0.0459696222097,0.658431319636,[ 0.2390625  -0.11388889],,,,,,,,,,,,2018_Jul_07_1421,60.0201174991,sequenceLearningTask,001,158,
min1.png,min2.png,min3.png,min4.png,allBlank.png,,,,,,,,,,,,0,5,5,5,,,,,,,,,,,,,,,,,"(-0.75, -0.04)",images/min1.png,6,0.0450842891587,0.674382492551,[ 0.7046875 -0.125    ],,,,,,,,,,,,2018_Jul_07_1421,60.0201174991,sequenceLearningTask,001,158,
min1.png,min2.png,min3.png,min4.png,allBlank.png,,,,,,,,,,,,0,5,5,5,,,,,,,,,,,,,,,,,"(0.25, -0.04)",images/min3.png,6,0.0544274648419,0.532638550736,[-0.8109375  -0.03611111],,,,,,,,,,,,2018_Jul_07_1421,60.0201174991,sequenceLearningTask,001,158,
min1.png,min2.png,min3.png,min4.png,allBlank.png,,,,,,,,,,,,0,5,5,5,,,,,,,,,,,,,,,,,"(-0.25, -0.04)",images/min2.png,6,0.0541054137284,0.616392362514,[ 0.1859375   0.08888889],,,,,,,,,,,,2018_Jul_07_1421,60.0201174991,sequenceLearningTask,001,158,
min1.png,min2.png,min3.png,min4.png,allBlank.png,,,,,,,,,,,,0,5,5,5,,,,,,,,,,,,,,,,,"(0.75, -0.04)",images/min4.png,6,0.0527642860543,0.534186037257,[-0.3265625   0.13333333],,,,,,,,,,,,2018_Jul_07_1421,60.0201174991,sequenceLearningTask,001,158,
min1.png,min2.png,min3.png,min4.png,allBlank.png,,,,,,,,,,,,0,5,5,5,,,,,,,,,,,,,,,,,"(0.75, -0.04)",images/min4.png,6,0.0546026442898,0.548653723672,[ 0.7625     -0.09444444],,,,,,,,,,,,2018_Jul_07_1421,60.0201174991,sequenceLearningTask,001,158,
min1.png,min2.png,min3.png,min4.png,allBlank.png,,,,,,,,,,,,0,5,5,5,,,,,,,,,,,,,,,,,"(-0.25, -0.04)",images/min2.png,6,0.0552098234184,0.565140280989,[ 0.6609375  -0.28888889],,,,,,,,,,,,2018_Jul_07_1421,60.0201174991,sequenceLearningTask,001,158,
min1.png,min2.png,min3.png,min4.png,allBlank.png,,,,,,,,,,,,0,5,5,5,,,,,,,,,,,,,,,,,"(0.25, -0.04)",images/min3.png,6,0.0567470536334,0.614392773598,[-0.2984375  -0.15833333],,,,,,,,,,,,2018_Jul_07_1421,60.0201174991,sequenceLearningTask,001,158,
min1.png,min2.png,min3.png,min4.png,allBlank.png,,,,,,,,,,,,0,5,5,5,,,,,,,,,,,,,,,,,"(0.75, -0.04)",images/min4.png,6,0.0420118801994,0.680663925828,[ 0.2171875  -0.15833333],,,,,,,,,,,,2018_Jul_07_1421,60.0201174991,sequenceLearningTask,001,158,
min1.png,min2.png,min3.png,min4.png,allBlank.png,,,,,,,,,,,,0,6,6,6,,,,,,,,,,,,,,,,,"(-0.75, -0.04)",images/min1.png,7,0.0523130042711,0.632268868852,[ 0.6921875  -0.06111111],,,,,,,,,,,,2018_Jul_07_1421,60.0201174991,sequenceLearningTask,001,158,
min1.png,min2.png,min3.png,min4.png,allBlank.png,,,,,,,,,,,,0,6,6,6,,,,,,,,,,,,,,,,,"(0.25, -0.04)",images/min3.png,7,0.0488479799824,0.655491833575,[-0.7703125  -0.14444444],,,,,,,,,,,,2018_Jul_07_1421,60.0201174991,sequenceLearningTask,001,158,
min1.png,min2.png,min3.png,min4.png,allBlank.png,,,,,,,,,,,,0,6,6,6,,,,,,,,,,,,,,,,,"(-0.25, -0.04)",images/min2.png,7,0.0507655176334,0.720124012209,[ 0.25625 -0.125  ],,,,,,,,,,,,2018_Jul_07_1421,60.0201174991,sequenceLearningTask,001,158,
min1.png,min2.png,min3.png,min4.png,allBlank.png,,,,,,,,,,,,0,6,6,6,,,,,,,,,,,,,,,,,"(0.75, -0.04)",images/min4.png,7,0.0567060280591,0.649628451443,[-0.3109375  -0.13611111],,,,,,,,,,,,2018_Jul_07_1421,60.0201174991,sequenceLearningTask,001,158,
min1.png,min2.png,min3.png,min4.png,allBlank.png,,,,,,,,,,,,0,6,6,6,,,,,,,,,,,,,,,,,"(0.75, -0.04)",images/min4.png,7,0.0553115670336,0.581805299851,[ 0.7015625 -0.15     ],,,,,,,,,,,,2018_Jul_07_1421,60.0201174991,sequenceLearningTask,001,158,
min1.png,min2.png,min3.png,min4.png,allBlank.png,,,,,,,,,,,,0,6,6,6,,,,,,,,,,,,,,,,,"(-0.25, -0.04)",images/min2.png,7,0.0522416195599,0.752815691056,[ 0.76875    -0.21944444],,,,,,,,,,,,2018_Jul_07_1421,60.0201174991,sequenceLearningTask,001,158,
min1.png,min2.png,min3.png,min4.png,allBlank.png,,,,,,,,,,,,0,6,6,6,,,,,,,,,,,,,,,,,"(0.25, -0.04)",images/min3.png,7,0.0564672589535,0.531149320537,[-0.2421875  0.075    ],,,,,,,,,,,,2018_Jul_07_1421,60.0201174991,sequenceLearningTask,001,158,
min1.png,min2.png,min3.png,min4.png,allBlank.png,,,,,,,,,,,,0,6,6,6,,,,,,,,,,,,,,,,,"(0.75, -0.04)",images/min4.png,7,0.0619006925263,0.625403230544,[ 0.178125 -0.175   ],,,,,,,,,,,,2018_Jul_07_1421,60.0201174991,sequenceLearningTask,001,158,
min1.png,min2.png,min3.png,min4.png,allBlank.png,,,,,,,,,,,,0,7,7,7,,,,,,,,,,,,,,,,,"(-0.75, -0.04)",images/min1.png,8,0.0535831574816,0.681549669127,[ 0.7390625  -0.10833333],,,,,,,,,,,,2018_Jul_07_1421,60.0201174991,sequenceLearningTask,001,158,
min1.png,min2.png,min3.png,min4.png,allBlank.png,,,,,,,,,,,,0,7,7,7,,,,,,,,,,,,,,,,,"(0.25, -0.04)",images/min3.png,8,0.0692717664642,0.702266378561,[-0.70625    -0.19722222],,,,,,,,,,,,2018_Jul_07_1421,60.0201174991,sequenceLearningTask,001,158,
min1.png,min2.png,min3.png,min4.png,allBlank.png,,,,,,,,,,,,0,7,7,7,,,,,,,,,,,,,,,,,"(-0.25, -0.04)",images/min2.png,8,0.0457029555691,0.808945719386,[ 0.2546875  -0.00833333],,,,,,,,,,,,2018_Jul_07_1421,60.0201174991,sequenceLearningTask,001,158,
min1.png,min2.png,min3.png,min4.png,allBlank.png,,,,,,,,,,,,0,7,7,7,,,,,,,,,,,,,,,,,"(0.75, -0.04)",images/min4.png,8,0.0604340265272,0.577079558163,[-0.371875   -0.03055556],,,,,,,,,,,,2018_Jul_07_1421,60.0201174991,sequenceLearningTask,001,158,
min1.png,min2.png,min3.png,min4.png,allBlank.png,,,,,,,,,,,,0,7,7,7,,,,,,,,,,,,,,,,,"(0.75, -0.04)",images/min4.png,8,0.0585427451879,0.511370867142,[ 0.7703125  -0.05555556],,,,,,,,,,,,2018_Jul_07_1421,60.0201174991,sequenceLearningTask,001,158,
min1.png,min2.png,min3.png,min4.png,allBlank.png,,,,,,,,,,,,0,7,7,7,,,,,,,,,,,,,,,,,"(-0.25, -0.04)",images/min2.png,8,0.0565915665356,0.663819625042,[ 0.7328125  -0.18611111],,,,,,,,,,,,2018_Jul_07_1421,60.0201174991,sequenceLearningTask,001,158,
min1.png,min2.png,min3.png,min4.png,allBlank.png,,,,,,,,,,,,0,7,7,7,,,,,,,,,,,,,,,,,"(0.25, -0.04)",images/min3.png,8,0.0561205922859,0.58090027445,[-0.2078125  -0.11944444],,,,,,,,,,,,2018_Jul_07_1421,60.0201174991,sequenceLearningTask,001,158,
min1.png,min2.png,min3.png,min4.png,allBlank.png,,,,,,,,,,,,0,7,7,7,,,,,,,,,,,,,,,,,"(0.75, -0.04)",images/min4.png,8,0.0561127974652,0.631307228236,[ 0.3078125  -0.14722222],,,,,,,,,,,,2018_Jul_07_1421,60.0201174991,sequenceLearningTask,001,158,
min1.png,min2.png,min3.png,min4.png,allBlank.png,,,,,,,,,,,,0,8,8,8,,,,,,,,,,,,,,,,,"(-0.75, -0.04)",images/min1.png,9,0.0444196740864,0.791926649399,[ 0.7078125  -0.18888889],,,,,,,,,,,,2018_Jul_07_1421,60.0201174991,sequenceLearningTask,001,158,
min1.png,min2.png,min3.png,min4.png,allBlank.png,,,,,,,,,,,,0,8,8,8,,,,,,,,,,,,,,,,,"(0.25, -0.04)",images/min3.png,9,0.0552922850475,0.614616363193,[-0.7890625  -0.07777778],,,,,,,,,,,,2018_Jul_07_1421,60.0201174991,sequenceLearningTask,001,158,
min1.png,min2.png,min3.png,min4.png,allBlank.png,,,,,,,,,,,,0,8,8,8,,,,,,,,,,,,,,,,,"(-0.25, -0.04)",images/min2.png,9,0.0522613119101,0.701676840312,[ 0.271875   -0.18055556],,,,,,,,,,,,2018_Jul_07_1421,60.0201174991,sequenceLearningTask,001,158,
min1.png,min2.png,min3.png,min4.png,allBlank.png,,,,,,,,,,,,0,8,8,8,,,,,,,,,,,,,,,,,"(0.75, -0.04)",images/min4.png,9,0.0555400797166,0.514534353046,[-0.3015625  -0.07222222],,,,,,,,,,,,2018_Jul_07_1421,60.0201174991,sequenceLearningTask,001,158,
min1.png,min2.png,min3.png,min4.png,allBlank.png,,,,,,,,,,,,0,8,8,8,,,,,,,,,,,,,,,,,"(0.75, -0.04)",images/min4.png,9,0.0540816187859,0.583387247869,[ 0.6671875 -0.125    ],,,,,,,,,,,,2018_Jul_07_1421,60.0201174991,sequenceLearningTask,001,158,
min1.png,min2.png,min3.png,min4.png,allBlank.png,,,,,,,,,,,,0,8,8,8,,,,,,,,,,,,,,,,,"(-0.25, -0.04)",images/min2.png,9,0.0513349532848,0.618775541079,[ 0.684375   -0.08055556],,,,,,,,,,,,2018_Jul_07_1421,60.0201174991,sequenceLearningTask,001,158,
min1.png,min2.png,min3.png,min4.png,allBlank.png,,,,,,,,,,,,0,8,8,8,,,,,,,,,,,,,,,,,"(0.25, -0.04)",images/min3.png,9,0.0544442853425,0.632698817411,[-0.2640625  -0.14166667],,,,,,,,,,,,2018_Jul_07_1421,60.0201174991,sequenceLearningTask,001,158,
min1.png,min2.png,min3.png,min4.png,allBlank.png,,,,,,,,,,,,0,8,8,8,,,,,,,,,,,,,,,,,"(0.75, -0.04)",images/min4.png,9,0.0518202864332,0.518586453865,[ 0.25625    -0.20277778],,,,,,,,,,,,2018_Jul_07_1421,60.0201174991,sequenceLearningTask,001,158,
min1.png,min2.png,min3.png,min4.png,allBlank.png,,,,,,,,,,,,0,9,9,9,,,,,,,,,,,,,,,,,"(-0.75, -0.04)",images/min1.png,10,0.0411277780076,0.745321950642,[ 0.7765625  -0.08055556],,,,,,,,,,,,2018_Jul_07_1421,60.0201174991,sequenceLearningTask,001,158,
min1.png,min2.png,min3.png,min4.png,allBlank.png,,,,,,,,,,,,0,9,9,9,,,,,,,,,,,,,,,,,"(0.25, -0.04)",images/min3.png,10,0.0519482863601,0.56837925408,[-0.84375    -0.07777778],,,,,,,,,,,,2018_Jul_07_1421,60.0201174991,sequenceLearningTask,001,158,
min1.png,min2.png,min3.png,min4.png,allBlank.png,,,,,,,,,,,,0,9,9,9,,,,,,,,,,,,,,,,,"(-0.25, -0.04)",images/min2.png,10,0.05438602902,0.599951753858,[ 0.3203125  -0.12222222],,,,,,,,,,,,2018_Jul_07_1421,60.0201174991,sequenceLearningTask,001,158,
min1.png,min2.png,min3.png,min4.png,allBlank.png,,,,,,,,,,,,0,9,9,9,,,,,,,,,,,,,,,,,"(0.75, -0.04)",images/min4.png,10,0.058221104322,0.444505663821,[-0.2546875  -0.10833333],,,,,,,,,,,,2018_Jul_07_1421,60.0201174991,sequenceLearningTask,001,158,
min1.png,min2.png,min3.png,min4.png,allBlank.png,,,,,,,,,,,,0,9,9,9,,,,,,,,,,,,,,,,,"(0.75, -0.04)",images/min4.png,10,0.0573095149593,0.730474777287,[ 0.6234375  -0.25277778],,,,,,,,,,,,2018_Jul_07_1421,60.0201174991,sequenceLearningTask,001,158,
min1.png,min2.png,min3.png,min4.png,allBlank.png,,,,,,,,,,,,0,9,9,9,,,,,,,,,,,,,,,,,"(-0.25, -0.04)",images/min2.png,10,0.0538059265818,0.499845538638,[ 0.721875    0.00833333],,,,,,,,,,,,2018_Jul_07_1421,60.0201174991,sequenceLearningTask,001,158,
min1.png,min2.png,min3.png,min4.png,allBlank.png,,,,,,,,,,,,0,9,9,9,,,,,,,,,,,,,,,,,"(0.25, -0.04)",images/min3.png,10,0.0545205930248,0.632839535247,[-0.246875 -0.15    ],,,,,,,,,,,,2018_Jul_07_1421,60.0201174991,sequenceLearningTask,001,158,
min1.png,min2.png,min3.png,min4.png,allBlank.png,,,,,,,,,,,,0,9,9,9,,,,,,,,,,,,,,,,,"(0.75, -0.04)",images/min4.png,10,0.0529136193218,0.568381305318,[ 0.234375   -0.13055556],,,,,,,,,,,,2018_Jul_07_1421,60.0201174991,sequenceLearningTask,001,158,
min1.png,min2.png,min3.png,min4.png,images/allBlank.png,"['num_7', 'num_4', 'num_1', 'num_0']",['num_1'],num_1,[3],'num_1',images/min3.png,"[(0.45, 0.79)]",,,,,0,-1,-1,0,0,0,0,2,,,,,,,,,,,,,"(-0.25, 0.04)",images/min2.png,1,0.0450572122354,0.872035744716,[ 0.653125   -0.11111111],,,,,,,,['num_1'],,,,2018_Jul_07_1421,60.0201174991,sequenceLearningTask,001,158,
min1.png,min2.png,min3.png,min4.png,images/allBlank.png,"['num_7', 'num_4', 'num_1', 'num_0']",['num_1'],num_1,[3],'num_1',images/min3.png,"[(0.45, 0.79)]",,,,,0,-1,-1,0,0,0,0,2,,,,,,,,,,,,,"(0.75, 0.04)",images/min4.png,1,0.0624188461807,0.39000927587,[-0.3578125   0.06111111],,,,,,,,['num_1'],,,,2018_Jul_07_1421,60.0201174991,sequenceLearningTask,001,158,
min1.png,min2.png,min3.png,min4.png,images/allBlank.png,"['num_7', 'num_4', 'num_1', 'num_0']",['num_1'],num_1,[3],'num_1',images/min3.png,"[(0.45, 0.79)]",,,,,0,-1,-1,0,0,0,0,2,,,,,,,,,,,,,"(-0.75, 0.04)",images/min1.png,1,0.0534202858107,0.684512129403,[ 0.6515625  -0.01388889],,,,,,,,['num_1'],,,,2018_Jul_07_1421,60.0201174991,sequenceLearningTask,001,158,
min1.png,min2.png,min3.png,min4.png,images/allBlank.png,"['num_7', 'num_4', 'num_1', 'num_0']",['num_1'],num_1,[3],'num_1',images/min3.png,"[(0.45, 0.79)]",,,,,0,-1,-1,0,0,0,0,2,,,,,,,,,,,,,"(-0.75, 0.04)",images/min1.png,1,0.0580639762338,0.712865348556,[-0.7453125   0.09444444],,,,,,,,['num_1'],,,,2018_Jul_07_1421,60.0201174991,sequenceLearningTask,001,158,
min1.png,min2.png,min3.png,min4.png,images/allBlank.png,"['num_7', 'num_4', 'num_1', 'num_0']",['num_0'],num_0,[4],'num_0',images/min4.png,"[(0.45, 0.79)]",,,,,0,-1,-1,0,0,1,1,3,,,,,,,,,,,,,"(0.75, 0.04)",images/min4.png,2,0.0551839773543,0.445772124804,[-0.8734375  -0.07222222],,,,,,,,['num_0'],,,,2018_Jul_07_1421,60.0201174991,sequenceLearningTask,001,158,
min1.png,min2.png,min3.png,min4.png,images/allBlank.png,"['num_7', 'num_4', 'num_1', 'num_0']",['num_0'],num_0,[4],'num_0',images/min4.png,"[(0.45, 0.79)]",,,,,0,-1,-1,0,0,1,1,3,,,,,,,,,,,,,"(-0.25, 0.04)",images/min2.png,2,0.0562621307326,0.597217806266,[ 0.71875    -0.03333333],,,,,,,,['num_0'],,,,2018_Jul_07_1421,60.0201174991,sequenceLearningTask,001,158,
min1.png,min2.png,min3.png,min4.png,images/allBlank.png,"['num_7', 'num_4', 'num_1', 'num_0']",['num_0'],num_0,[4],'num_0',images/min4.png,"[(0.45, 0.79)]",,,,,0,-1,-1,0,0,1,1,3,,,,,,,,,,,,,"(-0.75, 0.04)",images/min1.png,2,0.0530412090011,0.61717759294,[-0.2390625  0.       ],,,,,,,,['num_0'],,,,2018_Jul_07_1421,60.0201174991,sequenceLearningTask,001,158,
min1.png,min2.png,min3.png,min4.png,images/allBlank.png,"['num_7', 'num_4', 'num_1', 'num_0']",['num_0'],num_0,[4],'num_0',images/min4.png,"[(0.45, 0.79)]",,,,,0,-1,-1,0,0,1,1,3,,,,,,,,,,,,,"(-0.75, 0.04)",images/min1.png,2,0.059451873065,0.678477260051,[-0.7609375  -0.15277778],,,,,,,,['num_0'],,,,2018_Jul_07_1421,60.0201174991,sequenceLearningTask,001,158,
min1.png,min2.png,min3.png,min4.png,images/allBlank.png,"['num_7', 'num_4', 'num_1', 'num_0']",['num_7'],num_7,[1],'num_7',images/min1.png,"[(0.45, 0.79)]",,,,,0,-1,-1,0,0,2,2,0,,,,,,,,,,,,,"(0.25, 0.04)",images/min3.png,3,0.0560090027284,0.494178258814,[-0.8640625  -0.14166667],,,,,,,,['num_7'],,,,2018_Jul_07_1421,60.0201174991,sequenceLearningTask,001,158,
min1.png,min2.png,min3.png,min4.png,images/allBlank.png,"['num_7', 'num_4', 'num_1', 'num_0']",['num_7'],num_7,[1],'num_7',images/min1.png,"[(0.45, 0.79)]",,,,,0,-1,-1,0,0,2,2,0,,,,,,,,,,,,,"(0.75, 0.04)",images/min4.png,3,0.0548594647553,0.481468110112,[ 0.215625   -0.01944444],,,,,,,,['num_7'],,,,2018_Jul_07_1421,60.0201174991,sequenceLearningTask,001,158,
min1.png,min2.png,min3.png,min4.png,images/allBlank.png,"['num_7', 'num_4', 'num_1', 'num_0']",['num_7'],num_7,[1],'num_7',images/min1.png,"[(0.45, 0.79)]",,,,,0,-1,-1,0,0,2,2,0,,,,,,,,,,,,,"(-0.25, 0.04)",images/min2.png,3,0.0413858290995,0.494705438148,[ 0.7203125  -0.13888889],,,,,,,,['num_7'],,,,2018_Jul_07_1421,60.0201174991,sequenceLearningTask,001,158,
min1.png,min2.png,min3.png,min4.png,images/allBlank.png,"['num_7', 'num_4', 'num_1', 'num_0']",['num_7'],num_7,[1],'num_7',images/min1.png,"[(0.45, 0.79)]",,,,,0,-1,-1,0,0,2,2,0,,,,,,,,,,,,,"(0.25, 0.04)",images/min3.png,3,0.0550116697559,0.547942339326,[-0.196875   -0.13611111],,,,,,,,['num_7'],,,,2018_Jul_07_1421,60.0201174991,sequenceLearningTask,001,158,
min1.png,min2.png,min3.png,min4.png,images/allBlank.png,"['num_7', 'num_4', 'num_1', 'num_0']",['num_4'],num_4,[2],'num_4',images/min2.png,"[(0.45, 0.79)]",,,,,0,-1,-1,0,0,3,3,1,,,,,,,,,,,,,"(-0.25, 0.04)",images/min2.png,4,0.0538063368294,0.581648581894,[ 0.2984375  -0.08611111],,,,,,,,['num_4'],,,,2018_Jul_07_1421,60.0201174991,sequenceLearningTask,001,158,
min1.png,min2.png,min3.png,min4.png,images/allBlank.png,"['num_7', 'num_4', 'num_1', 'num_0']",['num_4'],num_4,[2],'num_4',images/min2.png,"[(0.45, 0.79)]",,,,,0,-1,-1,0,0,3,3,1,,,,,,,,,,,,,"(0.25, 0.04)",images/min3.png,4,0.0746416103793,1.09917534399,[-0.3921875  -0.26944444],0.460856016027,1,,,,,,['num_4'],,,,2018_Jul_07_1421,60.0201174991,sequenceLearningTask,001,158,
min1.png,min2.png,min3.png,min4.png,images/allBlank.png,"['num_7', 'num_4', 'num_1', 'num_0']",['num_4'],num_4,[2],'num_4',images/min2.png,"[(0.45, 0.79)]",,,,,0,-1,-1,0,0,3,3,1,,,,,,,,,,,,,"(-0.75, 0.04)",images/min1.png,4,0.0460077759344,0.691080331802,[ 0.3078125  -0.17777778],,,,,,,,['num_4'],,,,2018_Jul_07_1421,60.0201174991,sequenceLearningTask,001,158,
min1.png,min2.png,min3.png,min4.png,images/allBlank.png,"['num_7', 'num_4', 'num_1', 'num_0']",['num_4'],num_4,[2],'num_4',images/min2.png,"[(0.45, 0.79)]",,,,,0,-1,-1,0,0,3,3,1,,,,,,,,,,,,,"(-0.25, 0.04)",images/min2.png,4,0.0544299263274,0.582508479012,[-0.8015625  -0.14722222],,,,,,,,['num_4'],,,,2018_Jul_07_1421,60.0201174991,sequenceLearningTask,001,158,
min1.png,min2.png,min3.png,min4.png,images/allBlank.png,"['num_7', 'num_4', 'num_1', 'num_0']",['num_4'],num_4,[2],'num_4',images/min2.png,"[(0.45, 0.79)]",,,,,0,-1,-1,0,1,0,4,1,,,,,,,,,,,,,"(-0.25, 0.04)",images/min2.png,5,0.0430596746737,0.524910553941,[-0.3484375  0.125    ],,,,,,,,['num_4'],,,,2018_Jul_07_1421,60.0201174991,sequenceLearningTask,001,158,
min1.png,min2.png,min3.png,min4.png,images/allBlank.png,"['num_7', 'num_4', 'num_1', 'num_0']",['num_4'],num_4,[2],'num_4',images/min2.png,"[(0.45, 0.79)]",,,,,0,-1,-1,0,1,0,4,1,,,,,,,,,,,,,"(0.25, 0.04)",images/min3.png,5,0.0573045918718,0.562654948677,[-0.2171875  -0.11388889],,,,,,,,['num_4'],,,,2018_Jul_07_1421,60.0201174991,sequenceLearningTask,001,158,
min1.png,min2.png,min3.png,min4.png,images/allBlank.png,"['num_7', 'num_4', 'num_1', 'num_0']",['num_4'],num_4,[2],'num_4',images/min2.png,"[(0.45, 0.79)]",,,,,0,-1,-1,0,1,0,4,1,,,,,,,,,,,,,"(0.75, 0.04)",images/min4.png,5,0.0454838788137,0.52432922076,[ 0.2765625  -0.26944444],,,,,,,,['num_4'],,,,2018_Jul_07_1421,60.0201174991,sequenceLearningTask,001,158,
min1.png,min2.png,min3.png,min4.png,images/allBlank.png,"['num_7', 'num_4', 'num_1', 'num_0']",['num_4'],num_4,[2],'num_4',images/min2.png,"[(0.45, 0.79)]",,,,,0,-1,-1,0,1,0,4,1,,,,,,,,,,,,,"(-0.75, 0.04)",images/min1.png,5,0.052457004087,0.768388197524,[ 0.846875   -0.16666667],,,,,,,,['num_4'],,,,2018_Jul_07_1421,60.0201174991,sequenceLearningTask,001,158,
min1.png,min2.png,min3.png,min4.png,images/allBlank.png,"['num_7', 'num_4', 'num_1', 'num_0']",['num_7'],num_7,[1],'num_7',images/min1.png,"[(0.45, 0.79)]",,,,,0,-1,-1,0,1,1,5,0,,,,,,,,,,,,,"(-0.25, 0.04)",images/min2.png,6,0.0514892096398,0.650205682032,[-0.7703125  -0.23611111],,,,,,,,['num_7'],,,,2018_Jul_07_1421,60.0201174991,sequenceLearningTask,001,158,
min1.png,min2.png,min3.png,min4.png,images/allBlank.png,"['num_7', 'num_4', 'num_1', 'num_0']",['num_7'],num_7,[1],'num_7',images/min1.png,"[(0.45, 0.79)]",,,,,0,-1,-1,0,1,1,5,0,,,,,,,,,,,,,"(0.75, 0.04)",images/min4.png,6,0.0611909491709,0.407558396924,[-0.2171875  -0.01944444],,,,,,,,['num_7'],,,,2018_Jul_07_1421,60.0201174991,sequenceLearningTask,001,158,
min1.png,min2.png,min3.png,min4.png,images/allBlank.png,"['num_7', 'num_4', 'num_1', 'num_0']",['num_7'],num_7,[1],'num_7',images/min1.png,"[(0.45, 0.79)]",,,,,0,-1,-1,0,1,1,5,0,,,,,,,,,,,,,"(0.25, 0.04)",images/min3.png,6,0.0498957743403,0.65738393541,[ 0.8125     -0.10277778],,,,,,,,['num_7'],,,,2018_Jul_07_1421,60.0201174991,sequenceLearningTask,001,158,
min1.png,min2.png,min3.png,min4.png,images/allBlank.png,"['num_7', 'num_4', 'num_1', 'num_0']",['num_7'],num_7,[1],'num_7',images/min1.png,"[(0.45, 0.79)]",,,,,0,-1,-1,0,1,1,5,0,,,,,,,,,,,,,"(0.75, 0.04)",images/min4.png,6,0.0534289011266,0.699928738526,[ 0.2609375 -0.025    ],,,,,,,,['num_7'],,,,2018_Jul_07_1421,60.0201174991,sequenceLearningTask,001,158,
min1.png,min2.png,min3.png,min4.png,images/allBlank.png,"['num_7', 'num_4', 'num_1', 'num_0']",['num_0'],num_0,[4],'num_0',images/min4.png,"[(0.45, 0.79)]",,,,,0,-1,-1,0,1,2,6,3,,,,,,,,,,,,,"(-0.25, 0.04)",images/min2.png,7,0.0495064412244,0.51890029991,[ 0.7703125   0.06111111],,,,,,,,['num_0'],,,,2018_Jul_07_1421,60.0201174991,sequenceLearningTask,001,158,
min1.png,min2.png,min3.png,min4.png,images/allBlank.png,"['num_7', 'num_4', 'num_1', 'num_0']",['num_0'],num_0,[4],'num_0',images/min4.png,"[(0.45, 0.79)]",,,,,0,-1,-1,0,1,2,6,3,,,,,,,,,,,,,"(0.25, 0.04)",images/min3.png,7,0.0519006965915,0.601347035379,[-0.309375  0.05    ],,,,,,,,['num_0'],,,,2018_Jul_07_1421,60.0201174991,sequenceLearningTask,001,158,
min1.png,min2.png,min3.png,min4.png,images/allBlank.png,"['num_7', 'num_4', 'num_1', 'num_0']",['num_0'],num_0,[4],'num_0',images/min4.png,"[(0.45, 0.79)]",,,,,0,-1,-1,0,1,2,6,3,,,,,,,,,,,,,"(0.25, 0.04)",images/min3.png,7,0.0502301332308,0.519430350978,[ 0.2359375   0.01111111],,,,,,,,['num_0'],,,,2018_Jul_07_1421,60.0201174991,sequenceLearningTask,001,158,
min1.png,min2.png,min3.png,min4.png,images/allBlank.png,"['num_7', 'num_4', 'num_1', 'num_0']",['num_0'],num_0,[4],'num_0',images/min4.png,"[(0.45, 0.79)]",,,,,0,-1,-1,0,1,2,6,3,,,,,,,,,,,,,"(0.75, 0.04)",images/min4.png,7,0.0582022325834,0.645308453124,[ 0.2953125  -0.06388889],,,,,,,,['num_0'],,,,2018_Jul_07_1421,60.0201174991,sequenceLearningTask,001,158,
min1.png,min2.png,min3.png,min4.png,images/allBlank.png,"['num_7', 'num_4', 'num_1', 'num_0']",['num_1'],num_1,[3],'num_1',images/min3.png,"[(0.45, 0.79)]",,,,,0,-1,-1,0,1,3,7,2,,,,,,,,,,,,,"(-0.25, 0.04)",images/min2.png,8,0.0542051059892,0.480890469393,[ 0.7671875   0.01944444],,,,,,,,['num_1'],,,,2018_Jul_07_1421,60.0201174991,sequenceLearningTask,001,158,
min1.png,min2.png,min3.png,min4.png,images/allBlank.png,"['num_7', 'num_4', 'num_1', 'num_0']",['num_1'],num_1,[3],'num_1',images/min3.png,"[(0.45, 0.79)]",,,,,0,-1,-1,0,1,3,7,2,,,,,,,,,,,,,"(0.75, 0.04)",images/min4.png,8,0.0555437720614,0.480547495186,[-0.2125     -0.10277778],,,,,,,,['num_1'],,,,2018_Jul_07_1421,60.0201174991,sequenceLearningTask,001,158,
min1.png,min2.png,min3.png,min4.png,images/allBlank.png,"['num_7', 'num_4', 'num_1', 'num_0']",['num_1'],num_1,[3],'num_1',images/min3.png,"[(0.45, 0.79)]",,,,,0,-1,-1,0,1,3,7,2,,,,,,,,,,,,,"(-0.25, 0.04)",images/min2.png,8,0.0568237715634,0.46285724605,[ 0.734375   -0.08333333],,,,,,,,['num_1'],,,,2018_Jul_07_1421,60.0201174991,sequenceLearningTask,001,158,
min1.png,min2.png,min3.png,min4.png,images/allBlank.png,"['num_7', 'num_4', 'num_1', 'num_0']",['num_1'],num_1,[3],'num_1',images/min3.png,"[(0.45, 0.79)]",,,,,0,-1,-1,0,1,3,7,2,,,,,,,,,,,,,"(-0.25, 0.04)",images/min2.png,8,0.0414481881307,0.595151755842,[-0.1984375  -0.21388889],,,,,,,,['num_1'],,,,2018_Jul_07_1421,60.0201174991,sequenceLearningTask,001,158,
min1.png,min2.png,min3.png,min4.png,images/allBlank.png,"['num_7', 'num_4', 'num_1', 'num_0']",['num_7'],num_7,[1],'num_7',images/min1.png,"[(0.45, 0.79)]",,,,,0,-1,-1,0,2,0,8,0,,,,,,,,,,,,,"(0.25, 0.04)",images/min3.png,9,0.047949108528,0.520444504451,[-0.2703125  -0.03611111],,,,,,,,['num_7'],,,,2018_Jul_07_1421,60.0201174991,sequenceLearningTask,001,158,
min1.png,min2.png,min3.png,min4.png,images/allBlank.png,"['num_7', 'num_4', 'num_1', 'num_0']",['num_7'],num_7,[1],'num_7',images/min1.png,"[(0.45, 0.79)]",,,,,0,-1,-1,0,2,0,8,0,,,,,,,,,,,,,"(-0.25, 0.04)",images/min2.png,9,0.0687856128206,0.496182770818,[ 0.209375   -0.18888889],,,,,,,,['num_7'],,,,2018_Jul_07_1421,60.0201174991,sequenceLearningTask,001,158,
min1.png,min2.png,min3.png,min4.png,images/allBlank.png,"['num_7', 'num_4', 'num_1', 'num_0']",['num_7'],num_7,[1],'num_7',images/min1.png,"[(0.45, 0.79)]",,,,,0,-1,-1,0,2,0,8,0,,,,,,,,,,,,,"(-0.25, 0.04)",images/min2.png,9,0.0569640791509,0.546063365764,[-0.2078125   0.00833333],,,,,,,,['num_7'],,,,2018_Jul_07_1421,60.0201174991,sequenceLearningTask,001,158,
min1.png,min2.png,min3.png,min4.png,images/allBlank.png,"['num_7', 'num_4', 'num_1', 'num_0']",['num_7'],num_7,[1],'num_7',images/min1.png,"[(0.45, 0.79)]",,,,,0,-1,-1,0,2,0,8,0,,,,,,,,,,,,,"(0.75, 0.04)",images/min4.png,9,0.0574682840379,0.56484407594,[-0.3125     -0.13611111],,,,,,,,['num_7'],,,,2018_Jul_07_1421,60.0201174991,sequenceLearningTask,001,158,
min1.png,min2.png,min3.png,min4.png,images/allBlank.png,"['num_7', 'num_4', 'num_1', 'num_0']",['num_1'],num_1,[3],'num_1',images/min3.png,"[(0.45, 0.79)]",,,,,0,-1,-1,0,2,1,9,2,,,,,,,,,,,,,"(-0.75, 0.04)",images/min1.png,10,0.052632183535,0.548665210837,[ 0.7703125  -0.11944444],,,,,,,,['num_1'],,,,2018_Jul_07_1421,60.0201174991,sequenceLearningTask,001,158,
min1.png,min2.png,min3.png,min4.png,images/allBlank.png,"['num_7', 'num_4', 'num_1', 'num_0']",['num_1'],num_1,[3],'num_1',images/min3.png,"[(0.45, 0.79)]",,,,,0,-1,-1,0,2,1,9,2,,,,,,,,,,,,,"(0.75, 0.04)",images/min4.png,10,0.0557747463463,0.565930024255,[-0.84375    -0.11944444],,,,,,,,['num_1'],,,,2018_Jul_07_1421,60.0201174991,sequenceLearningTask,001,158,
min1.png,min2.png,min3.png,min4.png,images/allBlank.png,"['num_7', 'num_4', 'num_1', 'num_0']",['num_1'],num_1,[3],'num_1',images/min3.png,"[(0.45, 0.79)]",,,,,0,-1,-1,0,2,1,9,2,,,,,,,,,,,,,"(0.25, 0.04)",images/min3.png,10,0.0465037758695,0.474366164417,[ 0.821875   -0.10277778],,,,,,,,['num_1'],,,,2018_Jul_07_1421,60.0201174991,sequenceLearningTask,001,158,
min1.png,min2.png,min3.png,min4.png,images/allBlank.png,"['num_7', 'num_4', 'num_1', 'num_0']",['num_1'],num_1,[3],'num_1',images/min3.png,"[(0.45, 0.79)]",,,,,0,-1,-1,0,2,1,9,2,,,,,,,,,,,,,"(-0.75, 0.04)",images/min1.png,10,0.0522707478376,0.584426016663,[ 0.2546875  -0.01388889],,,,,,,,['num_1'],,,,2018_Jul_07_1421,60.0201174991,sequenceLearningTask,001,158,
min1.png,min2.png,min3.png,min4.png,images/allBlank.png,"['num_7', 'num_4', 'num_1', 'num_0']",['num_0'],num_0,[4],'num_0',images/min4.png,"[(0.45, 0.79)]",,,,,0,-1,-1,0,2,2,10,3,,,,,,,,,,,,,"(0.25, 0.04)",images/min3.png,11,0.051772286417,0.515975583228,[-0.6859375 -0.175    ],,,,,,,,['num_0'],,,,2018_Jul_07_1421,60.0201174991,sequenceLearningTask,001,158,
min1.png,min2.png,min3.png,min4.png,images/allBlank.png,"['num_7', 'num_4', 'num_1', 'num_0']",['num_0'],num_0,[4],'num_0',images/min4.png,"[(0.45, 0.79)]",,,,,0,-1,-1,0,2,2,10,3,,,,,,,,,,,,,"(-0.75, 0.04)",images/min1.png,11,0.0554124900373,0.63099789503,[ 0.2140625  -0.11944444],,,,,,,,['num_0'],,,,2018_Jul_07_1421,60.0201174991,sequenceLearningTask,001,158,
min1.png,min2.png,min3.png,min4.png,images/allBlank.png,"['num_7', 'num_4', 'num_1', 'num_0']",['num_0'],num_0,[4],'num_0',images/min4.png,"[(0.45, 0.79)]",,,,,0,-1,-1,0,2,2,10,3,,,,,,,,,,,,,"(0.25, 0.04)",images/min3.png,11,0.0538986445172,0.532773114741,[-0.6125     -0.14166667],,,,,,,,['num_0'],,,,2018_Jul_07_1421,60.0201174991,sequenceLearningTask,001,158,
min1.png,min2.png,min3.png,min4.png,images/allBlank.png,"['num_7', 'num_4', 'num_1', 'num_0']",['num_0'],num_0,[4],'num_0',images/min4.png,"[(0.45, 0.79)]",,,,,0,-1,-1,0,2,2,10,3,,,,,,,,,,,,,"(-0.25, 0.04)",images/min2.png,11,0.053138850024,0.670003827661,[ 0.3203125  -0.04166667],,,,,,,,['num_0'],,,,2018_Jul_07_1421,60.0201174991,sequenceLearningTask,001,158,
min1.png,min2.png,min3.png,min4.png,images/allBlank.png,"['num_7', 'num_4', 'num_1', 'num_0']",['num_4'],num_4,[2],'num_4',images/min2.png,"[(0.45, 0.79)]",,,,,0,-1,-1,0,2,3,11,1,,,,,,,,,,,,,"(-0.75, 0.04)",images/min1.png,12,0.0427839824697,0.675833158544,[-0.1609375  -0.08055556],,,,,,,,['num_4'],,,,2018_Jul_07_1421,60.0201174991,sequenceLearningTask,001,158,
min1.png,min2.png,min3.png,min4.png,images/allBlank.png,"['num_7', 'num_4', 'num_1', 'num_0']",['num_4'],num_4,[2],'num_4',images/min2.png,"[(0.45, 0.79)]",,,,,0,-1,-1,0,2,3,11,1,,,,,,,,,,,,,"(0.25, 0.04)",images/min3.png,12,0.0587622321909,0.694844432874,[-0.778125   -0.19722222],,,,,,,,['num_4'],,,,2018_Jul_07_1421,60.0201174991,sequenceLearningTask,001,158,
min1.png,min2.png,min3.png,min4.png,images/allBlank.png,"['num_7', 'num_4', 'num_1', 'num_0']",['num_4'],num_4,[2],'num_4',images/min2.png,"[(0.45, 0.79)]",,,,,0,-1,-1,0,2,3,11,1,,,,,,,,,,,,,"(-0.75, 0.04)",images/min1.png,12,0.0615142311435,0.725710881758,[ 0.35625    -0.10277778],,,,,,,,['num_4'],,,,2018_Jul_07_1421,60.0201174991,sequenceLearningTask,001,158,
min1.png,min2.png,min3.png,min4.png,images/allBlank.png,"['num_7', 'num_4', 'num_1', 'num_0']",['num_4'],num_4,[2],'num_4',images/min2.png,"[(0.45, 0.79)]",,,,,0,-1,-1,0,2,3,11,1,,,,,,,,,,,,,"(-0.25, 0.04)",images/min2.png,12,0.0443249049131,0.558854745119,[-0.7984375  -0.01944444],,,,,,,,['num_4'],,,,2018_Jul_07_1421,60.0201174991,sequenceLearningTask,001,158,
min1.png,min2.png,min3.png,min4.png,images/allBlank.png,"['num_7', 'num_4', 'num_1', 'num_0']",['num_1'],num_1,[3],'num_1',images/min3.png,"[(0.45, 0.79)]",,,,,0,-1,-1,0,3,0,12,2,,,,,,,,,,,,,"(0.25, 0.04)",images/min3.png,13,0.0543831571704,0.480655392515,[-0.3171875  -0.09722222],,,,,,,,['num_1'],,,,2018_Jul_07_1421,60.0201174991,sequenceLearningTask,001,158,
min1.png,min2.png,min3.png,min4.png,images/allBlank.png,"['num_7', 'num_4', 'num_1', 'num_0']",['num_1'],num_1,[3],'num_1',images/min3.png,"[(0.45, 0.79)]",,,,,0,-1,-1,0,3,0,12,2,,,,,,,,,,,,,"(-0.25, 0.04)",images/min2.png,13,0.0532680806937,0.532408396946,[ 0.2859375  -0.09722222],,,,,,,,['num_1'],,,,2018_Jul_07_1421,60.0201174991,sequenceLearningTask,001,158,
min1.png,min2.png,min3.png,min4.png,images/allBlank.png,"['num_7', 'num_4', 'num_1', 'num_0']",['num_1'],num_1,[3],'num_1',images/min3.png,"[(0.45, 0.79)]",,,,,0,-1,-1,0,3,0,12,2,,,,,,,,,,,,,"(0.75, 0.04)",images/min4.png,13,0.0586313605309,0.544147469103,[-0.1828125  -0.00833333],,,,,,,,['num_1'],,,,2018_Jul_07_1421,60.0201174991,sequenceLearningTask,001,158,
min1.png,min2.png,min3.png,min4.png,images/allBlank.png,"['num_7', 'num_4', 'num_1', 'num_0']",['num_1'],num_1,[3],'num_1',images/min3.png,"[(0.45, 0.79)]",,,,,0,-1,-1,0,3,0,12,2,,,,,,,,,,,,,"(0.25, 0.04)",images/min3.png,13,0.0459015195956,0.540867880569,[ 0.7109375  -0.25277778],,,,,,,,['num_1'],,,,2018_Jul_07_1421,60.0201174991,sequenceLearningTask,001,158,
min1.png,min2.png,min3.png,min4.png,images/allBlank.png,"['num_7', 'num_4', 'num_1', 'num_0']",['num_4'],num_4,[2],'num_4',images/min2.png,"[(0.45, 0.79)]",,,,,0,-1,-1,0,3,1,13,1,,,,,,,,,,,,,"(0.75, 0.04)",images/min4.png,14,0.0506851073587,0.650300040958,[ 0.4390625   0.00277778],,,,,,,,['num_4'],,,,2018_Jul_07_1421,60.0201174991,sequenceLearningTask,001,158,
min1.png,min2.png,min3.png,min4.png,images/allBlank.png,"['num_7', 'num_4', 'num_1', 'num_0']",['num_4'],num_4,[2],'num_4',images/min2.png,"[(0.45, 0.79)]",,,,,0,-1,-1,0,3,1,13,1,,,,,,,,,,,,,"(-0.25, 0.04)",images/min2.png,14,0.0552840798628,0.513788507204,[ 0.9203125  -0.13611111],,,,,,,,['num_4'],,,,2018_Jul_07_1421,60.0201174991,sequenceLearningTask,001,158,
min1.png,min2.png,min3.png,min4.png,images/allBlank.png,"['num_7', 'num_4', 'num_1', 'num_0']",['num_4'],num_4,[2],'num_4',images/min2.png,"[(0.45, 0.79)]",,,,,0,-1,-1,0,3,1,13,1,,,,,,,,,,,,,"(-0.75, 0.04)",images/min1.png,14,0.0570818227716,0.662384548807,[-0.1734375  -0.08611111],,,,,,,,['num_4'],,,,2018_Jul_07_1421,60.0201174991,sequenceLearningTask,001,158,
min1.png,min2.png,min3.png,min4.png,images/allBlank.png,"['num_7', 'num_4', 'num_1', 'num_0']",['num_4'],num_4,[2],'num_4',images/min2.png,"[(0.45, 0.79)]",,,,,0,-1,-1,0,3,1,13,1,,,,,,,,,,,,,"(0.75, 0.04)",images/min4.png,14,0.0529899268877,0.650301271584,[-0.7359375   0.08611111],,,,,,,,['num_4'],,,,2018_Jul_07_1421,60.0201174991,sequenceLearningTask,001,158,
min1.png,min2.png,min3.png,min4.png,images/allBlank.png,"['num_7', 'num_4', 'num_1', 'num_0']",['num_0'],num_0,[4],'num_0',images/min4.png,"[(0.45, 0.79)]",,,,,0,-1,-1,0,3,2,14,3,,,,,,,,,,,,,"(0.75, 0.04)",images/min4.png,15,0.0549788492499,0.512621328118,[ 0.6265625  -0.10555556],,,,,,,,['num_0'],,,,2018_Jul_07_1421,60.0201174991,sequenceLearningTask,001,158,
min1.png,min2.png,min3.png,min4.png,images/allBlank.png,"['num_7', 'num_4', 'num_1', 'num_0']",['num_0'],num_0,[4],'num_0',images/min4.png,"[(0.45, 0.79)]",,,,,0,-1,-1,0,3,2,14,3,,,,,,,,,,,,,"(0.25, 0.04)",images/min3.png,15,0.0447368021123,0.625163640943,[ 0.6796875  -0.07222222],,,,,,,,['num_0'],,,,2018_Jul_07_1421,60.0201174991,sequenceLearningTask,001,158,
min1.png,min2.png,min3.png,min4.png,images/allBlank.png,"['num_7', 'num_4', 'num_1', 'num_0']",['num_0'],num_0,[4],'num_0',images/min4.png,"[(0.45, 0.79)]",,,,,0,-1,-1,0,3,2,14,3,,,,,,,,,,,,,"(0.25, 0.04)",images/min3.png,15,0.0476040829672,0.572955252137,[ 0.278125   -0.03055556],,,,,,,,['num_0'],,,,2018_Jul_07_1421,60.0201174991,sequenceLearningTask,001,158,
min1.png,min2.png,min3.png,min4.png,images/allBlank.png,"['num_7', 'num_4', 'num_1', 'num_0']",['num_0'],num_0,[4],'num_0',images/min4.png,"[(0.45, 0.79)]",,,,,0,-1,-1,0,3,2,14,3,,,,,,,,,,,,,"(0.75, 0.04)",images/min4.png,15,0.0603113599354,0.592885090155,[ 0.1796875 -0.075    ],,,,,,,,['num_0'],,,,2018_Jul_07_1421,60.0201174991,sequenceLearningTask,001,158,
min1.png,min2.png,min3.png,min4.png,images/allBlank.png,"['num_7', 'num_4', 'num_1', 'num_0']",['num_7'],num_7,[1],'num_7',images/min1.png,"[(0.45, 0.79)]",,,,,0,-1,-1,0,3,3,15,0,,,,,,,,,,,,,"(0.75, 0.04)",images/min4.png,16,0.0530900295125,0.481083289837,[ 0.7328125 -0.175    ],,,,,,,,['num_7'],,,,2018_Jul_07_1421,60.0201174991,sequenceLearningTask,001,158,
min1.png,min2.png,min3.png,min4.png,images/allBlank.png,"['num_7', 'num_4', 'num_1', 'num_0']",['num_7'],num_7,[1],'num_7',images/min1.png,"[(0.45, 0.79)]",,,,,0,-1,-1,0,3,3,15,0,,,,,,,,,,,,,"(-0.75, 0.04)",images/min1.png,16,0.0578912583878,0.681167310337,[ 0.7640625  -0.19166667],,,,,,,,['num_7'],,,,2018_Jul_07_1421,60.0201174991,sequenceLearningTask,001,158,
min1.png,min2.png,min3.png,min4.png,images/allBlank.png,"['num_7', 'num_4', 'num_1', 'num_0']",['num_7'],num_7,[1],'num_7',images/min1.png,"[(0.45, 0.79)]",,,,,0,-1,-1,0,3,3,15,0,,,,,,,,,,,,,"(0.75, 0.04)",images/min4.png,16,0.047654954833,0.539381522336,[-0.7375     -0.06388889],,,,,,,,['num_7'],,,,2018_Jul_07_1421,60.0201174991,sequenceLearningTask,001,158,
min1.png,min2.png,min3.png,min4.png,images/allBlank.png,"['num_7', 'num_4', 'num_1', 'num_0']",['num_7'],num_7,[1],'num_7',images/min1.png,"[(0.45, 0.79)]",,,,,0,-1,-1,0,3,3,15,0,,,,,,,,,,,,,"(0.75, 0.04)",images/min4.png,16,0.053757516318,0.633018406923,[ 0.709375   -0.20833333],,,,,,,,['num_7'],,,,2018_Jul_07_1421,60.0201174991,sequenceLearningTask,001,158,
min1.png,min2.png,min3.png,min4.png,images/allBlank.png,"['num_7', 'num_4', 'num_1', 'num_0']",['num_7'],num_7,[1],'num_7',images/min1.png,"[(0.45, 0.79)]",,,,,0,-1,-1,0,4,0,16,0,,,,,,,,,,,,,"(0.25, 0.04)",images/min3.png,17,0.0514801840764,0.566652075155,[ 0.7765625  -0.14444444],,,,,,,,['num_7'],,,,2018_Jul_07_1421,60.0201174991,sequenceLearningTask,001,158,
min1.png,min2.png,min3.png,min4.png,images/allBlank.png,"['num_7', 'num_4', 'num_1', 'num_0']",['num_7'],num_7,[1],'num_7',images/min1.png,"[(0.45, 0.79)]",,,,,0,-1,-1,0,4,0,16,0,,,,,,,,,,,,,"(0.25, 0.04)",images/min3.png,17,0.054815977579,0.446484329645,[ 0.1859375  -0.14166667],,,,,,,,['num_7'],,,,2018_Jul_07_1421,60.0201174991,sequenceLearningTask,001,158,
min1.png,min2.png,min3.png,min4.png,images/allBlank.png,"['num_7', 'num_4', 'num_1', 'num_0']",['num_7'],num_7,[1],'num_7',images/min1.png,"[(0.45, 0.79)]",,,,,0,-1,-1,0,4,0,16,0,,,,,,,,,,,,,"(0.25, 0.04)",images/min3.png,17,0.0642079736572,0.48769374867,[ 0.2125     -0.08888889],,,,,,,,['num_7'],,,,2018_Jul_07_1421,60.0201174991,sequenceLearningTask,001,158,
min1.png,min2.png,min3.png,min4.png,images/allBlank.png,"['num_7', 'num_4', 'num_1', 'num_0']",['num_7'],num_7,[1],'num_7',images/min1.png,"[(0.45, 0.79)]",,,,,0,-1,-1,0,4,0,16,0,,,,,,,,,,,,,"(0.75, 0.04)",images/min4.png,17,0.0566662331112,0.546799775679,[ 0.253125   -0.11944444],,,,,,,,['num_7'],,,,2018_Jul_07_1421,60.0201174991,sequenceLearningTask,001,158,
min1.png,min2.png,min3.png,min4.png,images/allBlank.png,"['num_7', 'num_4', 'num_1', 'num_0']",['num_1'],num_1,[3],'num_1',images/min3.png,"[(0.45, 0.79)]",,,,,0,-1,-1,0,4,1,17,2,,,,,,,,,,,,,"(-0.75, 0.04)",images/min1.png,18,0.0486990569625,0.720532627543,[ 0.7640625   0.00555556],,,,,,,,['num_1'],,,,2018_Jul_07_1421,60.0201174991,sequenceLearningTask,001,158,
min1.png,min2.png,min3.png,min4.png,images/allBlank.png,"['num_7', 'num_4', 'num_1', 'num_0']",['num_1'],num_1,[3],'num_1',images/min3.png,"[(0.45, 0.79)]",,,,,0,-1,-1,0,4,1,17,2,,,,,,,,,,,,,"(-0.25, 0.04)",images/min2.png,18,0.0409255216364,0.563039358822,[-0.8609375  -0.09444444],,,,,,,,['num_1'],,,,2018_Jul_07_1421,60.0201174991,sequenceLearningTask,001,158,
min1.png,min2.png,min3.png,min4.png,images/allBlank.png,"['num_7', 'num_4', 'num_1', 'num_0']",['num_1'],num_1,[3],'num_1',images/min3.png,"[(0.45, 0.79)]",,,,,0,-1,-1,0,4,1,17,2,,,,,,,,,,,,,"(0.25, 0.04)",images/min3.png,18,0.0584647965152,0.444152843324,[-0.3609375  -0.11944444],,,,,,,,['num_1'],,,,2018_Jul_07_1421,60.0201174991,sequenceLearningTask,001,158,
min1.png,min2.png,min3.png,min4.png,images/allBlank.png,"['num_7', 'num_4', 'num_1', 'num_0']",['num_1'],num_1,[3],'num_1',images/min3.png,"[(0.45, 0.79)]",,,,,0,-1,-1,0,4,1,17,2,,,,,,,,,,,,,"(0.25, 0.04)",images/min3.png,18,0.0621509487974,0.507115279092,[ 0.2625     -0.01388889],,,,,,,,['num_1'],,,,2018_Jul_07_1421,60.0201174991,sequenceLearningTask,001,158,
min1.png,min2.png,min3.png,min4.png,images/allBlank.png,"['num_7', 'num_4', 'num_1', 'num_0']",['num_4'],num_4,[2],'num_4',images/min2.png,"[(0.45, 0.79)]",,,,,0,-1,-1,0,4,2,18,1,,,,,,,,,,,,,"(0.25, 0.04)",images/min3.png,19,0.054488593014,0.496911385795,[ 0.228125   -0.05833333],,,,,,,,['num_4'],,,,2018_Jul_07_1421,60.0201174991,sequenceLearningTask,001,158,
min1.png,min2.png,min3.png,min4.png,images/allBlank.png,"['num_7', 'num_4', 'num_1', 'num_0']",['num_4'],num_4,[2],'num_4',images/min2.png,"[(0.45, 0.79)]",,,,,0,-1,-1,0,4,2,18,1,,,,,,,,,,,,,"(-0.25, 0.04)",images/min2.png,19,0.050450851093,0.636262713349,[ 0.3        -0.04444444],,,,,,,,['num_4'],,,,2018_Jul_07_1421,60.0201174991,sequenceLearningTask,001,158,
min1.png,min2.png,min3.png,min4.png,images/allBlank.png,"['num_7', 'num_4', 'num_1', 'num_0']",['num_4'],num_4,[2],'num_4',images/min2.png,"[(0.45, 0.79)]",,,,,0,-1,-1,0,4,2,18,1,,,,,,,,,,,,,"(0.75, 0.04)",images/min4.png,19,0.0365825491026,0.500040820567,[-0.2703125  -0.06111111],,,,,,,,['num_4'],,,,2018_Jul_07_1421,60.0201174991,sequenceLearningTask,001,158,
min1.png,min2.png,min3.png,min4.png,images/allBlank.png,"['num_7', 'num_4', 'num_1', 'num_0']",['num_4'],num_4,[2],'num_4',images/min2.png,"[(0.45, 0.79)]",,,,,0,-1,-1,0,4,2,18,1,,,,,,,,,,,,,"(0.75, 0.04)",images/min4.png,19,0.0544254134875,0.548231569934,[ 0.7390625  -0.06944444],,,,,,,,['num_4'],,,,2018_Jul_07_1421,60.0201174991,sequenceLearningTask,001,158,
min1.png,min2.png,min3.png,min4.png,images/allBlank.png,"['num_7', 'num_4', 'num_1', 'num_0']",['num_0'],num_0,[4],'num_0',images/min4.png,"[(0.45, 0.79)]",,,,,0,-1,-1,0,4,3,19,3,,,,,,,,,,,,,"(-0.25, 0.04)",images/min2.png,20,0.0258543483214,0.710919092991,[ 0.73125    -0.05833333],,,,,,,,['num_0'],,,,2018_Jul_07_1421,60.0201174991,sequenceLearningTask,001,158,
min1.png,min2.png,min3.png,min4.png,images/allBlank.png,"['num_7', 'num_4', 'num_1', 'num_0']",['num_0'],num_0,[4],'num_0',images/min4.png,"[(0.45, 0.79)]",,,,,0,-1,-1,0,4,3,19,3,,,,,,,,,,,,,"(-0.25, 0.04)",images/min2.png,20,0.0580709505593,0.631111535942,[-0.26875    -0.03888889],,,,,,,,['num_0'],,,,2018_Jul_07_1421,60.0201174991,sequenceLearningTask,001,158,
min1.png,min2.png,min3.png,min4.png,images/allBlank.png,"['num_7', 'num_4', 'num_1', 'num_0']",['num_0'],num_0,[4],'num_0',images/min4.png,"[(0.45, 0.79)]",,,,,0,-1,-1,0,4,3,19,3,,,,,,,,,,,,,"(-0.25, 0.04)",images/min2.png,20,0.0522145426366,0.550825209939,[-0.35625    -0.02777778],,,,,,,,['num_0'],,,,2018_Jul_07_1421,60.0201174991,sequenceLearningTask,001,158,
min1.png,min2.png,min3.png,min4.png,images/allBlank.png,"['num_7', 'num_4', 'num_1', 'num_0']",['num_0'],num_0,[4],'num_0',images/min4.png,"[(0.45, 0.79)]",,,,,0,-1,-1,0,4,3,19,3,,,,,,,,,,,,,"(0.25, 0.04)",images/min3.png,20,0.051595055731,0.601723240339,[-0.265625   -0.13611111],,,,,,,,['num_0'],,,,2018_Jul_07_1421,60.0201174991,sequenceLearningTask,001,158,
min1.png,min2.png,min3.png,min4.png,allBlank.png,"['num_7', 'num_4', 'num_1', 'num_0']",['num_0'],num_0,[4],'num_0',images/min4.png,"[(0.45, 0.79)]",,,,,0,0,0,0,4,3,19,3,,,,,,,,,,,,,"(-0.75, -0.04)",images/min1.png,1,0.0583142325049,0.637644866714,[ 0.1625     -0.09722222],,,,,,,,['num_0'],,,,2018_Jul_07_1421,60.0201174991,sequenceLearningTask,001,158,
min1.png,min2.png,min3.png,min4.png,allBlank.png,"['num_7', 'num_4', 'num_1', 'num_0']",['num_0'],num_0,[4],'num_0',images/min4.png,"[(0.45, 0.79)]",,,,,0,0,0,0,4,3,19,3,,,,,,,,,,,,,"(0.25, -0.04)",images/min3.png,1,0.051634440315,0.384886816493,[-0.7640625  -0.01388889],,,,,,,,['num_0'],,,,2018_Jul_07_1421,60.0201174991,sequenceLearningTask,001,158,
min1.png,min2.png,min3.png,min4.png,allBlank.png,"['num_7', 'num_4', 'num_1', 'num_0']",['num_0'],num_0,[4],'num_0',images/min4.png,"[(0.45, 0.79)]",,,,,0,0,0,0,4,3,19,3,,,,,,,,,,,,,"(-0.25, -0.04)",images/min2.png,1,0.0608229493955,0.492164310883,[ 0.334375   -0.10833333],,,,,,,,['num_0'],,,,2018_Jul_07_1421,60.0201174991,sequenceLearningTask,001,158,
min1.png,min2.png,min3.png,min4.png,allBlank.png,"['num_7', 'num_4', 'num_1', 'num_0']",['num_0'],num_0,[4],'num_0',images/min4.png,"[(0.45, 0.79)]",,,,,0,0,0,0,4,3,19,3,,,,,,,,,,,,,"(0.75, -0.04)",images/min4.png,1,0.0525468502892,0.500763281831,[-0.2515625 -0.075    ],,,,,,,,['num_0'],,,,2018_Jul_07_1421,60.0201174991,sequenceLearningTask,001,158,
min1.png,min2.png,min3.png,min4.png,allBlank.png,"['num_7', 'num_4', 'num_1', 'num_0']",['num_0'],num_0,[4],'num_0',images/min4.png,"[(0.45, 0.79)]",,,,,0,0,0,0,4,3,19,3,,,,,,,,,,,,,"(0.75, -0.04)",images/min4.png,1,0.0572118740529,0.512781738304,[ 0.7828125  -0.01111111],,,,,,,,['num_0'],,,,2018_Jul_07_1421,60.0201174991,sequenceLearningTask,001,158,
min1.png,min2.png,min3.png,min4.png,allBlank.png,"['num_7', 'num_4', 'num_1', 'num_0']",['num_0'],num_0,[4],'num_0',images/min4.png,"[(0.45, 0.79)]",,,,,0,0,0,0,4,3,19,3,,,,,,,,,,,,,"(-0.25, -0.04)",images/min2.png,1,0.0571901303483,0.5964448835,[ 0.6484375  -0.26666667],,,,,,,,['num_0'],,,,2018_Jul_07_1421,60.0201174991,sequenceLearningTask,001,158,
min1.png,min2.png,min3.png,min4.png,allBlank.png,"['num_7', 'num_4', 'num_1', 'num_0']",['num_0'],num_0,[4],'num_0',images/min4.png,"[(0.45, 0.79)]",,,,,0,0,0,0,4,3,19,3,,,,,,,,,,,,,"(0.25, -0.04)",images/min3.png,1,0.0526309526758,0.485342159867,[-0.2109375  -0.19166667],,,,,,,,['num_0'],,,,2018_Jul_07_1421,60.0201174991,sequenceLearningTask,001,158,
min1.png,min2.png,min3.png,min4.png,allBlank.png,"['num_7', 'num_4', 'num_1', 'num_0']",['num_0'],num_0,[4],'num_0',images/min4.png,"[(0.45, 0.79)]",,,,,0,0,0,0,4,3,19,3,,,,,,,,,,,,,"(0.75, -0.04)",images/min4.png,1,0.0508914663224,0.439357358264,[ 0.3171875  -0.15833333],,,,,,,,['num_0'],,,,2018_Jul_07_1421,60.0201174991,sequenceLearningTask,001,158,
min1.png,min2.png,min3.png,min4.png,allBlank.png,"['num_7', 'num_4', 'num_1', 'num_0']",['num_0'],num_0,[4],'num_0',images/min4.png,"[(0.45, 0.79)]",,,,,0,1,1,1,4,3,19,3,,,,,,,,,,,,,"(-0.75, -0.04)",images/min1.png,2,0.0488885953091,0.669715417549,[ 0.7078125  -0.18055556],,,,,,,,['num_0'],,,,2018_Jul_07_1421,60.0201174991,sequenceLearningTask,001,158,
min1.png,min2.png,min3.png,min4.png,allBlank.png,"['num_7', 'num_4', 'num_1', 'num_0']",['num_0'],num_0,[4],'num_0',images/min4.png,"[(0.45, 0.79)]",,,,,0,1,1,1,4,3,19,3,,,,,,,,,,,,,"(0.25, -0.04)",images/min3.png,2,0.0544914648635,0.532700909651,[-0.8359375  -0.14722222],,,,,,,,['num_0'],,,,2018_Jul_07_1421,60.0201174991,sequenceLearningTask,001,158,
min1.png,min2.png,min3.png,min4.png,allBlank.png,"['num_7', 'num_4', 'num_1', 'num_0']",['num_0'],num_0,[4],'num_0',images/min4.png,"[(0.45, 0.79)]",,,,,0,1,1,1,4,3,19,3,,,,,,,,,,,,,"(-0.25, -0.04)",images/min2.png,2,0.0514879788971,0.618751335889,[ 0.2953125   0.06111111],,,,,,,,['num_0'],,,,2018_Jul_07_1421,60.0201174991,sequenceLearningTask,001,158,
min1.png,min2.png,min3.png,min4.png,allBlank.png,"['num_7', 'num_4', 'num_1', 'num_0']",['num_0'],num_0,[4],'num_0',images/min4.png,"[(0.45, 0.79)]",,,,,0,1,1,1,4,3,19,3,,,,,,,,,,,,,"(0.75, -0.04)",images/min4.png,2,0.0548643877264,0.483820109279,[-0.2078125   0.05277778],,,,,,,,['num_0'],,,,2018_Jul_07_1421,60.0201174991,sequenceLearningTask,001,158,
min1.png,min2.png,min3.png,min4.png,allBlank.png,"['num_7', 'num_4', 'num_1', 'num_0']",['num_0'],num_0,[4],'num_0',images/min4.png,"[(0.45, 0.79)]",,,,,0,1,1,1,4,3,19,3,,,,,,,,,,,,,"(0.75, -0.04)",images/min4.png,2,0.057128181681,0.563158743316,[ 0.6359375 -0.075    ],,,,,,,,['num_0'],,,,2018_Jul_07_1421,60.0201174991,sequenceLearningTask,001,158,
min1.png,min2.png,min3.png,min4.png,allBlank.png,"['num_7', 'num_4', 'num_1', 'num_0']",['num_0'],num_0,[4],'num_0',images/min4.png,"[(0.45, 0.79)]",,,,,0,1,1,1,4,3,19,3,,,,,,,,,,,,,"(-0.25, -0.04)",images/min2.png,2,0.0601456162985,1.29816972383,[ 0.8984375  -0.11388889],0.660991728888,1,,,,,,['num_0'],,,,2018_Jul_07_1421,60.0201174991,sequenceLearningTask,001,158,
min1.png,min2.png,min3.png,min4.png,allBlank.png,"['num_7', 'num_4', 'num_1', 'num_0']",['num_0'],num_0,[4],'num_0',images/min4.png,"[(0.45, 0.79)]",,,,,0,1,1,1,4,3,19,3,,,,,,,,,,,,,"(0.25, -0.04)",images/min3.png,2,0.044051263947,0.62717553752,[-0.2890625  -0.21944444],,,,,,,,['num_0'],,,,2018_Jul_07_1421,60.0201174991,sequenceLearningTask,001,158,
min1.png,min2.png,min3.png,min4.png,allBlank.png,"['num_7', 'num_4', 'num_1', 'num_0']",['num_0'],num_0,[4],'num_0',images/min4.png,"[(0.45, 0.79)]",,,,,0,1,1,1,4,3,19,3,,,,,,,,,,,,,"(0.75, -0.04)",images/min4.png,2,0.0486658262089,0.504571690457,[ 0.2578125  -0.07222222],,,,,,,,['num_0'],,,,2018_Jul_07_1421,60.0201174991,sequenceLearningTask,001,158,
min1.png,min2.png,min3.png,min4.png,allBlank.png,"['num_7', 'num_4', 'num_1', 'num_0']",['num_0'],num_0,[4],'num_0',images/min4.png,"[(0.45, 0.79)]",,,,,0,2,2,2,4,3,19,3,,,,,,,,,,,,,"(-0.75, -0.04)",images/min1.png,3,0.046024596435,0.639466404333,[ 0.6875     -0.11666667],,,,,,,,['num_0'],,,,2018_Jul_07_1421,60.0201174991,sequenceLearningTask,001,158,
min1.png,min2.png,min3.png,min4.png,allBlank.png,"['num_7', 'num_4', 'num_1', 'num_0']",['num_0'],num_0,[4],'num_0',images/min4.png,"[(0.45, 0.79)]",,,,,0,2,2,2,4,3,19,3,,,,,,,,,,,,,"(0.25, -0.04)",images/min3.png,3,0.0547331057023,0.565575973131,[-0.7046875  -0.13611111],,,,,,,,['num_0'],,,,2018_Jul_07_1421,60.0201174991,sequenceLearningTask,001,158,
min1.png,min2.png,min3.png,min4.png,allBlank.png,"['num_7', 'num_4', 'num_1', 'num_0']",['num_0'],num_0,[4],'num_0',images/min4.png,"[(0.45, 0.79)]",,,,,0,2,2,2,4,3,19,3,,,,,,,,,,,,,"(-0.25, -0.04)",images/min2.png,3,0.0553164901212,0.56486992212,[ 0.1734375   0.07222222],,,,,,,,['num_0'],,,,2018_Jul_07_1421,60.0201174991,sequenceLearningTask,001,158,
min1.png,min2.png,min3.png,min4.png,allBlank.png,"['num_7', 'num_4', 'num_1', 'num_0']",['num_0'],num_0,[4],'num_0',images/min4.png,"[(0.45, 0.79)]",,,,,0,2,2,2,4,3,19,3,,,,,,,,,,,,,"(0.75, -0.04)",images/min4.png,3,0.0540746444603,0.565301921917,[-0.1609375  -0.07222222],,,,,,,,['num_0'],,,,2018_Jul_07_1421,60.0201174991,sequenceLearningTask,001,158,
min1.png,min2.png,min3.png,min4.png,allBlank.png,"['num_7', 'num_4', 'num_1', 'num_0']",['num_0'],num_0,[4],'num_0',images/min4.png,"[(0.45, 0.79)]",,,,,0,2,2,2,4,3,19,3,,,,,,,,,,,,,"(0.75, -0.04)",images/min4.png,3,0.0551675671013,0.581434017862,[ 0.64375    -0.11944444],,,,,,,,['num_0'],,,,2018_Jul_07_1421,60.0201174991,sequenceLearningTask,001,158,
min1.png,min2.png,min3.png,min4.png,allBlank.png,"['num_7', 'num_4', 'num_1', 'num_0']",['num_0'],num_0,[4],'num_0',images/min4.png,"[(0.45, 0.79)]",,,,,0,2,2,2,4,3,19,3,,,,,,,,,,,,,"(-0.25, -0.04)",images/min2.png,3,0.051695568487,0.551661722362,[ 0.8203125  -0.89166667],,,,,,,,['num_0'],,,,2018_Jul_07_1421,60.0201174991,sequenceLearningTask,001,158,
min1.png,min2.png,min3.png,min4.png,allBlank.png,"['num_7', 'num_4', 'num_1', 'num_0']",['num_0'],num_0,[4],'num_0',images/min4.png,"[(0.45, 0.79)]",,,,,0,2,2,2,4,3,19,3,,,,,,,,,,,,,"(0.25, -0.04)",images/min3.png,3,0.0495790565619,0.520691068494,[-0.271875   -0.01388889],,,,,,,,['num_0'],,,,2018_Jul_07_1421,60.0201174991,sequenceLearningTask,001,158,
min1.png,min2.png,min3.png,min4.png,allBlank.png,"['num_7', 'num_4', 'num_1', 'num_0']",['num_0'],num_0,[4],'num_0',images/min4.png,"[(0.45, 0.79)]",,,,,0,2,2,2,4,3,19,3,,,,,,,,,,,,,"(0.75, -0.04)",images/min4.png,3,0.0528479784261,0.483884929679,[ 0.2734375   0.05833333],,,,,,,,['num_0'],,,,2018_Jul_07_1421,60.0201174991,sequenceLearningTask,001,158,
min1.png,min2.png,min3.png,min4.png,allBlank.png,"['num_7', 'num_4', 'num_1', 'num_0']",['num_0'],num_0,[4],'num_0',images/min4.png,"[(0.45, 0.79)]",,,,,0,3,3,3,4,3,19,3,,,,,,,,,,,,,"(-0.75, -0.04)",images/min1.png,4,0.0544557726244,1.01594132686,[ 0.6671875  -0.10555556],,,,,,,,['num_0'],,,,2018_Jul_07_1421,60.0201174991,sequenceLearningTask,001,158,
min1.png,min2.png,min3.png,min4.png,allBlank.png,"['num_7', 'num_4', 'num_1', 'num_0']",['num_0'],num_0,[4],'num_0',images/min4.png,"[(0.45, 0.79)]",,,,,0,3,3,3,4,3,19,3,,,,,,,,,,,,,"(0.25, -0.04)",images/min3.png,4,0.061748077278,0.691955818678,[-0.7578125   0.14444444],,,,,,,,['num_0'],,,,2018_Jul_07_1421,60.0201174991,sequenceLearningTask,001,158,
min1.png,min2.png,min3.png,min4.png,allBlank.png,"['num_7', 'num_4', 'num_1', 'num_0']",['num_0'],num_0,[4],'num_0',images/min4.png,"[(0.45, 0.79)]",,,,,0,3,3,3,4,3,19,3,,,,,,,,,,,,,"(-0.25, -0.04)",images/min2.png,4,0.0598506421084,0.661104549305,[ 0.33125    -0.14722222],,,,,,,,['num_0'],,,,2018_Jul_07_1421,60.0201174991,sequenceLearningTask,001,158,
min1.png,min2.png,min3.png,min4.png,allBlank.png,"['num_7', 'num_4', 'num_1', 'num_0']",['num_0'],num_0,[4],'num_0',images/min4.png,"[(0.45, 0.79)]",,,,,0,3,3,3,4,3,19,3,,,,,,,,,,,,,"(0.75, -0.04)",images/min4.png,4,0.065571255167,0.503323690849,[-0.2453125  -0.01944444],,,,,,,,['num_0'],,,,2018_Jul_07_1421,60.0201174991,sequenceLearningTask,001,158,
min1.png,min2.png,min3.png,min4.png,allBlank.png,"['num_7', 'num_4', 'num_1', 'num_0']",['num_0'],num_0,[4],'num_0',images/min4.png,"[(0.45, 0.79)]",,,,,0,3,3,3,4,3,19,3,,,,,,,,,,,,,"(0.75, -0.04)",images/min4.png,4,0.0555326951435,0.665350291179,[ 0.765625   -0.13611111],,,,,,,,['num_0'],,,,2018_Jul_07_1421,60.0201174991,sequenceLearningTask,001,158,
min1.png,min2.png,min3.png,min4.png,allBlank.png,"['num_7', 'num_4', 'num_1', 'num_0']",['num_0'],num_0,[4],'num_0',images/min4.png,"[(0.45, 0.79)]",,,,,0,3,3,3,4,3,19,3,,,,,,,,,,,,,"(-0.25, -0.04)",images/min2.png,4,0.0362502415664,0.517187480116,[ 0.8078125  -0.08611111],,,,,,,,['num_0'],,,,2018_Jul_07_1421,60.0201174991,sequenceLearningTask,001,158,
min1.png,min2.png,min3.png,min4.png,allBlank.png,"['num_7', 'num_4', 'num_1', 'num_0']",['num_0'],num_0,[4],'num_0',images/min4.png,"[(0.45, 0.79)]",,,,,0,3,3,3,4,3,19,3,,,,,,,,,,,,,"(0.25, -0.04)",images/min3.png,4,0.0576122840866,0.479530059732,[-0.3140625  -0.03055556],,,,,,,,['num_0'],,,,2018_Jul_07_1421,60.0201174991,sequenceLearningTask,001,158,
min1.png,min2.png,min3.png,min4.png,allBlank.png,"['num_7', 'num_4', 'num_1', 'num_0']",['num_0'],num_0,[4],'num_0',images/min4.png,"[(0.45, 0.79)]",,,,,0,3,3,3,4,3,19,3,,,,,,,,,,,,,"(0.75, -0.04)",images/min4.png,4,0.046512801433,0.456403505057,[ 0.1578125  0.025    ],,,,,,,,['num_0'],,,,2018_Jul_07_1421,60.0201174991,sequenceLearningTask,001,158,
min1.png,min2.png,min3.png,min4.png,allBlank.png,"['num_7', 'num_4', 'num_1', 'num_0']",['num_0'],num_0,[4],'num_0',images/min4.png,"[(0.45, 0.79)]",,,,,0,4,4,4,4,3,19,3,,,,,,,,,,,,,"(-0.75, -0.04)",images/min1.png,5,0.0609370006714,0.607661699411,[ 0.8046875  -0.21388889],,,,,,,,['num_0'],,,,2018_Jul_07_1421,60.0201174991,sequenceLearningTask,001,158,
min1.png,min2.png,min3.png,min4.png,allBlank.png,"['num_7', 'num_4', 'num_1', 'num_0']",['num_0'],num_0,[4],'num_0',images/min4.png,"[(0.45, 0.79)]",,,,,0,4,4,4,4,3,19,3,,,,,,,,,,,,,"(0.25, -0.04)",images/min3.png,5,0.052220696467,0.517709325999,[-0.8359375  -0.08611111],,,,,,,,['num_0'],,,,2018_Jul_07_1421,60.0201174991,sequenceLearningTask,001,158,
min1.png,min2.png,min3.png,min4.png,allBlank.png,"['num_7', 'num_4', 'num_1', 'num_0']",['num_0'],num_0,[4],'num_0',images/min4.png,"[(0.45, 0.79)]",,,,,0,4,4,4,4,3,19,3,,,,,,,,,,,,,"(-0.25, -0.04)",images/min2.png,5,0.0406547525199,0.580651248922,[ 0.2265625  -0.25555556],,,,,,,,['num_0'],,,,2018_Jul_07_1421,60.0201174991,sequenceLearningTask,001,158,
min1.png,min2.png,min3.png,min4.png,allBlank.png,"['num_7', 'num_4', 'num_1', 'num_0']",['num_0'],num_0,[4],'num_0',images/min4.png,"[(0.45, 0.79)]",,,,,0,4,4,4,4,3,19,3,,,,,,,,,,,,,"(0.75, -0.04)",images/min4.png,5,0.0564914640272,0.429574798094,[-0.2171875   0.05277778],,,,,,,,['num_0'],,,,2018_Jul_07_1421,60.0201174991,sequenceLearningTask,001,158,
min1.png,min2.png,min3.png,min4.png,allBlank.png,"['num_7', 'num_4', 'num_1', 'num_0']",['num_0'],num_0,[4],'num_0',images/min4.png,"[(0.45, 0.79)]",,,,,0,4,4,4,4,3,19,3,,,,,,,,,,,,,"(0.75, -0.04)",images/min4.png,5,0.0592139244545,0.544397315127,[ 0.6859375  -0.02222222],,,,,,,,['num_0'],,,,2018_Jul_07_1421,60.0201174991,sequenceLearningTask,001,158,
min1.png,min2.png,min3.png,min4.png,allBlank.png,"['num_7', 'num_4', 'num_1', 'num_0']",['num_0'],num_0,[4],'num_0',images/min4.png,"[(0.45, 0.79)]",,,,,0,4,4,4,4,3,19,3,,,,,,,,,,,,,"(-0.25, -0.04)",images/min2.png,5,0.0601283855503,0.560144180432,[ 0.696875   -0.13888889],,,,,,,,['num_0'],,,,2018_Jul_07_1421,60.0201174991,sequenceLearningTask,001,158,
min1.png,min2.png,min3.png,min4.png,allBlank.png,"['num_7', 'num_4', 'num_1', 'num_0']",['num_0'],num_0,[4],'num_0',images/min4.png,"[(0.45, 0.79)]",,,,,0,4,4,4,4,3,19,3,,,,,,,,,,,,,"(0.25, -0.04)",images/min3.png,5,0.0544336186722,0.498651282629,[-0.2046875  -0.14722222],,,,,,,,['num_0'],,,,2018_Jul_07_1421,60.0201174991,sequenceLearningTask,001,158,
min1.png,min2.png,min3.png,min4.png,allBlank.png,"['num_7', 'num_4', 'num_1', 'num_0']",['num_0'],num_0,[4],'num_0',images/min4.png,"[(0.45, 0.79)]",,,,,0,4,4,4,4,3,19,3,,,,,,,,,,,,,"(0.75, -0.04)",images/min4.png,5,0.055453515728,0.531020089751,[ 0.2453125  -0.14722222],,,,,,,,['num_0'],,,,2018_Jul_07_1421,60.0201174991,sequenceLearningTask,001,158,
min1.png,min2.png,min3.png,min4.png,allBlank.png,"['num_7', 'num_4', 'num_1', 'num_0']",['num_0'],num_0,[4],'num_0',images/min4.png,"[(0.45, 0.79)]",,,,,0,5,5,5,4,3,19,3,,,,,,,,,,,,,"(-0.75, -0.04)",images/min1.png,6,0.0414190599695,0.578234019224,[ 0.6796875  -0.13888889],,,,,,,,['num_0'],,,,2018_Jul_07_1421,60.0201174991,sequenceLearningTask,001,158,
min1.png,min2.png,min3.png,min4.png,allBlank.png,"['num_7', 'num_4', 'num_1', 'num_0']",['num_0'],num_0,[4],'num_0',images/min4.png,"[(0.45, 0.79)]",,,,,0,5,5,5,4,3,19,3,,,,,,,,,,,,,"(0.25, -0.04)",images/min3.png,6,0.0599043855909,0.409438601346,[-0.7078125  -0.03333333],,,,,,,,['num_0'],,,,2018_Jul_07_1421,60.0201174991,sequenceLearningTask,001,158,
min1.png,min2.png,min3.png,min4.png,allBlank.png,"['num_7', 'num_4', 'num_1', 'num_0']",['num_0'],num_0,[4],'num_0',images/min4.png,"[(0.45, 0.79)]",,,,,0,5,5,5,4,3,19,3,,,,,,,,,,,,,"(-0.25, -0.04)",images/min2.png,6,0.0569722843356,0.496505232179,[ 0.184375   -0.20277778],,,,,,,,['num_0'],,,,2018_Jul_07_1421,60.0201174991,sequenceLearningTask,001,158,
min1.png,min2.png,min3.png,min4.png,allBlank.png,"['num_7', 'num_4', 'num_1', 'num_0']",['num_0'],num_0,[4],'num_0',images/min4.png,"[(0.45, 0.79)]",,,,,0,5,5,5,4,3,19,3,,,,,,,,,,,,,"(0.75, -0.04)",images/min4.png,6,0.052167363232,0.467447192874,[-0.175      -0.16388889],,,,,,,,['num_0'],,,,2018_Jul_07_1421,60.0201174991,sequenceLearningTask,001,158,
min1.png,min2.png,min3.png,min4.png,allBlank.png,"['num_7', 'num_4', 'num_1', 'num_0']",['num_0'],num_0,[4],'num_0',images/min4.png,"[(0.45, 0.79)]",,,,,0,5,5,5,4,3,19,3,,,,,,,,,,,,,"(0.75, -0.04)",images/min4.png,6,0.0567901305621,0.496530257864,[ 0.6828125  -0.10833333],,,,,,,,['num_0'],,,,2018_Jul_07_1421,60.0201174991,sequenceLearningTask,001,158,
min1.png,min2.png,min3.png,min4.png,allBlank.png,"['num_7', 'num_4', 'num_1', 'num_0']",['num_0'],num_0,[4],'num_0',images/min4.png,"[(0.45, 0.79)]",,,,,0,5,5,5,4,3,19,3,,,,,,,,,,,,,"(-0.25, -0.04)",images/min2.png,6,0.0543761828449,0.649513169425,[ 0.8109375  -0.25833333],,,,,,,,['num_0'],,,,2018_Jul_07_1421,60.0201174991,sequenceLearningTask,001,158,
min1.png,min2.png,min3.png,min4.png,allBlank.png,"['num_7', 'num_4', 'num_1', 'num_0']",['num_0'],num_0,[4],'num_0',images/min4.png,"[(0.45, 0.79)]",,,,,0,5,5,5,4,3,19,3,,,,,,,,,,,,,"(0.25, -0.04)",images/min3.png,6,0.0556762848282,0.464102783939,[-0.2875 -0.225 ],,,,,,,,['num_0'],,,,2018_Jul_07_1421,60.0201174991,sequenceLearningTask,001,158,
min1.png,min2.png,min3.png,min4.png,allBlank.png,"['num_7', 'num_4', 'num_1', 'num_0']",['num_0'],num_0,[4],'num_0',images/min4.png,"[(0.45, 0.79)]",,,,,0,5,5,5,4,3,19,3,,,,,,,,,,,,,"(0.75, -0.04)",images/min4.png,6,0.0546096186154,0.515362250153,[ 0.2484375  -0.19166667],,,,,,,,['num_0'],,,,2018_Jul_07_1421,60.0201174991,sequenceLearningTask,001,158,
min1.png,min2.png,min3.png,min4.png,allBlank.png,"['num_7', 'num_4', 'num_1', 'num_0']",['num_0'],num_0,[4],'num_0',images/min4.png,"[(0.45, 0.79)]",,,,,0,6,6,6,4,3,19,3,,,,,,,,,,,,,"(-0.75, -0.04)",images/min1.png,7,0.0550170030911,0.66436485562,[ 0.7640625  -0.09722222],,,,,,,,['num_0'],,,,2018_Jul_07_1421,60.0201174991,sequenceLearningTask,001,158,
min1.png,min2.png,min3.png,min4.png,allBlank.png,"['num_7', 'num_4', 'num_1', 'num_0']",['num_0'],num_0,[4],'num_0',images/min4.png,"[(0.45, 0.79)]",,,,,0,6,6,6,4,3,19,3,,,,,,,,,,,,,"(0.25, -0.04)",images/min3.png,7,0.0533189525595,0.600432163919,[-0.775 -0.2  ],,,,,,,,['num_0'],,,,2018_Jul_07_1421,60.0201174991,sequenceLearningTask,001,158,
min1.png,min2.png,min3.png,min4.png,allBlank.png,"['num_7', 'num_4', 'num_1', 'num_0']",['num_0'],num_0,[4],'num_0',images/min4.png,"[(0.45, 0.79)]",,,,,0,6,6,6,4,3,19,3,,,,,,,,,,,,,"(-0.25, -0.04)",images/min2.png,7,0.0522633631481,0.702126070857,[ 0.290625   -0.01944444],,,,,,,,['num_0'],,,,2018_Jul_07_1421,60.0201174991,sequenceLearningTask,001,158,
min1.png,min2.png,min3.png,min4.png,allBlank.png,"['num_7', 'num_4', 'num_1', 'num_0']",['num_0'],num_0,[4],'num_0',images/min4.png,"[(0.45, 0.79)]",,,,,0,6,6,6,4,3,19,3,,,,,,,,,,,,,"(0.75, -0.04)",images/min4.png,7,0.0635257174727,0.506245946162,[-0.15625    -0.14166667],,,,,,,,['num_0'],,,,2018_Jul_07_1421,60.0201174991,sequenceLearningTask,001,158,
min1.png,min2.png,min3.png,min4.png,allBlank.png,"['num_7', 'num_4', 'num_1', 'num_0']",['num_0'],num_0,[4],'num_0',images/min4.png,"[(0.45, 0.79)]",,,,,0,6,6,6,4,3,19,3,,,,,,,,,,,,,"(0.75, -0.04)",images/min4.png,7,0.058494334924,0.712097348878,[ 0.69375    -0.13055556],,,,,,,,['num_0'],,,,2018_Jul_07_1421,60.0201174991,sequenceLearningTask,001,158,
min1.png,min2.png,min3.png,min4.png,allBlank.png,"['num_7', 'num_4', 'num_1', 'num_0']",['num_0'],num_0,[4],'num_0',images/min4.png,"[(0.45, 0.79)]",,,,,0,6,6,6,4,3,19,3,,,,,,,,,,,,,"(-0.25, -0.04)",images/min2.png,7,0.04898377473,0.672408339567,[ 0.7640625  -0.05277778],,,,,,,,['num_0'],,,,2018_Jul_07_1421,60.0201174991,sequenceLearningTask,001,158,
min1.png,min2.png,min3.png,min4.png,allBlank.png,"['num_7', 'num_4', 'num_1', 'num_0']",['num_0'],num_0,[4],'num_0',images/min4.png,"[(0.45, 0.79)]",,,,,0,6,6,6,4,3,19,3,,,,,,,,,,,,,"(0.25, -0.04)",images/min3.png,7,0.0551540286979,0.615358926938,[-0.3421875  -0.04722222],,,,,,,,['num_0'],,,,2018_Jul_07_1421,60.0201174991,sequenceLearningTask,001,158,
min1.png,min2.png,min3.png,min4.png,allBlank.png,"['num_7', 'num_4', 'num_1', 'num_0']",['num_0'],num_0,[4],'num_0',images/min4.png,"[(0.45, 0.79)]",,,,,0,6,6,6,4,3,19,3,,,,,,,,,,,,,"(0.75, -0.04)",images/min4.png,7,0.055712797679,0.464054783923,[ 0.1828125  -0.16388889],,,,,,,,['num_0'],,,,2018_Jul_07_1421,60.0201174991,sequenceLearningTask,001,158,
min1.png,min2.png,min3.png,min4.png,allBlank.png,"['num_7', 'num_4', 'num_1', 'num_0']",['num_0'],num_0,[4],'num_0',images/min4.png,"[(0.45, 0.79)]",,,,,0,7,7,7,4,3,19,3,,,,,,,,,,,,,"(-0.75, -0.04)",images/min1.png,8,0.0520816197386,0.767664095387,[ 0.6984375  -0.10277778],,,,,,,,['num_0'],,,,2018_Jul_07_1421,60.0201174991,sequenceLearningTask,001,158,
min1.png,min2.png,min3.png,min4.png,allBlank.png,"['num_7', 'num_4', 'num_1', 'num_0']",['num_0'],num_0,[4],'num_0',images/min4.png,"[(0.45, 0.79)]",,,,,0,7,7,7,4,3,19,3,,,,,,,,,,,,,"(0.25, -0.04)",images/min3.png,8,0.0545817211969,0.532469525235,[-0.853125  0.075   ],,,,,,,,['num_0'],,,,2018_Jul_07_1421,60.0201174991,sequenceLearningTask,001,158,
min1.png,min2.png,min3.png,min4.png,allBlank.png,"['num_7', 'num_4', 'num_1', 'num_0']",['num_0'],num_0,[4],'num_0',images/min4.png,"[(0.45, 0.79)]",,,,,0,7,7,7,4,3,19,3,,,,,,,,,,,,,"(-0.25, -0.04)",images/min2.png,8,0.0536537215812,0.533482037485,[ 0.2296875  -0.03055556],,,,,,,,['num_0'],,,,2018_Jul_07_1421,60.0201174991,sequenceLearningTask,001,158,
min1.png,min2.png,min3.png,min4.png,allBlank.png,"['num_7', 'num_4', 'num_1', 'num_0']",['num_0'],num_0,[4],'num_0',images/min4.png,"[(0.45, 0.79)]",,,,,0,7,7,7,4,3,19,3,,,,,,,,,,,,,"(0.75, -0.04)",images/min4.png,8,0.0410785472486,0.445892740157,[-0.2703125  -0.10833333],,,,,,,,['num_0'],,,,2018_Jul_07_1421,60.0201174991,sequenceLearningTask,001,158,
min1.png,min2.png,min3.png,min4.png,allBlank.png,"['num_7', 'num_4', 'num_1', 'num_0']",['num_0'],num_0,[4],'num_0',images/min4.png,"[(0.45, 0.79)]",,,,,0,7,7,7,4,3,19,3,,,,,,,,,,,,,"(0.75, -0.04)",images/min4.png,8,0.0418289059307,0.528841219028,[ 0.6390625 -0.025    ],,,,,,,,['num_0'],,,,2018_Jul_07_1421,60.0201174991,sequenceLearningTask,001,158,
min1.png,min2.png,min3.png,min4.png,allBlank.png,"['num_7', 'num_4', 'num_1', 'num_0']",['num_0'],num_0,[4],'num_0',images/min4.png,"[(0.45, 0.79)]",,,,,0,7,7,7,4,3,19,3,,,,,,,,,,,,,"(-0.25, -0.04)",images/min2.png,8,0.0497809025692,0.619594822754,[ 0.790625   -0.01111111],,,,,,,,['num_0'],,,,2018_Jul_07_1421,60.0201174991,sequenceLearningTask,001,158,
min1.png,min2.png,min3.png,min4.png,allBlank.png,"['num_7', 'num_4', 'num_1', 'num_0']",['num_0'],num_0,[4],'num_0',images/min4.png,"[(0.45, 0.79)]",,,,,0,7,7,7,4,3,19,3,,,,,,,,,,,,,"(0.25, -0.04)",images/min3.png,8,0.0265041942475,0.561317102984,[-0.35625     0.05277778],,,,,,,,['num_0'],,,,2018_Jul_07_1421,60.0201174991,sequenceLearningTask,001,158,
min1.png,min2.png,min3.png,min4.png,allBlank.png,"['num_7', 'num_4', 'num_1', 'num_0']",['num_0'],num_0,[4],'num_0',images/min4.png,"[(0.45, 0.79)]",,,,,0,7,7,7,4,3,19,3,,,,,,,,,,,,,"(0.75, -0.04)",images/min4.png,8,0.0459573144326,0.5735509441,[ 0.215625   -0.11388889],,,,,,,,['num_0'],,,,2018_Jul_07_1421,60.0201174991,sequenceLearningTask,001,158,
min1.png,min2.png,min3.png,min4.png,allBlank.png,"['num_7', 'num_4', 'num_1', 'num_0']",['num_0'],num_0,[4],'num_0',images/min4.png,"[(0.45, 0.79)]",,,,,0,8,8,8,4,3,19,3,,,,,,,,,,,,,"(-0.75, -0.04)",images/min1.png,9,0.0468803909607,0.705651402823,[ 0.690625   -0.09722222],,,,,,,,['num_0'],,,,2018_Jul_07_1421,60.0201174991,sequenceLearningTask,001,158,
min1.png,min2.png,min3.png,min4.png,allBlank.png,"['num_7', 'num_4', 'num_1', 'num_0']",['num_0'],num_0,[4],'num_0',images/min4.png,"[(0.45, 0.79)]",,,,,0,8,8,8,4,3,19,3,,,,,,,,,,,,,"(0.25, -0.04)",images/min3.png,9,0.054552182788,0.649824553868,[-0.775 -0.075],,,,,,,,['num_0'],,,,2018_Jul_07_1421,60.0201174991,sequenceLearningTask,001,158,
min1.png,min2.png,min3.png,min4.png,allBlank.png,"['num_7', 'num_4', 'num_1', 'num_0']",['num_0'],num_0,[4],'num_0',images/min4.png,"[(0.45, 0.79)]",,,,,0,8,8,8,4,3,19,3,,,,,,,,,,,,,"(-0.25, -0.04)",images/min2.png,9,0.0508245945675,0.635915636551,[ 0.2203125  0.       ],,,,,,,,['num_0'],,,,2018_Jul_07_1421,60.0201174991,sequenceLearningTask,001,158,
min1.png,min2.png,min3.png,min4.png,allBlank.png,"['num_7', 'num_4', 'num_1', 'num_0']",['num_0'],num_0,[4],'num_0',images/min4.png,"[(0.45, 0.79)]",,,,,0,8,8,8,4,3,19,3,,,,,,,,,,,,,"(0.75, -0.04)",images/min4.png,9,0.0577501301887,0.528799372725,[-0.1828125  0.025    ],,,,,,,,['num_0'],,,,2018_Jul_07_1421,60.0201174991,sequenceLearningTask,001,158,
min1.png,min2.png,min3.png,min4.png,allBlank.png,"['num_7', 'num_4', 'num_1', 'num_0']",['num_0'],num_0,[4],'num_0',images/min4.png,"[(0.45, 0.79)]",,,,,0,8,8,8,4,3,19,3,,,,,,,,,,,,,"(0.75, -0.04)",images/min4.png,9,0.0584832581226,0.578579454916,[ 0.71875    -0.00277778],,,,,,,,['num_0'],,,,2018_Jul_07_1421,60.0201174991,sequenceLearningTask,001,158,
min1.png,min2.png,min3.png,min4.png,allBlank.png,"['num_7', 'num_4', 'num_1', 'num_0']",['num_0'],num_0,[4],'num_0',images/min4.png,"[(0.45, 0.79)]",,,,,0,8,8,8,4,3,19,3,,,,,,,,,,,,,"(-0.25, -0.04)",images/min2.png,9,0.0551708491985,0.59810765204,[ 0.8796875   0.04444444],,,,,,,,['num_0'],,,,2018_Jul_07_1421,60.0201174991,sequenceLearningTask,001,158,
min1.png,min2.png,min3.png,min4.png,allBlank.png,"['num_7', 'num_4', 'num_1', 'num_0']",['num_0'],num_0,[4],'num_0',images/min4.png,"[(0.45, 0.79)]",,,,,0,8,8,8,4,3,19,3,,,,,,,,,,,,,"(0.25, -0.04)",images/min3.png,9,0.0574695147807,0.663582497044,[-0.2203125 -0.05     ],,,,,,,,['num_0'],,,,2018_Jul_07_1421,60.0201174991,sequenceLearningTask,001,158,
min1.png,min2.png,min3.png,min4.png,allBlank.png,"['num_7', 'num_4', 'num_1', 'num_0']",['num_0'],num_0,[4],'num_0',images/min4.png,"[(0.45, 0.79)]",,,,,0,8,8,8,4,3,19,3,,,,,,,,,,,,,"(0.75, -0.04)",images/min4.png,9,0.0592709500343,0.493588720565,[ 0.2484375 -0.075    ],,,,,,,,['num_0'],,,,2018_Jul_07_1421,60.0201174991,sequenceLearningTask,001,158,
min1.png,min2.png,min3.png,min4.png,allBlank.png,"['num_7', 'num_4', 'num_1', 'num_0']",['num_0'],num_0,[4],'num_0',images/min4.png,"[(0.45, 0.79)]",,,,,0,9,9,9,4,3,19,3,,,,,,,,,,,,,"(-0.75, -0.04)",images/min1.png,10,0.0253185537877,0.678743926575,[ 0.6578125  -0.21388889],,,,,,,,['num_0'],,,,2018_Jul_07_1421,60.0201174991,sequenceLearningTask,001,158,
min1.png,min2.png,min3.png,min4.png,allBlank.png,"['num_7', 'num_4', 'num_1', 'num_0']",['num_0'],num_0,[4],'num_0',images/min4.png,"[(0.45, 0.79)]",,,,,0,9,9,9,4,3,19,3,,,,,,,,,,,,,"(0.25, -0.04)",images/min3.png,10,0.0443835714832,0.592805910623,[-0.8234375   0.15277778],,,,,,,,['num_0'],,,,2018_Jul_07_1421,60.0201174991,sequenceLearningTask,001,158,
min1.png,min2.png,min3.png,min4.png,allBlank.png,"['num_7', 'num_4', 'num_1', 'num_0']",['num_0'],num_0,[4],'num_0',images/min4.png,"[(0.45, 0.79)]",,,,,0,9,9,9,4,3,19,3,,,,,,,,,,,,,"(-0.25, -0.04)",images/min2.png,10,0.0531470550923,0.617359336466,[ 0.2015625  -0.11388889],,,,,,,,['num_0'],,,,2018_Jul_07_1421,60.0201174991,sequenceLearningTask,001,158,
min1.png,min2.png,min3.png,min4.png,allBlank.png,"['num_7', 'num_4', 'num_1', 'num_0']",['num_0'],num_0,[4],'num_0',images/min4.png,"[(0.45, 0.79)]",,,,,0,9,9,9,4,3,19,3,,,,,,,,,,,,,"(0.75, -0.04)",images/min4.png,10,0.0540611060569,0.582951145363,[-0.3125     -0.03055556],,,,,,,,['num_0'],,,,2018_Jul_07_1421,60.0201174991,sequenceLearningTask,001,158,
min1.png,min2.png,min3.png,min4.png,allBlank.png,"['num_7', 'num_4', 'num_1', 'num_0']",['num_0'],num_0,[4],'num_0',images/min4.png,"[(0.45, 0.79)]",,,,,0,9,9,9,4,3,19,3,,,,,,,,,,,,,"(0.75, -0.04)",images/min4.png,10,0.0340803962899,0.553448798601,[ 0.615625   -0.24722222],,,,,,,,['num_0'],,,,2018_Jul_07_1421,60.0201174991,sequenceLearningTask,001,158,
min1.png,min2.png,min3.png,min4.png,allBlank.png,"['num_7', 'num_4', 'num_1', 'num_0']",['num_0'],num_0,[4],'num_0',images/min4.png,"[(0.45, 0.79)]",,,,,0,9,9,9,4,3,19,3,,,,,,,,,,,,,"(-0.25, -0.04)",images/min2.png,10,0.0540816189023,0.600151958992,[ 0.7765625  -0.11388889],,,,,,,,['num_0'],,,,2018_Jul_07_1421,60.0201174991,sequenceLearningTask,001,158,
min1.png,min2.png,min3.png,min4.png,allBlank.png,"['num_7', 'num_4', 'num_1', 'num_0']",['num_0'],num_0,[4],'num_0',images/min4.png,"[(0.45, 0.79)]",,,,,0,9,9,9,4,3,19,3,,,,,,,,,,,,,"(0.25, -0.04)",images/min3.png,10,0.0547240800224,0.56480387086,[-0.3828125  -0.13055556],,,,,,,,['num_0'],,,,2018_Jul_07_1421,60.0201174991,sequenceLearningTask,001,158,
min1.png,min2.png,min3.png,min4.png,allBlank.png,"['num_7', 'num_4', 'num_1', 'num_0']",['num_0'],num_0,[4],'num_0',images/min4.png,"[(0.45, 0.79)]",,,,,0,9,9,9,4,3,19,3,,,,,,,,,,,,,"(0.75, -0.04)",images/min4.png,10,0.0529837731738,0.567426639027,[ 0.309375   -0.11944444],,,,,,,,['num_0'],,,,2018_Jul_07_1421,60.0201174991,sequenceLearningTask,001,158,
min1.png,min2.png,min3.png,min4.png,allBlank.png,"['num_7', 'num_4', 'num_1', 'num_0']",['num_0'],num_0,[4],'num_0',images/min4.png,"[(0.45, 0.79)]",,,,,0,9,9,9,4,3,19,3,0,-1,-1,0,,,,,,,,,,,,,,,,,,,,,,['num_0'],,,,2018_Jul_07_1421,60.0201174991,sequenceLearningTask,001,158,
min1.png,min2.png,min3.png,min4.png,allBlank.png,"['num_7', 'num_4', 'num_1', 'num_0']",['num_0'],num_0,[4],'num_0',images/min4.png,"[(0.45, 0.79)]",,,,,0,9,9,9,4,3,19,3,0,-1,-1,0,,,,,,,,,,,,,,,,,['1'],,,,,['num_0'],,,,2018_Jul_07_1421,60.0201174991,sequenceLearningTask,001,158,
min1.png,min2.png,min3.png,min4.png,allBlank.png,"['num_7', 'num_4', 'num_1', 'num_0']",['num_0'],num_0,[4],'num_0',images/min4.png,"[(0.45, 0.79)]",,,,,0,9,9,9,4,3,19,3,0,-1,-1,0,,,,,,,,,,,,,,,,,['2'],,,,,['num_0'],,,,2018_Jul_07_1421,60.0201174991,sequenceLearningTask,001,158,
min1.png,min2.png,min3.png,min4.png,allBlank.png,"['num_7', 'num_4', 'num_1', 'num_0']",['num_0'],num_0,[4],'num_0',images/min4.png,"[(0.45, 0.79)]",,,,,0,9,9,9,4,3,19,3,0,-1,-1,0,,,,,,,,,,,,,,,,,['1'],,,,,['num_0'],,,,2018_Jul_07_1421,60.0201174991,sequenceLearningTask,001,158,
min1.png,min2.png,min3.png,min4.png,allBlank.png,"['num_7', 'num_4', 'num_1', 'num_0']",['num_0'],num_0,[4],'num_0',images/min4.png,"[(0.45, 0.79)]",,,,,0,9,9,9,4,3,19,3,0,-1,-1,0,,,,,,,,,,,,,,,,,['2'],,,,,['num_0'],,,,2018_Jul_07_1421,60.0201174991,sequenceLearningTask,001,158,
min1.png,min2.png,min3.png,min4.png,allBlank.png,"['num_7', 'num_4', 'num_1', 'num_0']",['num_0'],num_0,[4],'num_0',images/min4.png,"[(0.45, 0.79)]",0,0,0,0,0,9,9,9,4,3,19,3,0,-1,-1,0,,,,,,,,,,,,,,,,,,return,3.58711811819,na,"[1.8120763847837225, 2.365367234684527]",['num_0'],,,,2018_Jul_07_1421,60.0201174991,sequenceLearningTask,001,158,
min1.png,min2.png,min3.png,min4.png,allBlank.png,"['num_7', 'num_4', 'num_1', 'num_0']",['num_0'],num_0,[4],'num_0',images/min4.png,"[(0.45, 0.79)]",,,,,0,9,9,9,4,3,19,3,0,-1,-1,0,0,0,0,0,,,,,,,1,,,,,,,,,,,['num_0'],1,['3'],5.52994398773,2018_Jul_07_1421,60.0201174991,sequenceLearningTask,001,158,
