pawPatrol1,pawPatrol2,pawPatrol3,pawPatrol4,blank,allowableKey,correctKey,correctKeyPressNum,posLoc,correctKeyPress,randomPaw,im_size,trials.thisRepN,trials.thisTrialN,trials.thisN,trials.thisIndex,trials_3.thisRepN,trials_3.thisTrialN,trials_3.thisN,trials_3.thisIndex,trials_2.thisRepN,trials_2.thisTrialN,trials_2.thisN,trials_2.thisIndex,trials_questions.thisRepN,trials_questions.thisTrialN,trials_questions.thisN,trials_questions.thisIndex,correctLocation,correctImage,repetitionNumber,stimulusPresent.t,responseTimeCorrect,pressLoc,responseTimeIncorrect,trialIncorrect,date,frameRate,expName,session,participant,
min1.png,min2.png,min3.png,min4.png,allBlank.png,,,,,,,,,,,,0,0,0,0,,,,,,,,,"(-0.75, -0.04)",images/min1.png,1,0.0244705540827,0.726528932806,[-0.2109375  -0.03055556],,,2018_Jul_08_1313,59.7167650364,sequenceLearningTask,001,159,
min1.png,min2.png,min3.png,min4.png,allBlank.png,,,,,,,,,,,,0,0,0,0,,,,,,,,,"(0.25, -0.04)",images/min3.png,1,0.024338861811,0.681719925371,[-0.7453125   0.03888889],,,2018_Jul_08_1313,59.7167650364,sequenceLearningTask,001,159,
min1.png,min2.png,min3.png,min4.png,allBlank.png,,,,,,,,,,,,0,0,0,0,,,,,,,,,"(-0.25, -0.04)",images/min2.png,1,0.0258892200654,0.562505615409,[ 0.1609375   0.06388889],,,2018_Jul_08_1313,59.7167650364,sequenceLearningTask,001,159,
min1.png,min2.png,min3.png,min4.png,allBlank.png,,,,,,,,,,,,0,0,0,0,,,,,,,,,"(0.75, -0.04)",images/min4.png,1,0.0251441948349,0.530439577298,[-0.2203125  -0.11388889],,,2018_Jul_08_1313,59.7167650364,sequenceLearningTask,001,159,
min1.png,min2.png,min3.png,min4.png,allBlank.png,,,,,,,,,,,,0,0,0,0,,,,,,,,,"(0.75, -0.04)",images/min4.png,1,0.0250851179007,0.572706636856,[ 0.7140625   0.04722222],,,2018_Jul_08_1313,59.7167650364,sequenceLearningTask,001,159,
min1.png,min2.png,min3.png,min4.png,allBlank.png,,,,,,,,,,,,0,0,0,0,,,,,,,,,"(-0.25, -0.04)",images/min2.png,1,0.0734338159673,0.512729635811,[ 0.715625    0.12222222],,,2018_Jul_08_1313,59.7167650364,sequenceLearningTask,001,159,
min1.png,min2.png,min3.png,min4.png,allBlank.png,,,,,,,,,,,,0,0,0,0,,,,,,,,,"(0.25, -0.04)",images/min3.png,1,0.0570572073339,0.432061361149,[-0.175      -0.16944444],,,2018_Jul_08_1313,59.7167650364,sequenceLearningTask,001,159,
min1.png,min2.png,min3.png,min4.png,allBlank.png,,,,,,,,,,,,0,0,0,0,,,,,,,,,"(0.75, -0.04)",images/min4.png,1,0.0551257209154,0.486989749013,[ 0.2234375  -0.03333333],,,2018_Jul_08_1313,59.7167650364,sequenceLearningTask,001,159,
min1.png,min2.png,min3.png,min4.png,allBlank.png,,,,,,,,,,,,0,1,1,1,,,,,,,,,"(-0.75, -0.04)",images/min1.png,2,0.0581940273987,0.567669100477,[ 0.7296875   0.09166667],,,2018_Jul_08_1313,59.7167650364,sequenceLearningTask,001,159,
min1.png,min2.png,min3.png,min4.png,allBlank.png,,,,,,,,,,,,0,1,1,1,,,,,,,,,"(0.25, -0.04)",images/min3.png,2,0.053771875333,0.47090196074,[-0.696875   -0.24166667],,,2018_Jul_08_1313,59.7167650364,sequenceLearningTask,001,159,
min1.png,min2.png,min3.png,min4.png,allBlank.png,,,,,,,,,,,,0,1,1,1,,,,,,,,,"(-0.25, -0.04)",images/min2.png,2,0.0568483870011,0.43432679621,[ 0.296875    0.03333333],,,2018_Jul_08_1313,59.7167650364,sequenceLearningTask,001,159,
min1.png,min2.png,min3.png,min4.png,allBlank.png,,,,,,,,,,,,0,1,1,1,,,,,,,,,"(0.75, -0.04)",images/min4.png,2,0.0546063365182,0.52482768218,[-0.2265625  -0.11944444],,,2018_Jul_08_1313,59.7167650364,sequenceLearningTask,001,159,
min1.png,min2.png,min3.png,min4.png,allBlank.png,,,,,,,,,,,,0,1,1,1,,,,,,,,,"(0.75, -0.04)",images/min4.png,2,0.0569008997409,0.686757872114,[ 0.7296875  -0.06944444],,,2018_Jul_08_1313,59.7167650364,sequenceLearningTask,001,159,
min1.png,min2.png,min3.png,min4.png,allBlank.png,,,,,,,,,,,,0,1,1,1,,,,,,,,,"(-0.25, -0.04)",images/min2.png,2,0.0571134124184,0.515744608943,[ 0.7546875   0.06388889],,,2018_Jul_08_1313,59.7167650364,sequenceLearningTask,001,159,
min1.png,min2.png,min3.png,min4.png,allBlank.png,,,,,,,,,,,,0,1,1,1,,,,,,,,,"(0.25, -0.04)",images/min3.png,2,0.0598366934573,0.501158358529,[-0.2484375  -0.14166667],,,2018_Jul_08_1313,59.7167650364,sequenceLearningTask,001,159,
min1.png,min2.png,min3.png,min4.png,allBlank.png,,,,,,,,,,,,0,1,1,1,,,,,,,,,"(0.75, -0.04)",images/min4.png,2,0.0562764897477,0.486081851879,[ 0.265625   -0.05833333],,,2018_Jul_08_1313,59.7167650364,sequenceLearningTask,001,159,
min1.png,min2.png,min3.png,min4.png,allBlank.png,,,,,,,,,,,,0,2,2,2,,,,,,,,,"(-0.75, -0.04)",images/min1.png,3,0.0555527977413,0.632855535252,[ 0.7515625  -0.01666667],,,2018_Jul_08_1313,59.7167650364,sequenceLearningTask,001,159,
min1.png,min2.png,min3.png,min4.png,allBlank.png,,,,,,,,,,,,0,2,2,2,,,,,,,,,"(0.25, -0.04)",images/min3.png,3,0.0635138200596,0.427238388802,[-0.665625   -0.23611111],,,2018_Jul_08_1313,59.7167650364,sequenceLearningTask,001,159,
min1.png,min2.png,min3.png,min4.png,allBlank.png,,,,,,,,,,,,0,2,2,2,,,,,,,,,"(-0.25, -0.04)",images/min2.png,3,0.0620635643136,0.563335153507,[ 0.371875  0.      ],,,2018_Jul_08_1313,59.7167650364,sequenceLearningTask,001,159,
min1.png,min2.png,min3.png,min4.png,allBlank.png,,,,,,,,,,,,0,2,2,2,,,,,,,,,"(0.75, -0.04)",images/min4.png,3,0.0557246950921,0.450207405025,[-0.2859375 -0.15     ],,,2018_Jul_08_1313,59.7167650364,sequenceLearningTask,001,159,
min1.png,min2.png,min3.png,min4.png,allBlank.png,,,,,,,,,,,,0,2,2,2,,,,,,,,,"(0.75, -0.04)",images/min4.png,3,0.0613977183821,0.730417751707,[ 0.7671875   0.04722222],,,2018_Jul_08_1313,59.7167650364,sequenceLearningTask,001,159,
min1.png,min2.png,min3.png,min4.png,allBlank.png,,,,,,,,,,,,0,2,2,2,,,,,,,,,"(-0.25, -0.04)",images/min2.png,3,0.0504914665362,0.625052051269,[ 0.7328125  -0.05277778],,,2018_Jul_08_1313,59.7167650364,sequenceLearningTask,001,159,
min1.png,min2.png,min3.png,min4.png,allBlank.png,,,,,,,,,,,,0,2,2,2,,,,,,,,,"(0.25, -0.04)",images/min3.png,3,0.0638469482074,0.544640597072,[-0.2796875 -0.15     ],,,2018_Jul_08_1313,59.7167650364,sequenceLearningTask,001,159,
min1.png,min2.png,min3.png,min4.png,allBlank.png,,,,,,,,,,,,0,2,2,2,,,,,,,,,"(0.75, -0.04)",images/min4.png,3,0.0539601830533,0.689393358189,[ 0.2015625  -0.00555556],,,2018_Jul_08_1313,59.7167650364,sequenceLearningTask,001,159,
min1.png,min2.png,min3.png,min4.png,allBlank.png,,,,,,,,,,,,0,3,3,3,,,,,,,,,"(-0.75, -0.04)",images/min1.png,4,0.0614412055584,0.881047023111,[ 0.7578125   0.09166667],,,2018_Jul_08_1313,59.7167650364,sequenceLearningTask,001,159,
min1.png,min2.png,min3.png,min4.png,allBlank.png,,,,,,,,,,,,0,3,3,3,,,,,,,,,"(0.25, -0.04)",images/min3.png,4,0.0517365941778,0.472956523881,[-0.7453125  -0.05833333],,,2018_Jul_08_1313,59.7167650364,sequenceLearningTask,001,159,
min1.png,min2.png,min3.png,min4.png,allBlank.png,,,,,,,,,,,,0,3,3,3,,,,,,,,,"(-0.25, -0.04)",images/min2.png,4,0.0614871542202,0.546884288429,[ 0.315625   -0.08611111],,,2018_Jul_08_1313,59.7167650364,sequenceLearningTask,001,159,
min1.png,min2.png,min3.png,min4.png,allBlank.png,,,,,,,,,,,,0,3,3,3,,,,,,,,,"(0.75, -0.04)",images/min4.png,4,0.0568615151569,0.485368006048,[-0.2109375  -0.14722222],,,2018_Jul_08_1313,59.7167650364,sequenceLearningTask,001,159,
min1.png,min2.png,min3.png,min4.png,allBlank.png,,,,,,,,,,,,0,3,3,3,,,,,,,,,"(0.75, -0.04)",images/min4.png,4,0.0567790536443,1.09034170653,[ 0.690625    0.06944444],,,2018_Jul_08_1313,59.7167650364,sequenceLearningTask,001,159,
min1.png,min2.png,min3.png,min4.png,allBlank.png,,,,,,,,,,,,0,3,3,3,,,,,,,,,"(-0.25, -0.04)",images/min2.png,4,0.0614740260644,0.545998134883,[ 0.7328125  -0.10277778],,,2018_Jul_08_1313,59.7167650364,sequenceLearningTask,001,159,
min1.png,min2.png,min3.png,min4.png,allBlank.png,,,,,,,,,,,,0,3,3,3,,,,,,,,,"(0.25, -0.04)",images/min3.png,4,0.0586654117797,0.667040546774,[-0.1390625  -0.16111111],,,2018_Jul_08_1313,59.7167650364,sequenceLearningTask,001,159,
min1.png,min2.png,min3.png,min4.png,allBlank.png,,,,,,,,,,,,0,3,3,3,,,,,,,,,"(0.75, -0.04)",images/min4.png,4,0.0508299277863,0.5909314499,[ 0.296875    0.05555556],,,2018_Jul_08_1313,59.7167650364,sequenceLearningTask,001,159,
min1.png,min2.png,min3.png,min4.png,allBlank.png,,,,,,,,,,,,0,4,4,4,,,,,,,,,"(-0.75, -0.04)",images/min1.png,5,0.053792798426,0.803745311219,[ 0.7421875   0.05555556],,,2018_Jul_08_1313,59.7167650364,sequenceLearningTask,001,159,
min1.png,min2.png,min3.png,min4.png,allBlank.png,,,,,,,,,,,,0,4,4,4,,,,,,,,,"(0.25, -0.04)",images/min3.png,5,0.0682945360895,0.690782485763,[-0.69375    -0.38333333],,,2018_Jul_08_1313,59.7167650364,sequenceLearningTask,001,159,
min1.png,min2.png,min3.png,min4.png,allBlank.png,,,,,,,,,,,,0,4,4,4,,,,,,,,,"(-0.25, -0.04)",images/min2.png,5,0.0570051047252,0.605098828673,[ 0.2234375  -0.09722222],,,2018_Jul_08_1313,59.7167650364,sequenceLearningTask,001,159,
min1.png,min2.png,min3.png,min4.png,allBlank.png,,,,,,,,,,,,0,4,4,4,,,,,,,,,"(0.75, -0.04)",images/min4.png,5,0.0454789556097,0.462659912766,[-0.2515625  -0.13611111],,,2018_Jul_08_1313,59.7167650364,sequenceLearningTask,001,159,
min1.png,min2.png,min3.png,min4.png,allBlank.png,,,,,,,,,,,,0,4,4,4,,,,,,,,,"(0.75, -0.04)",images/min4.png,5,0.0611281800084,0.648859220906,[ 0.6703125  0.       ],,,2018_Jul_08_1313,59.7167650364,sequenceLearningTask,001,159,
min1.png,min2.png,min3.png,min4.png,allBlank.png,,,,,,,,,,,,0,4,4,4,,,,,,,,,"(-0.25, -0.04)",images/min2.png,5,0.0607187442947,0.598729190184,[ 0.7453125   0.17777778],,,2018_Jul_08_1313,59.7167650364,sequenceLearningTask,001,159,
min1.png,min2.png,min3.png,min4.png,allBlank.png,,,,,,,,,,,,0,4,4,4,,,,,,,,,"(0.25, -0.04)",images/min3.png,5,0.0537452086573,0.553728593281,[-0.1875     -0.21111111],,,2018_Jul_08_1313,59.7167650364,sequenceLearningTask,001,159,
min1.png,min2.png,min3.png,min4.png,allBlank.png,,,,,,,,,,,,0,4,4,4,,,,,,,,,"(0.75, -0.04)",images/min4.png,5,0.0624131025979,0.546063365648,[ 0.2078125  0.       ],,,2018_Jul_08_1313,59.7167650364,sequenceLearningTask,001,159,
min1.png,min2.png,min3.png,min4.png,allBlank.png,,,,,,,,,,,,0,5,5,5,,,,,,,,,"(-0.75, -0.04)",images/min1.png,6,0.0529119783314,0.651442604489,[ 0.6859375  -0.01111111],,,2018_Jul_08_1313,59.7167650364,sequenceLearningTask,001,159,
min1.png,min2.png,min3.png,min4.png,allBlank.png,,,,,,,,,,,,0,5,5,5,,,,,,,,,"(0.25, -0.04)",images/min3.png,6,0.0583203863353,0.449702789891,[-0.8046875  -0.00833333],,,2018_Jul_08_1313,59.7167650364,sequenceLearningTask,001,159,
min1.png,min2.png,min3.png,min4.png,allBlank.png,,,,,,,,,,,,0,5,5,5,,,,,,,,,"(-0.25, -0.04)",images/min2.png,6,0.0559987461893,0.570370227564,[ 0.2453125   0.01111111],,,2018_Jul_08_1313,59.7167650364,sequenceLearningTask,001,159,
min1.png,min2.png,min3.png,min4.png,allBlank.png,,,,,,,,,,,,0,5,5,5,,,,,,,,,"(0.75, -0.04)",images/min4.png,6,0.0615872567287,0.602231958066,[-0.2609375  -0.23888889],,,2018_Jul_08_1313,59.7167650364,sequenceLearningTask,001,159,
min1.png,min2.png,min3.png,min4.png,allBlank.png,,,,,,,,,,,,0,5,5,5,,,,,,,,,"(0.75, -0.04)",images/min4.png,6,0.0664771009469,0.827150429832,[ 0.728125   -0.00833333],,,2018_Jul_08_1313,59.7167650364,sequenceLearningTask,001,159,
min1.png,min2.png,min3.png,min4.png,allBlank.png,,,,,,,,,,,,0,5,5,5,,,,,,,,,"(-0.25, -0.04)",images/min2.png,6,0.0512557738693,0.711350272293,[ 0.6859375  0.075    ],,,2018_Jul_08_1313,59.7167650364,sequenceLearningTask,001,159,
min1.png,min2.png,min3.png,min4.png,allBlank.png,,,,,,,,,,,,0,5,5,5,,,,,,,,,"(0.25, -0.04)",images/min3.png,6,0.0561370025389,0.552115055616,[-0.259375   -0.21944444],,,2018_Jul_08_1313,59.7167650364,sequenceLearningTask,001,159,
min1.png,min2.png,min3.png,min4.png,allBlank.png,,,,,,,,,,,,0,5,5,5,,,,,,,,,"(0.75, -0.04)",images/min4.png,6,0.0773685836466,0.516753839329,[ 0.290625   -0.04722222],,,2018_Jul_08_1313,59.7167650364,sequenceLearningTask,001,159,
min1.png,min2.png,min3.png,min4.png,allBlank.png,,,,,,,,,,,,0,6,6,6,,,,,,,,,"(-0.75, -0.04)",images/min1.png,7,0.0509205944836,0.707975504338,[ 0.7640625   0.00277778],,,2018_Jul_08_1313,59.7167650364,sequenceLearningTask,001,159,
min1.png,min2.png,min3.png,min4.png,allBlank.png,,,,,,,,,,,,0,6,6,6,,,,,,,,,"(0.25, -0.04)",images/min3.png,7,0.056383156334,0.571864790982,[-0.7265625  -0.26944444],,,2018_Jul_08_1313,59.7167650364,sequenceLearningTask,001,159,
min1.png,min2.png,min3.png,min4.png,allBlank.png,,,,,,,,,,,,0,6,6,6,,,,,,,,,"(-0.25, -0.04)",images/min2.png,7,0.0482194673968,0.593589910422,[ 0.253125  0.075   ],,,2018_Jul_08_1313,59.7167650364,sequenceLearningTask,001,159,
min1.png,min2.png,min3.png,min4.png,allBlank.png,,,,,,,,,,,,0,6,6,6,,,,,,,,,"(0.75, -0.04)",images/min4.png,7,0.0519138248637,1.41374711238,[-0.1171875  -0.24444444],,,2018_Jul_08_1313,59.7167650364,sequenceLearningTask,001,159,
min1.png,min2.png,min3.png,min4.png,allBlank.png,,,,,,,,,,,,0,6,6,6,,,,,,,,,"(0.75, -0.04)",images/min4.png,7,0.0551027467009,0.587086118059,[ 0.7546875   0.05833333],,,2018_Jul_08_1313,59.7167650364,sequenceLearningTask,001,159,
min1.png,min2.png,min3.png,min4.png,allBlank.png,,,,,,,,,,,,0,6,6,6,,,,,,,,,"(-0.25, -0.04)",images/min2.png,7,0.057268489385,0.683429052937,[ 0.6390625   0.06666667],,,2018_Jul_08_1313,59.7167650364,sequenceLearningTask,001,159,
min1.png,min2.png,min3.png,min4.png,allBlank.png,,,,,,,,,,,,0,6,6,6,,,,,,,,,"(0.25, -0.04)",images/min3.png,7,0.0619400771102,0.582179043209,[-0.24375 -0.175  ],,,2018_Jul_08_1313,59.7167650364,sequenceLearningTask,001,159,
min1.png,min2.png,min3.png,min4.png,allBlank.png,,,,,,,,,,,,0,6,6,6,,,,,,,,,"(0.75, -0.04)",images/min4.png,7,0.0486120826099,0.762193328352,[ 0.2640625   0.09166667],,,2018_Jul_08_1313,59.7167650364,sequenceLearningTask,001,159,
min1.png,min2.png,min3.png,min4.png,allBlank.png,,,,,,,,,,,,0,7,7,7,,,,,,,,,"(-0.75, -0.04)",images/min1.png,8,0.0550383363152,0.934520232026,[ 0.7390625   0.15833333],,,2018_Jul_08_1313,59.7167650364,sequenceLearningTask,001,159,
min1.png,min2.png,min3.png,min4.png,allBlank.png,,,,,,,,,,,,0,7,7,7,,,,,,,,,"(0.25, -0.04)",images/min3.png,8,0.0614727952052,1.21677816752,[-0.6921875   0.06944444],,,2018_Jul_08_1313,59.7167650364,sequenceLearningTask,001,159,
min1.png,min2.png,min3.png,min4.png,allBlank.png,,,,,,,,,,,,0,7,7,7,,,,,,,,,"(-0.25, -0.04)",images/min2.png,8,0.0562543359119,1.12229246262,[ 0.2890625   0.08055556],,,2018_Jul_08_1313,59.7167650364,sequenceLearningTask,001,159,
min1.png,min2.png,min3.png,min4.png,allBlank.png,,,,,,,,,,,,0,7,7,7,,,,,,,,,"(0.75, -0.04)",images/min4.png,8,0.0643326916033,0.76419701986,[-0.159375 -0.1     ],,,2018_Jul_08_1313,59.7167650364,sequenceLearningTask,001,159,
min1.png,min2.png,min3.png,min4.png,allBlank.png,,,,,,,,,,,,0,7,7,7,,,,,,,,,"(0.75, -0.04)",images/min4.png,8,0.0562330025714,0.857599648065,[ 0.6859375  -0.05277778],,,2018_Jul_08_1313,59.7167650364,sequenceLearningTask,001,159,
min1.png,min2.png,min3.png,min4.png,allBlank.png,,,,,,,,,,,,0,7,7,7,,,,,,,,,"(-0.25, -0.04)",images/min2.png,8,0.0613722825656,0.68211705354,[ 0.6734375   0.00833333],,,2018_Jul_08_1313,59.7167650364,sequenceLearningTask,001,159,
min1.png,min2.png,min3.png,min4.png,allBlank.png,,,,,,,,,,,,0,7,7,7,,,,,,,,,"(0.25, -0.04)",images/min3.png,8,0.0555663362611,0.722693857388,[-0.1859375  -0.18055556],,,2018_Jul_08_1313,59.7167650364,sequenceLearningTask,001,159,
min1.png,min2.png,min3.png,min4.png,allBlank.png,,,,,,,,,,,,0,7,7,7,,,,,,,,,"(0.75, -0.04)",images/min4.png,8,0.0485390570248,1.21637980861,[ 0.3296875  -0.11388889],,,2018_Jul_08_1313,59.7167650364,sequenceLearningTask,001,159,
min1.png,min2.png,min3.png,min4.png,allBlank.png,,,,,,,,,,,,0,8,8,8,,,,,,,,,"(-0.75, -0.04)",images/min1.png,9,0.0725365856197,0.867543849163,[ 0.771875    0.05833333],,,2018_Jul_08_1313,59.7167650364,sequenceLearningTask,001,159,
min1.png,min2.png,min3.png,min4.png,allBlank.png,,,,,,,,,,,,0,8,8,8,,,,,,,,,"(0.25, -0.04)",images/min3.png,9,0.0566346434643,0.537640394876,[-0.7734375   0.00833333],,,2018_Jul_08_1313,59.7167650364,sequenceLearningTask,001,159,
min1.png,min2.png,min3.png,min4.png,allBlank.png,,,,,,,,,,,,0,8,8,8,,,,,,,,,"(-0.25, -0.04)",images/min2.png,9,0.0518970043631,0.583891042508,[ 0.3546875  -0.01388889],,,2018_Jul_08_1313,59.7167650364,sequenceLearningTask,001,159,
min1.png,min2.png,min3.png,min4.png,allBlank.png,,,,,,,,,,,,0,8,8,8,,,,,,,,,"(0.75, -0.04)",images/min4.png,9,0.0574908482376,0.651828245376,[-0.2203125  -0.20833333],,,2018_Jul_08_1313,59.7167650364,sequenceLearningTask,001,159,
min1.png,min2.png,min3.png,min4.png,allBlank.png,,,,,,,,,,,,0,8,8,8,,,,,,,,,"(0.75, -0.04)",images/min4.png,9,0.0496557744918,0.694253663882,[ 0.6453125  0.175    ],,,2018_Jul_08_1313,59.7167650364,sequenceLearningTask,001,159,
min1.png,min2.png,min3.png,min4.png,allBlank.png,,,,,,,,,,,,0,8,8,8,,,,,,,,,"(-0.25, -0.04)",images/min2.png,9,0.0565476691118,0.604154829052,[ 0.6703125   0.03611111],,,2018_Jul_08_1313,59.7167650364,sequenceLearningTask,001,159,
min1.png,min2.png,min3.png,min4.png,allBlank.png,,,,,,,,,,,,0,8,8,8,,,,,,,,,"(0.25, -0.04)",images/min3.png,9,0.0577657199465,0.521153837442,[-0.2609375  -0.13611111],,,2018_Jul_08_1313,59.7167650364,sequenceLearningTask,001,159,
min1.png,min2.png,min3.png,min4.png,allBlank.png,,,,,,,,,,,,0,8,8,8,,,,,,,,,"(0.75, -0.04)",images/min4.png,9,0.0558375155088,0.639101686538,[ 0.228125    0.03611111],,,2018_Jul_08_1313,59.7167650364,sequenceLearningTask,001,159,
min1.png,min2.png,min3.png,min4.png,allBlank.png,,,,,,,,,,,,0,9,9,9,,,,,,,,,"(-0.75, -0.04)",images/min1.png,10,0.0611630518688,0.663614907302,[ 0.83125  0.125  ],,,2018_Jul_08_1313,59.7167650364,sequenceLearningTask,001,159,
min1.png,min2.png,min3.png,min4.png,allBlank.png,,,,,,,,,,,,0,9,9,9,,,,,,,,,"(0.25, -0.04)",images/min3.png,10,0.0548976185964,0.543634238536,[-0.7015625 -0.275    ],,,2018_Jul_08_1313,59.7167650364,sequenceLearningTask,001,159,
min1.png,min2.png,min3.png,min4.png,allBlank.png,,,,,,,,,,,,0,9,9,9,,,,,,,,,"(-0.25, -0.04)",images/min2.png,10,0.0560237718746,0.581596479286,[ 0.2328125   0.07222222],,,2018_Jul_08_1313,59.7167650364,sequenceLearningTask,001,159,
min1.png,min2.png,min3.png,min4.png,allBlank.png,,,,,,,,,,,,0,9,9,9,,,,,,,,,"(0.75, -0.04)",images/min4.png,10,0.0591101296013,0.45150832762,[-0.1671875  -0.19722222],,,2018_Jul_08_1313,59.7167650364,sequenceLearningTask,001,159,
min1.png,min2.png,min3.png,min4.png,allBlank.png,,,,,,,,,,,,0,9,9,9,,,,,,,,,"(0.75, -0.04)",images/min4.png,10,0.0654686910566,0.662087523262,[ 0.6953125   0.13611111],,,2018_Jul_08_1313,59.7167650364,sequenceLearningTask,001,159,
min1.png,min2.png,min3.png,min4.png,allBlank.png,,,,,,,,,,,,0,9,9,9,,,,,,,,,"(-0.25, -0.04)",images/min2.png,10,0.0624885897851,0.681746592047,[ 0.7109375   0.06388889],,,2018_Jul_08_1313,59.7167650364,sequenceLearningTask,001,159,
min1.png,min2.png,min3.png,min4.png,allBlank.png,,,,,,,,,,,,0,9,9,9,,,,,,,,,"(0.25, -0.04)",images/min3.png,10,0.0617973080371,0.565373306512,[-0.1375     -0.23611111],,,2018_Jul_08_1313,59.7167650364,sequenceLearningTask,001,159,
min1.png,min2.png,min3.png,min4.png,allBlank.png,,,,,,,,,,,,0,9,9,9,,,,,,,,,"(0.75, -0.04)",images/min4.png,10,0.0632656150265,0.611968979705,[ 0.2890625  -0.08055556],,,2018_Jul_08_1313,59.7167650364,sequenceLearningTask,001,159,
min1.png,min2.png,min3.png,min4.png,allBlank.png,,,,,,,,,,,,0,0,0,0,,,,,,,,,"(-0.75, -0.04)",images/min1.png,1,0.0328894223785,0.799067979911,[ 0.7375      0.01944444],,,2018_Jul_08_1313,59.7167650364,sequenceLearningTask,001,159,
min1.png,min2.png,min3.png,min4.png,allBlank.png,,,,,,,,,,,,0,0,0,0,,,,,,,,,"(0.25, -0.04)",images/min3.png,1,0.0579130018596,0.514535994036,[-0.7203125 -0.05     ],,,2018_Jul_08_1313,59.7167650364,sequenceLearningTask,001,159,
min1.png,min2.png,min3.png,min4.png,allBlank.png,,,,,,,,,,,,0,0,0,0,,,,,,,,,"(-0.25, -0.04)",images/min2.png,1,0.0569099254208,0.553370029433,[ 0.2515625  -0.05833333],,,2018_Jul_08_1313,59.7167650364,sequenceLearningTask,001,159,
min1.png,min2.png,min3.png,min4.png,allBlank.png,,,,,,,,,,,,0,0,0,0,,,,,,,,,"(0.75, -0.04)",images/min4.png,1,0.0629911536817,0.632920766016,[-0.2015625  -0.11111111],,,2018_Jul_08_1313,59.7167650364,sequenceLearningTask,001,159,
min1.png,min2.png,min3.png,min4.png,allBlank.png,,,,,,,,,,,,0,0,0,0,,,,,,,,,"(0.75, -0.04)",images/min4.png,1,0.060017206124,0.552366132382,[ 0.7609375   0.18611111],,,2018_Jul_08_1313,59.7167650364,sequenceLearningTask,001,159,
min1.png,min2.png,min3.png,min4.png,allBlank.png,,,,,,,,,,,,0,0,0,0,,,,,,,,,"(-0.25, -0.04)",images/min2.png,1,0.0570227458375,0.551921004313,[ 0.6828125   0.08611111],,,2018_Jul_08_1313,59.7167650364,sequenceLearningTask,001,159,
min1.png,min2.png,min3.png,min4.png,allBlank.png,,,,,,,,,,,,0,0,0,0,,,,,,,,,"(0.25, -0.04)",images/min3.png,1,0.0478354676161,0.515008199029,[-0.1515625   0.01666667],,,2018_Jul_08_1313,59.7167650364,sequenceLearningTask,001,159,
min1.png,min2.png,min3.png,min4.png,allBlank.png,,,,,,,,,,,,0,0,0,0,,,,,,,,,"(0.75, -0.04)",images/min4.png,1,0.0540890034754,0.555217413348,[ 0.178125    0.06388889],,,2018_Jul_08_1313,59.7167650364,sequenceLearningTask,001,159,
min1.png,min2.png,min3.png,min4.png,allBlank.png,,,,,,,,,,,,0,1,1,1,,,,,,,,,"(-0.75, -0.04)",images/min1.png,2,0.0634059227305,0.62157184747,[ 0.703125    0.13055556],,,2018_Jul_08_1313,59.7167650364,sequenceLearningTask,001,159,
min1.png,min2.png,min3.png,min4.png,allBlank.png,,,,,,,,,,,,0,1,1,1,,,,,,,,,"(0.25, -0.04)",images/min3.png,2,0.0611630517524,0.53037844901,[-0.7359375  -0.20555556],,,2018_Jul_08_1313,59.7167650364,sequenceLearningTask,001,159,
min1.png,min2.png,min3.png,min4.png,allBlank.png,,,,,,,,,,,,0,1,1,1,,,,,,,,,"(-0.25, -0.04)",images/min2.png,2,0.062856999808,0.578810839448,[ 0.340625   -0.08055556],,,2018_Jul_08_1313,59.7167650364,sequenceLearningTask,001,159,
min1.png,min2.png,min3.png,min4.png,allBlank.png,,,,,,,,,,,,0,1,1,1,,,,,,,,,"(0.75, -0.04)",images/min4.png,2,0.0536278754007,0.838821399491,[-0.2046875  -0.29166667],,,2018_Jul_08_1313,59.7167650364,sequenceLearningTask,001,159,
min1.png,min2.png,min3.png,min4.png,allBlank.png,,,,,,,,,,,,0,1,1,1,,,,,,,,,"(0.75, -0.04)",images/min4.png,2,0.0555909515824,0.887973789591,[ 0.7296875   0.05277778],,,2018_Jul_08_1313,59.7167650364,sequenceLearningTask,001,159,
min1.png,min2.png,min3.png,min4.png,allBlank.png,,,,,,,,,,,,0,1,1,1,,,,,,,,,"(-0.25, -0.04)",images/min2.png,2,0.0559802848147,0.615596465417,[ 0.59375     0.24166667],,,2018_Jul_08_1313,59.7167650364,sequenceLearningTask,001,159,
min1.png,min2.png,min3.png,min4.png,allBlank.png,,,,,,,,,,,,0,1,1,1,,,,,,,,,"(0.25, -0.04)",images/min3.png,2,0.0614875645842,0.662589266663,[-0.2859375  -0.24722222],,,2018_Jul_08_1313,59.7167650364,sequenceLearningTask,001,159,
min1.png,min2.png,min3.png,min4.png,allBlank.png,,,,,,,,,,,,0,1,1,1,,,,,,,,,"(0.75, -0.04)",images/min4.png,2,0.0654284860939,1.61368261999,[ 0.3421875   0.00833333],1.02648655314,1,2018_Jul_08_1313,59.7167650364,sequenceLearningTask,001,159,
min1.png,min2.png,min3.png,min4.png,allBlank.png,,,,,,,,,,,,0,2,2,2,,,,,,,,,"(-0.75, -0.04)",images/min1.png,3,0.0580524889519,0.732583904522,[ 0.8109375  0.025    ],,,2018_Jul_08_1313,59.7167650364,sequenceLearningTask,001,159,
min1.png,min2.png,min3.png,min4.png,allBlank.png,,,,,,,,,,,,0,2,2,2,,,,,,,,,"(0.25, -0.04)",images/min3.png,3,0.0570071560796,0.482600827701,[-0.6625     -0.13611111],,,2018_Jul_08_1313,59.7167650364,sequenceLearningTask,001,159,
min1.png,min2.png,min3.png,min4.png,allBlank.png,,,,,,,,,,,,0,2,2,2,,,,,,,,,"(-0.25, -0.04)",images/min2.png,3,0.0629583331756,0.510037124041,[ 0.3234375  -0.06944444],,,2018_Jul_08_1313,59.7167650364,sequenceLearningTask,001,159,
min1.png,min2.png,min3.png,min4.png,allBlank.png,,,,,,,,,,,,0,2,2,2,,,,,,,,,"(0.75, -0.04)",images/min4.png,3,0.0622953590937,0.729490162223,[-0.1484375  -0.15277778],,,2018_Jul_08_1313,59.7167650364,sequenceLearningTask,001,159,
min1.png,min2.png,min3.png,min4.png,allBlank.png,,,,,,,,,,,,0,2,2,2,,,,,,,,,"(0.75, -0.04)",images/min4.png,3,0.0547860288061,0.653232962824,[ 0.703125   -0.09166667],,,2018_Jul_08_1313,59.7167650364,sequenceLearningTask,001,159,
min1.png,min2.png,min3.png,min4.png,allBlank.png,,,,,,,,,,,,0,2,2,2,,,,,,,,,"(-0.25, -0.04)",images/min2.png,3,0.0426243927795,0.612704569125,[ 0.76875    -0.02222222],,,2018_Jul_08_1313,59.7167650364,sequenceLearningTask,001,159,
min1.png,min2.png,min3.png,min4.png,allBlank.png,,,,,,,,,,,,0,2,2,2,,,,,,,,,"(0.25, -0.04)",images/min3.png,3,0.06189043622,0.525029528188,[-0.2125     -0.20833333],,,2018_Jul_08_1313,59.7167650364,sequenceLearningTask,001,159,
min1.png,min2.png,min3.png,min4.png,allBlank.png,,,,,,,,,,,,0,2,2,2,,,,,,,,,"(0.75, -0.04)",images/min4.png,3,0.0557936182013,0.653715424123,[ 0.25       -0.27222222],,,2018_Jul_08_1313,59.7167650364,sequenceLearningTask,001,159,
min1.png,min2.png,min3.png,min4.png,allBlank.png,,,,,,,,,,,,0,3,3,3,,,,,,,,,"(-0.75, -0.04)",images/min1.png,4,0.0565218229312,0.666870700778,[ 0.728125    0.02777778],,,2018_Jul_08_1313,59.7167650364,sequenceLearningTask,001,159,
min1.png,min2.png,min3.png,min4.png,allBlank.png,,,,,,,,,,,,0,3,3,3,,,,,,,,,"(0.25, -0.04)",images/min3.png,4,0.0552775157848,0.523393836571,[-0.6375     -0.24166667],,,2018_Jul_08_1313,59.7167650364,sequenceLearningTask,001,159,
min1.png,min2.png,min3.png,min4.png,allBlank.png,,,,,,,,,,,,0,3,3,3,,,,,,,,,"(-0.25, -0.04)",images/min2.png,4,0.0559749514796,0.670880955528,[ 0.3203125  -0.12777778],,,2018_Jul_08_1313,59.7167650364,sequenceLearningTask,001,159,
min1.png,min2.png,min3.png,min4.png,allBlank.png,,,,,,,,,,,,0,3,3,3,,,,,,,,,"(0.75, -0.04)",images/min4.png,4,0.056733104866,0.769768709899,[-0.23125 -0.275  ],,,2018_Jul_08_1313,59.7167650364,sequenceLearningTask,001,159,
min1.png,min2.png,min3.png,min4.png,allBlank.png,,,,,,,,,,,,0,3,3,3,,,,,,,,,"(0.75, -0.04)",images/min4.png,4,0.0546748492634,0.824971148744,[ 0.7375     -0.06666667],,,2018_Jul_08_1313,59.7167650364,sequenceLearningTask,001,159,
min1.png,min2.png,min3.png,min4.png,allBlank.png,,,,,,,,,,,,0,3,3,3,,,,,,,,,"(-0.25, -0.04)",images/min2.png,4,0.0616254105698,0.580061710672,[ 0.73125 -0.325  ],,,2018_Jul_08_1313,59.7167650364,sequenceLearningTask,001,159,
min1.png,min2.png,min3.png,min4.png,allBlank.png,,,,,,,,,,,,0,3,3,3,,,,,,,,,"(0.25, -0.04)",images/min3.png,4,0.0566736178007,0.604675444309,[-0.1609375  -0.13333333],,,2018_Jul_08_1313,59.7167650364,sequenceLearningTask,001,159,
min1.png,min2.png,min3.png,min4.png,allBlank.png,,,,,,,,,,,,0,3,3,3,,,,,,,,,"(0.75, -0.04)",images/min4.png,4,0.0559482846875,0.585506631527,[ 0.303125   -0.09166667],,,2018_Jul_08_1313,59.7167650364,sequenceLearningTask,001,159,
min1.png,min2.png,min3.png,min4.png,allBlank.png,,,,,,,,,,,,0,4,4,4,,,,,,,,,"(-0.75, -0.04)",images/min1.png,5,0.0629747434286,0.661296959501,[ 0.725       0.04166667],,,2018_Jul_08_1313,59.7167650364,sequenceLearningTask,001,159,
min1.png,min2.png,min3.png,min4.png,allBlank.png,,,,,,,,,,,,0,4,4,4,,,,,,,,,"(0.25, -0.04)",images/min3.png,5,0.0565694126999,0.470326781389,[-0.6703125  -0.15277778],,,2018_Jul_08_1313,59.7167650364,sequenceLearningTask,001,159,
min1.png,min2.png,min3.png,min4.png,allBlank.png,,,,,,,,,,,,0,4,4,4,,,,,,,,,"(-0.25, -0.04)",images/min2.png,5,0.0554461310385,0.522247580579,[ 0.2578125  -0.06111111],,,2018_Jul_08_1313,59.7167650364,sequenceLearningTask,001,159,
min1.png,min2.png,min3.png,min4.png,allBlank.png,,,,,,,,,,,,0,4,4,4,,,,,,,,,"(0.75, -0.04)",images/min4.png,5,0.0535080805421,0.604499854497,[-0.1671875  -0.19722222],,,2018_Jul_08_1313,59.7167650364,sequenceLearningTask,001,159,
min1.png,min2.png,min3.png,min4.png,allBlank.png,,,,,,,,,,,,0,4,4,4,,,,,,,,,"(0.75, -0.04)",images/min4.png,5,0.0578814120963,1.35672969976,[ 0.73125     0.06944444],,,2018_Jul_08_1313,59.7167650364,sequenceLearningTask,001,159,
min1.png,min2.png,min3.png,min4.png,allBlank.png,,,,,,,,,,,,0,4,4,4,,,,,,,,,"(-0.25, -0.04)",images/min2.png,5,0.0620040771319,0.49141067022,[ 0.69375    -0.04722222],,,2018_Jul_08_1313,59.7167650364,sequenceLearningTask,001,159,
min1.png,min2.png,min3.png,min4.png,allBlank.png,,,,,,,,,,,,0,4,4,4,,,,,,,,,"(0.25, -0.04)",images/min3.png,5,0.0556167976465,0.520170863601,[-0.2140625  -0.19722222],,,2018_Jul_08_1313,59.7167650364,sequenceLearningTask,001,159,
min1.png,min2.png,min3.png,min4.png,allBlank.png,,,,,,,,,,,,0,4,4,4,,,,,,,,,"(0.75, -0.04)",images/min4.png,5,0.0611384364311,0.646616350161,[ 0.3140625   0.00833333],,,2018_Jul_08_1313,59.7167650364,sequenceLearningTask,001,159,
min1.png,min2.png,min3.png,min4.png,allBlank.png,,,,,,,,,,,,0,5,5,5,,,,,,,,,"(-0.75, -0.04)",images/min1.png,6,0.053064183332,0.686491205473,[ 0.8171875 -0.075    ],,,2018_Jul_08_1313,59.7167650364,sequenceLearningTask,001,159,
min1.png,min2.png,min3.png,min4.png,allBlank.png,,,,,,,,,,,,0,5,5,5,,,,,,,,,"(0.25, -0.04)",images/min3.png,6,0.0615367952269,0.582013709936,[-0.725      -0.16666667],,,2018_Jul_08_1313,59.7167650364,sequenceLearningTask,001,159,
min1.png,min2.png,min3.png,min4.png,allBlank.png,,,,,,,,,,,,0,5,5,5,,,,,,,,,"(-0.25, -0.04)",images/min2.png,6,0.048621928785,0.795054853312,[ 0.3921875  -0.21944444],,,2018_Jul_08_1313,59.7167650364,sequenceLearningTask,001,159,
min1.png,min2.png,min3.png,min4.png,allBlank.png,,,,,,,,,,,,0,5,5,5,,,,,,,,,"(0.75, -0.04)",images/min4.png,6,0.0611228466732,0.701782276272,[-0.1484375  -0.13888889],,,2018_Jul_08_1313,59.7167650364,sequenceLearningTask,001,159,
min1.png,min2.png,min3.png,min4.png,allBlank.png,,,,,,,,,,,,0,5,5,5,,,,,,,,,"(0.75, -0.04)",images/min4.png,6,0.0485329031944,0.79491413536,[ 0.7328125   0.01944444],,,2018_Jul_08_1313,59.7167650364,sequenceLearningTask,001,159,
min1.png,min2.png,min3.png,min4.png,allBlank.png,,,,,,,,,,,,0,5,5,5,,,,,,,,,"(-0.25, -0.04)",images/min2.png,6,0.0518260300159,0.626992973499,[ 0.709375   -0.05277778],,,2018_Jul_08_1313,59.7167650364,sequenceLearningTask,001,159,
min1.png,min2.png,min3.png,min4.png,allBlank.png,,,,,,,,,,,,0,5,5,5,,,,,,,,,"(0.25, -0.04)",images/min3.png,6,0.0669739212608,0.713484835462,[-0.278125 -0.35    ],,,2018_Jul_08_1313,59.7167650364,sequenceLearningTask,001,159,
min1.png,min2.png,min3.png,min4.png,allBlank.png,,,,,,,,,,,,0,5,5,5,,,,,,,,,"(0.75, -0.04)",images/min4.png,6,0.0553415158065,0.537397112814,[ 0.3203125  -0.03611111],,,2018_Jul_08_1313,59.7167650364,sequenceLearningTask,001,159,
min1.png,min2.png,min3.png,min4.png,allBlank.png,,,,,,,,,,,,0,6,6,6,,,,,,,,,"(-0.75, -0.04)",images/min1.png,7,0.0604824367911,0.748599077458,[ 0.6515625  -0.04166667],,,2018_Jul_08_1313,59.7167650364,sequenceLearningTask,001,159,
min1.png,min2.png,min3.png,min4.png,allBlank.png,,,,,,,,,,,,0,6,6,6,,,,,,,,,"(0.25, -0.04)",images/min3.png,7,0.0587511553895,0.500679999706,[-0.6671875  -0.24444444],,,2018_Jul_08_1313,59.7167650364,sequenceLearningTask,001,159,
min1.png,min2.png,min3.png,min4.png,allBlank.png,,,,,,,,,,,,0,6,6,6,,,,,,,,,"(-0.25, -0.04)",images/min2.png,7,0.0560836693039,0.749052000465,[ 0.2265625   0.09166667],,,2018_Jul_08_1313,59.7167650364,sequenceLearningTask,001,159,
min1.png,min2.png,min3.png,min4.png,allBlank.png,,,,,,,,,,,,0,6,6,6,,,,,,,,,"(0.75, -0.04)",images/min4.png,7,0.0606301289517,0.5173142493,[-0.1234375  -0.26111111],,,2018_Jul_08_1313,59.7167650364,sequenceLearningTask,001,159,
min1.png,min2.png,min3.png,min4.png,allBlank.png,,,,,,,,,,,,0,6,6,6,,,,,,,,,"(0.75, -0.04)",images/min4.png,7,0.0566051049391,0.78903803532,[ 0.715625   -0.00833333],,,2018_Jul_08_1313,59.7167650364,sequenceLearningTask,001,159,
min1.png,min2.png,min3.png,min4.png,allBlank.png,,,,,,,,,,,,0,6,6,6,,,,,,,,,"(-0.25, -0.04)",images/min2.png,7,0.0503729024203,0.770834965748,[ 0.7046875   0.12777778],,,2018_Jul_08_1313,59.7167650364,sequenceLearningTask,001,159,
min1.png,min2.png,min3.png,min4.png,allBlank.png,,,,,,,,,,,,0,6,6,6,,,,,,,,,"(0.25, -0.04)",images/min3.png,7,0.0573669507867,0.567446741508,[-0.0921875  -0.14722222],,,2018_Jul_08_1313,59.7167650364,sequenceLearningTask,001,159,
min1.png,min2.png,min3.png,min4.png,allBlank.png,,,,,,,,,,,,0,6,6,6,,,,,,,,,"(0.75, -0.04)",images/min4.png,7,0.0549480799818,0.507217022707,[ 0.3296875   0.01388889],,,2018_Jul_08_1313,59.7167650364,sequenceLearningTask,001,159,
min1.png,min2.png,min3.png,min4.png,allBlank.png,,,,,,,,,,,,0,7,7,7,,,,,,,,,"(-0.75, -0.04)",images/min1.png,8,0.0500217230292,0.806108387187,[ 0.6         0.08055556],,,2018_Jul_08_1313,59.7167650364,sequenceLearningTask,001,159,
min1.png,min2.png,min3.png,min4.png,allBlank.png,,,,,,,,,,,,0,7,7,7,,,,,,,,,"(0.25, -0.04)",images/min3.png,8,0.0607577187475,0.542643059394,[-0.7203125  -0.18055556],,,2018_Jul_08_1313,59.7167650364,sequenceLearningTask,001,159,
min1.png,min2.png,min3.png,min4.png,allBlank.png,,,,,,,,,,,,0,7,7,7,,,,,,,,,"(-0.25, -0.04)",images/min2.png,8,0.05877248873,0.70051458443,[ 0.215625  0.05    ],,,2018_Jul_08_1313,59.7167650364,sequenceLearningTask,001,159,
min1.png,min2.png,min3.png,min4.png,allBlank.png,,,,,,,,,,,,0,7,7,7,,,,,,,,,"(0.75, -0.04)",images/min4.png,8,0.0506867483491,0.491692516254,[-0.1125     -0.11111111],,,2018_Jul_08_1313,59.7167650364,sequenceLearningTask,001,159,
min1.png,min2.png,min3.png,min4.png,allBlank.png,,,,,,,,,,,,0,7,7,7,,,,,,,,,"(0.75, -0.04)",images/min4.png,8,0.05704202794,1.02072450425,[ 0.7078125   0.07222222],,,2018_Jul_08_1313,59.7167650364,sequenceLearningTask,001,159,
min1.png,min2.png,min3.png,min4.png,allBlank.png,,,,,,,,,,,,0,7,7,7,,,,,,,,,"(-0.25, -0.04)",images/min2.png,8,0.0492094157962,0.573612072389,[ 0.7296875   0.07777778],,,2018_Jul_08_1313,59.7167650364,sequenceLearningTask,001,159,
min1.png,min2.png,min3.png,min4.png,allBlank.png,,,,,,,,,,,,0,7,7,7,,,,,,,,,"(0.25, -0.04)",images/min3.png,8,0.058253924828,0.535991164739,[-0.1421875  -0.15833333],,,2018_Jul_08_1313,59.7167650364,sequenceLearningTask,001,159,
min1.png,min2.png,min3.png,min4.png,allBlank.png,,,,,,,,,,,,0,7,7,7,,,,,,,,,"(0.75, -0.04)",images/min4.png,8,0.0551006953465,0.453966172761,[ 0.26875     0.00833333],,,2018_Jul_08_1313,59.7167650364,sequenceLearningTask,001,159,
min1.png,min2.png,min3.png,min4.png,allBlank.png,,,,,,,,,,,,0,8,8,8,,,,,,,,,"(-0.75, -0.04)",images/min1.png,9,0.0544446955901,0.618639746215,[ 0.7078125   0.11666667],,,2018_Jul_08_1313,59.7167650364,sequenceLearningTask,001,159,
min1.png,min2.png,min3.png,min4.png,allBlank.png,,,,,,,,,,,,0,8,8,8,,,,,,,,,"(0.25, -0.04)",images/min3.png,9,0.0563232589047,0.484555288334,[-0.615625   -0.29444444],,,2018_Jul_08_1313,59.7167650364,sequenceLearningTask,001,159,
min1.png,min2.png,min3.png,min4.png,allBlank.png,,,,,,,,,,,,0,8,8,8,,,,,,,,,"(-0.25, -0.04)",images/min2.png,9,0.0583971041488,0.718046474736,[ 0.3328125   0.05555556],,,2018_Jul_08_1313,59.7167650364,sequenceLearningTask,001,159,
min1.png,min2.png,min3.png,min4.png,allBlank.png,,,,,,,,,,,,0,8,8,8,,,,,,,,,"(0.75, -0.04)",images/min4.png,9,0.062906640931,0.545707263285,[-0.2078125  -0.16388889],,,2018_Jul_08_1313,59.7167650364,sequenceLearningTask,001,159,
min1.png,min2.png,min3.png,min4.png,allBlank.png,,,,,,,,,,,,0,8,8,8,,,,,,,,,"(0.75, -0.04)",images/min4.png,9,0.0552943362854,1.03952326591,[ 0.7375      0.14444444],,,2018_Jul_08_1313,59.7167650364,sequenceLearningTask,001,159,
min1.png,min2.png,min3.png,min4.png,allBlank.png,,,,,,,,,,,,0,8,8,8,,,,,,,,,"(-0.25, -0.04)",images/min2.png,9,0.0588598733302,0.599029497826,[ 0.825      -0.02222222],,,2018_Jul_08_1313,59.7167650364,sequenceLearningTask,001,159,
min1.png,min2.png,min3.png,min4.png,allBlank.png,,,,,,,,,,,,0,8,8,8,,,,,,,,,"(0.25, -0.04)",images/min3.png,9,0.0564221306704,0.786846856703,[-0.2640625  -0.10833333],,,2018_Jul_08_1313,59.7167650364,sequenceLearningTask,001,159,
min1.png,min2.png,min3.png,min4.png,allBlank.png,,,,,,,,,,,,0,8,8,8,,,,,,,,,"(0.75, -0.04)",images/min4.png,9,0.0577977198409,0.533692909288,[ 0.2359375  -0.18888889],,,2018_Jul_08_1313,59.7167650364,sequenceLearningTask,001,159,
min1.png,min2.png,min3.png,min4.png,allBlank.png,,,,,,,,,,,,0,9,9,9,,,,,,,,,"(-0.75, -0.04)",images/min1.png,10,0.0573357713874,0.616333695827,[ 0.7078125  -0.13888889],,,2018_Jul_08_1313,59.7167650364,sequenceLearningTask,001,159,
min1.png,min2.png,min3.png,min4.png,allBlank.png,,,,,,,,,,,,0,9,9,9,,,,,,,,,"(0.25, -0.04)",images/min3.png,10,0.0530297218356,0.594271345879,[-0.6984375  -0.10833333],,,2018_Jul_08_1313,59.7167650364,sequenceLearningTask,001,159,
min1.png,min2.png,min3.png,min4.png,allBlank.png,,,,,,,,,,,,0,9,9,9,,,,,,,,,"(-0.25, -0.04)",images/min2.png,10,0.0543962853262,0.706850581802,[ 0.1671875  -0.01388889],,,2018_Jul_08_1313,59.7167650364,sequenceLearningTask,001,159,
min1.png,min2.png,min3.png,min4.png,allBlank.png,,,,,,,,,,,,0,9,9,9,,,,,,,,,"(0.75, -0.04)",images/min4.png,10,0.0572898226092,0.547693313798,[-0.240625   -0.26944444],,,2018_Jul_08_1313,59.7167650364,sequenceLearningTask,001,159,
min1.png,min2.png,min3.png,min4.png,allBlank.png,,,,,,,,,,,,0,9,9,9,,,,,,,,,"(0.75, -0.04)",images/min4.png,10,0.0577226430178,0.754435793147,[ 0.7703125  -0.13055556],,,2018_Jul_08_1313,59.7167650364,sequenceLearningTask,001,159,
min1.png,min2.png,min3.png,min4.png,allBlank.png,,,,,,,,,,,,0,9,9,9,,,,,,,,,"(-0.25, -0.04)",images/min2.png,10,0.050418030587,0.659343319247,[ 0.68125    -0.18611111],,,2018_Jul_08_1313,59.7167650364,sequenceLearningTask,001,159,
min1.png,min2.png,min3.png,min4.png,allBlank.png,,,,,,,,,,,,0,9,9,9,,,,,,,,,"(0.25, -0.04)",images/min3.png,10,0.0624401795212,0.530300910701,[-0.215625   -0.14166667],,,2018_Jul_08_1313,59.7167650364,sequenceLearningTask,001,159,
min1.png,min2.png,min3.png,min4.png,allBlank.png,,,,,,,,,,,,0,9,9,9,,,,,,,,,"(0.75, -0.04)",images/min4.png,10,0.0547757723834,0.637972661294,[ 0.3328125  -0.10555556],,,2018_Jul_08_1313,59.7167650364,sequenceLearningTask,001,159,
min1.png,min2.png,min3.png,min4.png,images/allBlank.png,"['num_7', 'num_4', 'num_1', 'num_0']",['num_0'],num_0,[4],'num_0',images/min4.png,"[(0.45, 0.79)]",,,,,0,-1,-1,0,0,0,0,3,,,,,"(0.75, 0.04)",images/min4.png,1,0.026305630221,0.968772115419,[ 0.7078125  -0.05555556],,,2018_Jul_08_1313,59.7167650364,sequenceLearningTask,001,159,
min1.png,min2.png,min3.png,min4.png,images/allBlank.png,"['num_7', 'num_4', 'num_1', 'num_0']",['num_0'],num_0,[4],'num_0',images/min4.png,"[(0.45, 0.79)]",,,,,0,-1,-1,0,0,0,0,3,,,,,"(0.25, 0.04)",images/min3.png,1,0.0554424388101,0.50070256379,[ 0.71875     0.15833333],,,2018_Jul_08_1313,59.7167650364,sequenceLearningTask,001,159,
min1.png,min2.png,min3.png,min4.png,images/allBlank.png,"['num_7', 'num_4', 'num_1', 'num_0']",['num_0'],num_0,[4],'num_0',images/min4.png,"[(0.45, 0.79)]",,,,,0,-1,-1,0,0,0,0,3,,,,,"(0.25, 0.04)",images/min3.png,1,0.0581747454125,0.516888403334,[ 0.371875    0.06944444],,,2018_Jul_08_1313,59.7167650364,sequenceLearningTask,001,159,
min1.png,min2.png,min3.png,min4.png,images/allBlank.png,"['num_7', 'num_4', 'num_1', 'num_0']",['num_0'],num_0,[4],'num_0',images/min4.png,"[(0.45, 0.79)]",,,,,0,-1,-1,0,0,0,0,3,,,,,"(0.25, 0.04)",images/min3.png,1,0.0497337231645,0.405836141203,[ 0.3171875 -0.025    ],,,2018_Jul_08_1313,59.7167650364,sequenceLearningTask,001,159,
min1.png,min2.png,min3.png,min4.png,images/allBlank.png,"['num_7', 'num_4', 'num_1', 'num_0']",['num_1'],num_1,[3],'num_1',images/min3.png,"[(0.45, 0.79)]",,,,,0,-1,-1,0,0,1,1,2,,,,,"(0.25, 0.04)",images/min3.png,2,0.0552188490983,0.432249258505,[ 0.3296875  -0.00555556],,,2018_Jul_08_1313,59.7167650364,sequenceLearningTask,001,159,
min1.png,min2.png,min3.png,min4.png,images/allBlank.png,"['num_7', 'num_4', 'num_1', 'num_0']",['num_1'],num_1,[3],'num_1',images/min3.png,"[(0.45, 0.79)]",,,,,0,-1,-1,0,0,1,1,2,,,,,"(-0.75, 0.04)",images/min1.png,2,0.0579298223602,0.728615085711,[ 0.3578125  -0.04166667],,,2018_Jul_08_1313,59.7167650364,sequenceLearningTask,001,159,
min1.png,min2.png,min3.png,min4.png,images/allBlank.png,"['num_7', 'num_4', 'num_1', 'num_0']",['num_1'],num_1,[3],'num_1',images/min3.png,"[(0.45, 0.79)]",,,,,0,-1,-1,0,0,1,1,2,,,,,"(-0.75, 0.04)",images/min1.png,2,0.0577452069847,0.696247509215,[-0.6859375 -0.075    ],,,2018_Jul_08_1313,59.7167650364,sequenceLearningTask,001,159,
min1.png,min2.png,min3.png,min4.png,images/allBlank.png,"['num_7', 'num_4', 'num_1', 'num_0']",['num_1'],num_1,[3],'num_1',images/min3.png,"[(0.45, 0.79)]",,,,,0,-1,-1,0,0,1,1,2,,,,,"(-0.75, 0.04)",images/min1.png,2,0.0634096149588,0.773072913638,[-0.5984375  -0.21944444],,,2018_Jul_08_1313,59.7167650364,sequenceLearningTask,001,159,
min1.png,min2.png,min3.png,min4.png,images/allBlank.png,"['num_7', 'num_4', 'num_1', 'num_0']",['num_4'],num_4,[2],'num_4',images/min2.png,"[(0.45, 0.79)]",,,,,0,-1,-1,0,0,2,2,1,,,,,"(-0.75, 0.04)",images/min1.png,3,0.0514469532063,0.607703955844,[-0.6421875  -0.31111111],,,2018_Jul_08_1313,59.7167650364,sequenceLearningTask,001,159,
min1.png,min2.png,min3.png,min4.png,images/allBlank.png,"['num_7', 'num_4', 'num_1', 'num_0']",['num_4'],num_4,[2],'num_4',images/min2.png,"[(0.45, 0.79)]",,,,,0,-1,-1,0,0,2,2,1,,,,,"(-0.25, 0.04)",images/min2.png,3,0.0625800768612,0.561614538892,[-0.675      -0.33055556],,,2018_Jul_08_1313,59.7167650364,sequenceLearningTask,001,159,
min1.png,min2.png,min3.png,min4.png,images/allBlank.png,"['num_7', 'num_4', 'num_1', 'num_0']",['num_4'],num_4,[2],'num_4',images/min2.png,"[(0.45, 0.79)]",,,,,0,-1,-1,0,0,2,2,1,,,,,"(-0.75, 0.04)",images/min1.png,3,0.0564664383419,0.685511513613,[-0.284375   -0.20833333],,,2018_Jul_08_1313,59.7167650364,sequenceLearningTask,001,159,
min1.png,min2.png,min3.png,min4.png,images/allBlank.png,"['num_7', 'num_4', 'num_1', 'num_0']",['num_4'],num_4,[2],'num_4',images/min2.png,"[(0.45, 0.79)]",,,,,0,-1,-1,0,0,2,2,1,,,,,"(0.75, 0.04)",images/min4.png,3,0.0550457210047,0.516305429162,[-0.7015625  -0.18611111],,,2018_Jul_08_1313,59.7167650364,sequenceLearningTask,001,159,
min1.png,min2.png,min3.png,min4.png,images/allBlank.png,"['num_7', 'num_4', 'num_1', 'num_0']",['num_7'],num_7,[1],'num_7',images/min1.png,"[(0.45, 0.79)]",,,,,0,-1,-1,0,0,3,3,0,,,,,"(-0.25, 0.04)",images/min2.png,4,0.0619659232907,0.576828891528,[ 0.7328125   0.03333333],,,2018_Jul_08_1313,59.7167650364,sequenceLearningTask,001,159,
min1.png,min2.png,min3.png,min4.png,images/allBlank.png,"['num_7', 'num_4', 'num_1', 'num_0']",['num_7'],num_7,[1],'num_7',images/min1.png,"[(0.45, 0.79)]",,,,,0,-1,-1,0,0,3,3,0,,,,,"(0.25, 0.04)",images/min3.png,4,0.0660729985684,0.707589863567,[-0.2296875  -0.21388889],,,2018_Jul_08_1313,59.7167650364,sequenceLearningTask,001,159,
min1.png,min2.png,min3.png,min4.png,images/allBlank.png,"['num_7', 'num_4', 'num_1', 'num_0']",['num_7'],num_7,[1],'num_7',images/min1.png,"[(0.45, 0.79)]",,,,,0,-1,-1,0,0,3,3,0,,,,,"(-0.25, 0.04)",images/min2.png,4,0.0555901309708,0.549004902947,[ 0.2109375  -0.11944444],,,2018_Jul_08_1313,59.7167650364,sequenceLearningTask,001,159,
min1.png,min2.png,min3.png,min4.png,images/allBlank.png,"['num_7', 'num_4', 'num_1', 'num_0']",['num_7'],num_7,[1],'num_7',images/min1.png,"[(0.45, 0.79)]",,,,,0,-1,-1,0,0,3,3,0,,,,,"(0.25, 0.04)",images/min3.png,4,0.056541925529,0.513283481705,[-0.259375   -0.21388889],,,2018_Jul_08_1313,59.7167650364,sequenceLearningTask,001,159,
min1.png,min2.png,min3.png,min4.png,images/allBlank.png,"['num_7', 'num_4', 'num_1', 'num_0']",['num_0'],num_0,[4],'num_0',images/min4.png,"[(0.45, 0.79)]",,,,,0,-1,-1,0,1,0,4,3,,,,,"(0.25, 0.04)",images/min3.png,5,0.0624422308756,0.458742786199,[ 0.1734375   0.00277778],,,2018_Jul_08_1313,59.7167650364,sequenceLearningTask,001,159,
min1.png,min2.png,min3.png,min4.png,images/allBlank.png,"['num_7', 'num_4', 'num_1', 'num_0']",['num_0'],num_0,[4],'num_0',images/min4.png,"[(0.45, 0.79)]",,,,,0,-1,-1,0,1,0,4,3,,,,,"(-0.75, 0.04)",images/min1.png,5,0.0626481794752,0.761706764461,[ 0.2015625  -0.17777778],,,2018_Jul_08_1313,59.7167650364,sequenceLearningTask,001,159,
min1.png,min2.png,min3.png,min4.png,images/allBlank.png,"['num_7', 'num_4', 'num_1', 'num_0']",['num_0'],num_0,[4],'num_0',images/min4.png,"[(0.45, 0.79)]",,,,,0,-1,-1,0,1,0,4,3,,,,,"(0.75, 0.04)",images/min4.png,5,0.074724071892,0.513850045623,[-0.7453125  -0.08611111],,,2018_Jul_08_1313,59.7167650364,sequenceLearningTask,001,159,
min1.png,min2.png,min3.png,min4.png,images/allBlank.png,"['num_7', 'num_4', 'num_1', 'num_0']",['num_0'],num_0,[4],'num_0',images/min4.png,"[(0.45, 0.79)]",,,,,0,-1,-1,0,1,0,4,3,,,,,"(0.75, 0.04)",images/min4.png,5,0.0554563875776,0.753536101081,[ 0.709375   -0.15555556],,,2018_Jul_08_1313,59.7167650364,sequenceLearningTask,001,159,
min1.png,min2.png,min3.png,min4.png,images/allBlank.png,"['num_7', 'num_4', 'num_1', 'num_0']",['num_7'],num_7,[1],'num_7',images/min1.png,"[(0.45, 0.79)]",,,,,0,-1,-1,0,1,1,5,0,,,,,"(0.25, 0.04)",images/min3.png,6,0.0602773085702,0.530465423479,[ 0.8234375  -0.08055556],,,2018_Jul_08_1313,59.7167650364,sequenceLearningTask,001,159,
min1.png,min2.png,min3.png,min4.png,images/allBlank.png,"['num_7', 'num_4', 'num_1', 'num_0']",['num_7'],num_7,[1],'num_7',images/min1.png,"[(0.45, 0.79)]",,,,,0,-1,-1,0,1,1,5,0,,,,,"(0.25, 0.04)",images/min3.png,6,0.0617025387473,0.529094757279,[ 0.2703125  -0.14166667],,,2018_Jul_08_1313,59.7167650364,sequenceLearningTask,001,159,
min1.png,min2.png,min3.png,min4.png,images/allBlank.png,"['num_7', 'num_4', 'num_1', 'num_0']",['num_7'],num_7,[1],'num_7',images/min1.png,"[(0.45, 0.79)]",,,,,0,-1,-1,0,1,1,5,0,,,,,"(0.75, 0.04)",images/min4.png,6,0.0584438735386,0.614921593922,[ 0.19375    -0.20277778],,,2018_Jul_08_1313,59.7167650364,sequenceLearningTask,001,159,
min1.png,min2.png,min3.png,min4.png,images/allBlank.png,"['num_7', 'num_4', 'num_1', 'num_0']",['num_7'],num_7,[1],'num_7',images/min1.png,"[(0.45, 0.79)]",,,,,0,-1,-1,0,1,1,5,0,,,,,"(-0.25, 0.04)",images/min2.png,6,0.0648225374753,0.677998901345,[ 0.7359375  -0.13611111],,,2018_Jul_08_1313,59.7167650364,sequenceLearningTask,001,159,
min1.png,min2.png,min3.png,min4.png,images/allBlank.png,"['num_7', 'num_4', 'num_1', 'num_0']",['num_1'],num_1,[3],'num_1',images/min3.png,"[(0.45, 0.79)]",,,,,0,-1,-1,0,1,2,6,2,,,,,"(-0.25, 0.04)",images/min2.png,7,0.0616693079937,0.577556686127,[-0.2671875  -0.18055556],,,2018_Jul_08_1313,59.7167650364,sequenceLearningTask,001,159,
min1.png,min2.png,min3.png,min4.png,images/allBlank.png,"['num_7', 'num_4', 'num_1', 'num_0']",['num_1'],num_1,[3],'num_1',images/min3.png,"[(0.45, 0.79)]",,,,,0,-1,-1,0,1,2,6,2,,,,,"(0.25, 0.04)",images/min3.png,7,0.0587220272282,0.615795849939,[-0.2421875  -0.04722222],,,2018_Jul_08_1313,59.7167650364,sequenceLearningTask,001,159,
min1.png,min2.png,min3.png,min4.png,images/allBlank.png,"['num_7', 'num_4', 'num_1', 'num_0']",['num_1'],num_1,[3],'num_1',images/min3.png,"[(0.45, 0.79)]",,,,,0,-1,-1,0,1,2,6,2,,,,,"(0.25, 0.04)",images/min3.png,7,0.0572881816188,0.481925135595,[ 0.2265625  -0.13055556],,,2018_Jul_08_1313,59.7167650364,sequenceLearningTask,001,159,
min1.png,min2.png,min3.png,min4.png,images/allBlank.png,"['num_7', 'num_4', 'num_1', 'num_0']",['num_1'],num_1,[3],'num_1',images/min3.png,"[(0.45, 0.79)]",,,,,0,-1,-1,0,1,2,6,2,,,,,"(-0.75, 0.04)",images/min1.png,7,0.0499864410376,0.809057719307,[ 0.296875   -0.08611111],,,2018_Jul_08_1313,59.7167650364,sequenceLearningTask,001,159,
min1.png,min2.png,min3.png,min4.png,images/allBlank.png,"['num_7', 'num_4', 'num_1', 'num_0']",['num_4'],num_4,[2],'num_4',images/min2.png,"[(0.45, 0.79)]",,,,,0,-1,-1,0,1,3,7,1,,,,,"(0.25, 0.04)",images/min3.png,8,0.0576278737281,0.744098976837,[-0.6328125  -0.09166667],,,2018_Jul_08_1313,59.7167650364,sequenceLearningTask,001,159,
min1.png,min2.png,min3.png,min4.png,images/allBlank.png,"['num_7', 'num_4', 'num_1', 'num_0']",['num_4'],num_4,[2],'num_4',images/min2.png,"[(0.45, 0.79)]",,,,,0,-1,-1,0,1,3,7,1,,,,,"(0.75, 0.04)",images/min4.png,8,0.0641205891734,0.477377445204,[ 0.2828125  -0.14166667],,,2018_Jul_08_1313,59.7167650364,sequenceLearningTask,001,159,
min1.png,min2.png,min3.png,min4.png,images/allBlank.png,"['num_7', 'num_4', 'num_1', 'num_0']",['num_4'],num_4,[2],'num_4',images/min2.png,"[(0.45, 0.79)]",,,,,0,-1,-1,0,1,3,7,1,,,,,"(0.75, 0.04)",images/min4.png,8,0.0562535154168,0.51951568434,[ 0.7515625  -0.05833333],,,2018_Jul_08_1313,59.7167650364,sequenceLearningTask,001,159,
min1.png,min2.png,min3.png,min4.png,images/allBlank.png,"['num_7', 'num_4', 'num_1', 'num_0']",['num_4'],num_4,[2],'num_4',images/min2.png,"[(0.45, 0.79)]",,,,,0,-1,-1,0,1,3,7,1,,,,,"(0.75, 0.04)",images/min4.png,8,0.0588972065598,0.514179071062,[ 0.796875   -0.13333333],,,2018_Jul_08_1313,59.7167650364,sequenceLearningTask,001,159,
min1.png,min2.png,min3.png,min4.png,images/allBlank.png,"['num_7', 'num_4', 'num_1', 'num_0']",['num_4'],num_4,[2],'num_4',images/min2.png,"[(0.45, 0.79)]",,,,,0,-1,-1,0,2,0,8,1,,,,,"(-0.75, 0.04)",images/min1.png,9,0.0614412055584,0.761679687537,[ 0.734375   -0.20833333],,,2018_Jul_08_1313,59.7167650364,sequenceLearningTask,001,159,
min1.png,min2.png,min3.png,min4.png,images/allBlank.png,"['num_7', 'num_4', 'num_1', 'num_0']",['num_4'],num_4,[2],'num_4',images/min2.png,"[(0.45, 0.79)]",,,,,0,-1,-1,0,2,0,8,1,,,,,"(-0.75, 0.04)",images/min1.png,9,0.0550801825011,0.954255198245,[-0.7140625  -0.06388889],,,2018_Jul_08_1313,59.7167650364,sequenceLearningTask,001,159,
min1.png,min2.png,min3.png,min4.png,images/allBlank.png,"['num_7', 'num_4', 'num_1', 'num_0']",['num_4'],num_4,[2],'num_4',images/min2.png,"[(0.45, 0.79)]",,,,,0,-1,-1,0,2,0,8,1,,,,,"(0.75, 0.04)",images/min4.png,9,0.0648196656257,0.591819654685,[-0.684375   -0.01388889],,,2018_Jul_08_1313,59.7167650364,sequenceLearningTask,001,159,
min1.png,min2.png,min3.png,min4.png,images/allBlank.png,"['num_7', 'num_4', 'num_1', 'num_0']",['num_4'],num_4,[2],'num_4',images/min2.png,"[(0.45, 0.79)]",,,,,0,-1,-1,0,2,0,8,1,,,,,"(-0.25, 0.04)",images/min2.png,9,0.0420467520598,0.567849613144,[ 0.590625  0.175   ],,,2018_Jul_08_1313,59.7167650364,sequenceLearningTask,001,159,
min1.png,min2.png,min3.png,min4.png,images/allBlank.png,"['num_7', 'num_4', 'num_1', 'num_0']",['num_1'],num_1,[3],'num_1',images/min3.png,"[(0.45, 0.79)]",,,,,0,-1,-1,0,2,1,9,2,,,,,"(-0.75, 0.04)",images/min1.png,10,0.0613411030499,0.710738580208,[-0.196875   -0.08611111],,,2018_Jul_08_1313,59.7167650364,sequenceLearningTask,001,159,
min1.png,min2.png,min3.png,min4.png,images/allBlank.png,"['num_7', 'num_4', 'num_1', 'num_0']",['num_1'],num_1,[3],'num_1',images/min3.png,"[(0.45, 0.79)]",,,,,0,-1,-1,0,2,1,9,2,,,,,"(-0.25, 0.04)",images/min2.png,10,0.0579610018758,0.61151687731,[-0.6546875  -0.23888889],,,2018_Jul_08_1313,59.7167650364,sequenceLearningTask,001,159,
min1.png,min2.png,min3.png,min4.png,images/allBlank.png,"['num_7', 'num_4', 'num_1', 'num_0']",['num_1'],num_1,[3],'num_1',images/min3.png,"[(0.45, 0.79)]",,,,,0,-1,-1,0,2,1,9,2,,,,,"(0.25, 0.04)",images/min3.png,10,0.056579258875,0.501052512322,[-0.1765625  -0.13888889],,,2018_Jul_08_1313,59.7167650364,sequenceLearningTask,001,159,
min1.png,min2.png,min3.png,min4.png,images/allBlank.png,"['num_7', 'num_4', 'num_1', 'num_0']",['num_1'],num_1,[3],'num_1',images/min3.png,"[(0.45, 0.79)]",,,,,0,-1,-1,0,2,1,9,2,,,,,"(-0.75, 0.04)",images/min1.png,10,0.0629911536817,0.830542018288,[ 0.2453125  -0.05833333],,,2018_Jul_08_1313,59.7167650364,sequenceLearningTask,001,159,
min1.png,min2.png,min3.png,min4.png,images/allBlank.png,"['num_7', 'num_4', 'num_1', 'num_0']",['num_0'],num_0,[4],'num_0',images/min4.png,"[(0.45, 0.79)]",,,,,0,-1,-1,0,2,2,10,3,,,,,"(-0.25, 0.04)",images/min2.png,11,0.0613870517118,0.561693307944,[-0.6890625 -0.175    ],,,2018_Jul_08_1313,59.7167650364,sequenceLearningTask,001,159,
min1.png,min2.png,min3.png,min4.png,images/allBlank.png,"['num_7', 'num_4', 'num_1', 'num_0']",['num_0'],num_0,[4],'num_0',images/min4.png,"[(0.45, 0.79)]",,,,,0,-1,-1,0,2,2,10,3,,,,,"(-0.75, 0.04)",images/min1.png,11,0.0616914619459,0.781892191968,[-0.2203125  -0.15833333],,,2018_Jul_08_1313,59.7167650364,sequenceLearningTask,001,159,
min1.png,min2.png,min3.png,min4.png,images/allBlank.png,"['num_7', 'num_4', 'num_1', 'num_0']",['num_0'],num_0,[4],'num_0',images/min4.png,"[(0.45, 0.79)]",,,,,0,-1,-1,0,2,2,10,3,,,,,"(0.75, 0.04)",images/min4.png,11,0.060904180049,0.646757067996,[-0.7390625  -0.18611111],,,2018_Jul_08_1313,59.7167650364,sequenceLearningTask,001,159,
min1.png,min2.png,min3.png,min4.png,images/allBlank.png,"['num_7', 'num_4', 'num_1', 'num_0']",['num_0'],num_0,[4],'num_0',images/min4.png,"[(0.45, 0.79)]",,,,,0,-1,-1,0,2,2,10,3,,,,,"(0.75, 0.04)",images/min4.png,11,0.0662875626003,0.743685438531,[ 0.671875    0.01388889],,,2018_Jul_08_1313,59.7167650364,sequenceLearningTask,001,159,
min1.png,min2.png,min3.png,min4.png,images/allBlank.png,"['num_7', 'num_4', 'num_1', 'num_0']",['num_7'],num_7,[1],'num_7',images/min1.png,"[(0.45, 0.79)]",,,,,0,-1,-1,0,2,3,11,0,,,,,"(0.25, 0.04)",images/min3.png,12,0.0618526926264,0.595857396489,[ 0.609375   -0.00833333],,,2018_Jul_08_1313,59.7167650364,sequenceLearningTask,001,159,
min1.png,min2.png,min3.png,min4.png,images/allBlank.png,"['num_7', 'num_4', 'num_1', 'num_0']",['num_7'],num_7,[1],'num_7',images/min1.png,"[(0.45, 0.79)]",,,,,0,-1,-1,0,2,3,11,0,,,,,"(-0.25, 0.04)",images/min2.png,12,0.0641882814234,0.61121287744,[ 0.3640625   0.05833333],,,2018_Jul_08_1313,59.7167650364,sequenceLearningTask,001,159,
min1.png,min2.png,min3.png,min4.png,images/allBlank.png,"['num_7', 'num_4', 'num_1', 'num_0']",['num_7'],num_7,[1],'num_7',images/min1.png,"[(0.45, 0.79)]",,,,,0,-1,-1,0,2,3,11,0,,,,,"(-0.25, 0.04)",images/min2.png,12,0.0632697176188,0.643858197378,[-0.246875   -0.10277778],,,2018_Jul_08_1313,59.7167650364,sequenceLearningTask,001,159,
min1.png,min2.png,min3.png,min4.png,images/allBlank.png,"['num_7', 'num_4', 'num_1', 'num_0']",['num_7'],num_7,[1],'num_7',images/min1.png,"[(0.45, 0.79)]",,,,,0,-1,-1,0,2,3,11,0,,,,,"(-0.25, 0.04)",images/min2.png,12,0.0559179257834,0.753118050052,[-0.14375    -0.27777778],,,2018_Jul_08_1313,59.7167650364,sequenceLearningTask,001,159,
min1.png,min2.png,min3.png,min4.png,images/allBlank.png,"['num_7', 'num_4', 'num_1', 'num_0']",['num_7'],num_7,[1],'num_7',images/min1.png,"[(0.45, 0.79)]",,,,,0,-1,-1,0,3,0,12,0,,,,,"(0.25, 0.04)",images/min3.png,13,0.0632418202003,0.662034189911,[-0.190625   -0.13055556],,,2018_Jul_08_1313,59.7167650364,sequenceLearningTask,001,159,
min1.png,min2.png,min3.png,min4.png,images/allBlank.png,"['num_7', 'num_4', 'num_1', 'num_0']",['num_7'],num_7,[1],'num_7',images/min1.png,"[(0.45, 0.79)]",,,,,0,-1,-1,0,3,0,12,0,,,,,"(-0.25, 0.04)",images/min2.png,13,0.0481074674753,0.762951071607,[ 0.4015625  -0.20833333],,,2018_Jul_08_1313,59.7167650364,sequenceLearningTask,001,159,
min1.png,min2.png,min3.png,min4.png,images/allBlank.png,"['num_7', 'num_4', 'num_1', 'num_0']",['num_7'],num_7,[1],'num_7',images/min1.png,"[(0.45, 0.79)]",,,,,0,-1,-1,0,3,0,12,0,,,,,"(0.75, 0.04)",images/min4.png,13,0.0505784407724,0.643138607848,[-0.1953125  -0.12777778],,,2018_Jul_08_1313,59.7167650364,sequenceLearningTask,001,159,
min1.png,min2.png,min3.png,min4.png,images/allBlank.png,"['num_7', 'num_4', 'num_1', 'num_0']",['num_7'],num_7,[1],'num_7',images/min1.png,"[(0.45, 0.79)]",,,,,0,-1,-1,0,3,0,12,0,,,,,"(0.25, 0.04)",images/min3.png,13,0.0561017205473,0.569967355928,[ 0.6578125   0.08055556],,,2018_Jul_08_1313,59.7167650364,sequenceLearningTask,001,159,
min1.png,min2.png,min3.png,min4.png,images/allBlank.png,"['num_7', 'num_4', 'num_1', 'num_0']",['num_1'],num_1,[3],'num_1',images/min3.png,"[(0.45, 0.79)]",,,,,0,-1,-1,0,3,1,13,2,,,,,"(-0.25, 0.04)",images/min2.png,14,0.0536955677671,0.667791726068,[ 0.321875   -0.11388889],,,2018_Jul_08_1313,59.7167650364,sequenceLearningTask,001,159,
min1.png,min2.png,min3.png,min4.png,images/allBlank.png,"['num_7', 'num_4', 'num_1', 'num_0']",['num_1'],num_1,[3],'num_1',images/min3.png,"[(0.45, 0.79)]",,,,,0,-1,-1,0,3,1,13,2,,,,,"(0.75, 0.04)",images/min4.png,14,0.0587076683296,1.40964454983,[-0.1375     -0.13055556],,,2018_Jul_08_1313,59.7167650364,sequenceLearningTask,001,159,
min1.png,min2.png,min3.png,min4.png,images/allBlank.png,"['num_7', 'num_4', 'num_1', 'num_0']",['num_1'],num_1,[3],'num_1',images/min3.png,"[(0.45, 0.79)]",,,,,0,-1,-1,0,3,1,13,2,,,,,"(-0.75, 0.04)",images/min1.png,14,0.0587880783714,0.66932034085,[ 0.7359375  -0.04166667],,,2018_Jul_08_1313,59.7167650364,sequenceLearningTask,001,159,
min1.png,min2.png,min3.png,min4.png,images/allBlank.png,"['num_7', 'num_4', 'num_1', 'num_0']",['num_1'],num_1,[3],'num_1',images/min3.png,"[(0.45, 0.79)]",,,,,0,-1,-1,0,3,1,13,2,,,,,"(0.75, 0.04)",images/min4.png,14,0.0463425450725,0.645230094204,[-0.790625   -0.14166667],,,2018_Jul_08_1313,59.7167650364,sequenceLearningTask,001,159,
min1.png,min2.png,min3.png,min4.png,images/allBlank.png,"['num_7', 'num_4', 'num_1', 'num_0']",['num_0'],num_0,[4],'num_0',images/min4.png,"[(0.45, 0.79)]",,,,,0,-1,-1,0,3,2,14,3,,,,,"(0.25, 0.04)",images/min3.png,15,0.0583704375895,0.632669278886,[ 0.66875    -0.01944444],,,2018_Jul_08_1313,59.7167650364,sequenceLearningTask,001,159,
min1.png,min2.png,min3.png,min4.png,images/allBlank.png,"['num_7', 'num_4', 'num_1', 'num_0']",['num_0'],num_0,[4],'num_0',images/min4.png,"[(0.45, 0.79)]",,,,,0,-1,-1,0,3,2,14,3,,,,,"(-0.25, 0.04)",images/min2.png,15,0.0563089000061,0.537310138461,[ 0.2015625  -0.15555556],,,2018_Jul_08_1313,59.7167650364,sequenceLearningTask,001,159,
min1.png,min2.png,min3.png,min4.png,images/allBlank.png,"['num_7', 'num_4', 'num_1', 'num_0']",['num_0'],num_0,[4],'num_0',images/min4.png,"[(0.45, 0.79)]",,,,,0,-1,-1,0,3,2,14,3,,,,,"(-0.25, 0.04)",images/min2.png,15,0.0636656149291,0.776834553108,[-0.2296875   0.00277778],,,2018_Jul_08_1313,59.7167650364,sequenceLearningTask,001,159,
min1.png,min2.png,min3.png,min4.png,images/allBlank.png,"['num_7', 'num_4', 'num_1', 'num_0']",['num_0'],num_0,[4],'num_0',images/min4.png,"[(0.45, 0.79)]",,,,,0,-1,-1,0,3,2,14,3,,,,,"(0.75, 0.04)",images/min4.png,15,0.0488721850561,0.727551291231,[-0.175      -0.03333333],,,2018_Jul_08_1313,59.7167650364,sequenceLearningTask,001,159,
min1.png,min2.png,min3.png,min4.png,images/allBlank.png,"['num_7', 'num_4', 'num_1', 'num_0']",['num_4'],num_4,[2],'num_4',images/min2.png,"[(0.45, 0.79)]",,,,,0,-1,-1,0,3,3,15,1,,,,,"(-0.75, 0.04)",images/min1.png,16,0.0604319751728,0.680512131075,[ 0.7140625   0.17222222],,,2018_Jul_08_1313,59.7167650364,sequenceLearningTask,001,159,
min1.png,min2.png,min3.png,min4.png,images/allBlank.png,"['num_7', 'num_4', 'num_1', 'num_0']",['num_4'],num_4,[2],'num_4',images/min2.png,"[(0.45, 0.79)]",,,,,0,-1,-1,0,3,3,15,1,,,,,"(0.75, 0.04)",images/min4.png,16,0.0516377224121,0.536979882279,[-0.6859375  -0.08611111],,,2018_Jul_08_1313,59.7167650364,sequenceLearningTask,001,159,
min1.png,min2.png,min3.png,min4.png,images/allBlank.png,"['num_7', 'num_4', 'num_1', 'num_0']",['num_4'],num_4,[2],'num_4',images/min2.png,"[(0.45, 0.79)]",,,,,0,-1,-1,0,3,3,15,1,,,,,"(0.25, 0.04)",images/min3.png,16,0.0570063355844,0.618887541001,[ 0.7140625   0.04166667],,,2018_Jul_08_1313,59.7167650364,sequenceLearningTask,001,159,
min1.png,min2.png,min3.png,min4.png,images/allBlank.png,"['num_7', 'num_4', 'num_1', 'num_0']",['num_4'],num_4,[2],'num_4',images/min2.png,"[(0.45, 0.79)]",,,,,0,-1,-1,0,3,3,15,1,,,,,"(-0.25, 0.04)",images/min2.png,16,0.060918539064,1.56322479458,[ 0.2234375  -0.20277778],0.410731318756,1,2018_Jul_08_1313,59.7167650364,sequenceLearningTask,001,159,
min1.png,min2.png,min3.png,min4.png,images/allBlank.png,"['num_7', 'num_4', 'num_1', 'num_0']",['num_1'],num_1,[3],'num_1',images/min3.png,"[(0.45, 0.79)]",,,,,0,-1,-1,0,4,0,16,2,,,,,"(-0.75, 0.04)",images/min1.png,17,0.0723761755507,0.727710060426,[-0.1421875  -0.08888889],,,2018_Jul_08_1313,59.7167650364,sequenceLearningTask,001,159,
min1.png,min2.png,min3.png,min4.png,images/allBlank.png,"['num_7', 'num_4', 'num_1', 'num_0']",['num_1'],num_1,[3],'num_1',images/min3.png,"[(0.45, 0.79)]",,,,,0,-1,-1,0,4,0,16,2,,,,,"(0.75, 0.04)",images/min4.png,17,0.0625685896957,0.479305649525,[-0.7171875  -0.06944444],,,2018_Jul_08_1313,59.7167650364,sequenceLearningTask,001,159,
min1.png,min2.png,min3.png,min4.png,images/allBlank.png,"['num_7', 'num_4', 'num_1', 'num_0']",['num_1'],num_1,[3],'num_1',images/min3.png,"[(0.45, 0.79)]",,,,,0,-1,-1,0,4,0,16,2,,,,,"(0.25, 0.04)",images/min3.png,17,0.0538145420142,0.8565079564,[ 0.7578125  0.125    ],,,2018_Jul_08_1313,59.7167650364,sequenceLearningTask,001,159,
min1.png,min2.png,min3.png,min4.png,images/allBlank.png,"['num_7', 'num_4', 'num_1', 'num_0']",['num_1'],num_1,[3],'num_1',images/min3.png,"[(0.45, 0.79)]",,,,,0,-1,-1,0,4,0,16,2,,,,,"(-0.25, 0.04)",images/min2.png,17,0.0641456147423,0.529292090563,[ 0.275      -0.20277778],,,2018_Jul_08_1313,59.7167650364,sequenceLearningTask,001,159,
min1.png,min2.png,min3.png,min4.png,images/allBlank.png,"['num_7', 'num_4', 'num_1', 'num_0']",['num_0'],num_0,[4],'num_0',images/min4.png,"[(0.45, 0.79)]",,,,,0,-1,-1,0,4,1,17,3,,,,,"(0.75, 0.04)",images/min4.png,18,0.0558686950244,1.32393545681,[-0.115625   -0.16388889],,,2018_Jul_08_1313,59.7167650364,sequenceLearningTask,001,159,
min1.png,min2.png,min3.png,min4.png,images/allBlank.png,"['num_7', 'num_4', 'num_1', 'num_0']",['num_0'],num_0,[4],'num_0',images/min4.png,"[(0.45, 0.79)]",,,,,0,-1,-1,0,4,1,17,3,,,,,"(0.75, 0.04)",images/min4.png,18,0.064964075922,0.562128589838,[ 0.6828125   0.03888889],,,2018_Jul_08_1313,59.7167650364,sequenceLearningTask,001,159,
min1.png,min2.png,min3.png,min4.png,images/allBlank.png,"['num_7', 'num_4', 'num_1', 'num_0']",['num_0'],num_0,[4],'num_0',images/min4.png,"[(0.45, 0.79)]",,,,,0,-1,-1,0,4,1,17,3,,,,,"(-0.25, 0.04)",images/min2.png,18,0.0612602825277,0.665125470725,[ 0.6375      0.01388889],,,2018_Jul_08_1313,59.7167650364,sequenceLearningTask,001,159,
min1.png,min2.png,min3.png,min4.png,images/allBlank.png,"['num_7', 'num_4', 'num_1', 'num_0']",['num_0'],num_0,[4],'num_0',images/min4.png,"[(0.45, 0.79)]",,,,,0,-1,-1,0,4,1,17,3,,,,,"(-0.25, 0.04)",images/min2.png,18,0.0636742303614,0.728287290898,[-0.1734375  -0.09722222],,,2018_Jul_08_1313,59.7167650364,sequenceLearningTask,001,159,
min1.png,min2.png,min3.png,min4.png,images/allBlank.png,"['num_7', 'num_4', 'num_1', 'num_0']",['num_4'],num_4,[2],'num_4',images/min2.png,"[(0.45, 0.79)]",,,,,0,-1,-1,0,4,2,18,1,,,,,"(-0.75, 0.04)",images/min1.png,19,0.0617960772943,0.727602983476,[-0.1421875  -0.10833333],,,2018_Jul_08_1313,59.7167650364,sequenceLearningTask,001,159,
min1.png,min2.png,min3.png,min4.png,images/allBlank.png,"['num_7', 'num_4', 'num_1', 'num_0']",['num_4'],num_4,[2],'num_4',images/min2.png,"[(0.45, 0.79)]",,,,,0,-1,-1,0,4,2,18,1,,,,,"(-0.25, 0.04)",images/min2.png,19,0.0569025408477,0.53644572862,[-0.6734375  -0.33055556],,,2018_Jul_08_1313,59.7167650364,sequenceLearningTask,001,159,
min1.png,min2.png,min3.png,min4.png,images/allBlank.png,"['num_7', 'num_4', 'num_1', 'num_0']",['num_4'],num_4,[2],'num_4',images/min2.png,"[(0.45, 0.79)]",,,,,0,-1,-1,0,4,2,18,1,,,,,"(-0.25, 0.04)",images/min2.png,19,0.0620368976379,0.496062155464,[-0.18125    -0.19444444],,,2018_Jul_08_1313,59.7167650364,sequenceLearningTask,001,159,
min1.png,min2.png,min3.png,min4.png,images/allBlank.png,"['num_7', 'num_4', 'num_1', 'num_0']",['num_4'],num_4,[2],'num_4',images/min2.png,"[(0.45, 0.79)]",,,,,0,-1,-1,0,4,2,18,1,,,,,"(-0.75, 0.04)",images/min1.png,19,0.0656705371803,0.707045043237,[-0.0859375  -0.11111111],,,2018_Jul_08_1313,59.7167650364,sequenceLearningTask,001,159,
min1.png,min2.png,min3.png,min4.png,images/allBlank.png,"['num_7', 'num_4', 'num_1', 'num_0']",['num_7'],num_7,[1],'num_7',images/min1.png,"[(0.45, 0.79)]",,,,,0,-1,-1,0,4,3,19,0,,,,,"(-0.75, 0.04)",images/min1.png,20,0.0574428482214,1.22168606287,[-0.6203125  -0.35277778],,,2018_Jul_08_1313,59.7167650364,sequenceLearningTask,001,159,
min1.png,min2.png,min3.png,min4.png,images/allBlank.png,"['num_7', 'num_4', 'num_1', 'num_0']",['num_7'],num_7,[1],'num_7',images/min1.png,"[(0.45, 0.79)]",,,,,0,-1,-1,0,4,3,19,0,,,,,"(-0.25, 0.04)",images/min2.png,20,0.0623257179977,0.479130470078,[-0.7203125  -0.33333333],,,2018_Jul_08_1313,59.7167650364,sequenceLearningTask,001,159,
min1.png,min2.png,min3.png,min4.png,images/allBlank.png,"['num_7', 'num_4', 'num_1', 'num_0']",['num_7'],num_7,[1],'num_7',images/min1.png,"[(0.45, 0.79)]",,,,,0,-1,-1,0,4,3,19,0,,,,,"(-0.25, 0.04)",images/min2.png,20,0.0561845923075,0.519532504724,[-0.2859375  -0.15555556],,,2018_Jul_08_1313,59.7167650364,sequenceLearningTask,001,159,
min1.png,min2.png,min3.png,min4.png,images/allBlank.png,"['num_7', 'num_4', 'num_1', 'num_0']",['num_7'],num_7,[1],'num_7',images/min1.png,"[(0.45, 0.79)]",,,,,0,-1,-1,0,4,3,19,0,,,,,"(0.25, 0.04)",images/min3.png,20,0.0607064366341,0.513994045556,[-0.159375   -0.13888889],,,2018_Jul_08_1313,59.7167650364,sequenceLearningTask,001,159,
min1.png,min2.png,min3.png,min4.png,allBlank.png,"['num_7', 'num_4', 'num_1', 'num_0']",['num_7'],num_7,[1],'num_7',images/min1.png,"[(0.45, 0.79)]",,,,,0,0,0,0,4,3,19,0,,,,,"(-0.75, -0.04)",images/min1.png,1,0.0428303413792,0.661120138946,[ 0.2234375  -0.09722222],,,2018_Jul_08_1313,59.7167650364,sequenceLearningTask,001,159,
min1.png,min2.png,min3.png,min4.png,allBlank.png,"['num_7', 'num_4', 'num_1', 'num_0']",['num_7'],num_7,[1],'num_7',images/min1.png,"[(0.45, 0.79)]",,,,,0,0,0,0,4,3,19,0,,,,,"(0.25, -0.04)",images/min3.png,1,0.0572848995216,0.479164521326,[-0.6484375   0.19722222],,,2018_Jul_08_1313,59.7167650364,sequenceLearningTask,001,159,
min1.png,min2.png,min3.png,min4.png,allBlank.png,"['num_7', 'num_4', 'num_1', 'num_0']",['num_7'],num_7,[1],'num_7',images/min1.png,"[(0.45, 0.79)]",,,,,0,0,0,0,4,3,19,0,,,,,"(-0.25, -0.04)",images/min2.png,1,0.0621866411529,0.541927162209,[ 0.2265625  0.075    ],,,2018_Jul_08_1313,59.7167650364,sequenceLearningTask,001,159,
min1.png,min2.png,min3.png,min4.png,allBlank.png,"['num_7', 'num_4', 'num_1', 'num_0']",['num_7'],num_7,[1],'num_7',images/min1.png,"[(0.45, 0.79)]",,,,,0,0,0,0,4,3,19,0,,,,,"(0.75, -0.04)",images/min4.png,1,0.0640676660696,0.559511155123,[-0.1859375  -0.17777778],,,2018_Jul_08_1313,59.7167650364,sequenceLearningTask,001,159,
min1.png,min2.png,min3.png,min4.png,allBlank.png,"['num_7', 'num_4', 'num_1', 'num_0']",['num_7'],num_7,[1],'num_7',images/min1.png,"[(0.45, 0.79)]",,,,,0,0,0,0,4,3,19,0,,,,,"(0.75, -0.04)",images/min4.png,1,0.0551035670796,0.81820397207,[ 0.7078125   0.18611111],,,2018_Jul_08_1313,59.7167650364,sequenceLearningTask,001,159,
min1.png,min2.png,min3.png,min4.png,allBlank.png,"['num_7', 'num_4', 'num_1', 'num_0']",['num_7'],num_7,[1],'num_7',images/min1.png,"[(0.45, 0.79)]",,,,,0,0,0,0,4,3,19,0,,,,,"(-0.25, -0.04)",images/min2.png,1,0.0577870531706,0.666514598415,[ 0.721875    0.14444444],,,2018_Jul_08_1313,59.7167650364,sequenceLearningTask,001,159,
min1.png,min2.png,min3.png,min4.png,allBlank.png,"['num_7', 'num_4', 'num_1', 'num_0']",['num_7'],num_7,[1],'num_7',images/min1.png,"[(0.45, 0.79)]",,,,,0,0,0,0,4,3,19,0,,,,,"(0.25, -0.04)",images/min3.png,1,0.0611868466949,0.49686420639,[-0.2203125  -0.09444444],,,2018_Jul_08_1313,59.7167650364,sequenceLearningTask,001,159,
min1.png,min2.png,min3.png,min4.png,allBlank.png,"['num_7', 'num_4', 'num_1', 'num_0']",['num_7'],num_7,[1],'num_7',images/min1.png,"[(0.45, 0.79)]",,,,,0,0,0,0,4,3,19,0,,,,,"(0.75, -0.04)",images/min4.png,1,0.0560381307732,0.524318964453,[ 0.2265625  -0.00277778],,,2018_Jul_08_1313,59.7167650364,sequenceLearningTask,001,159,
min1.png,min2.png,min3.png,min4.png,allBlank.png,"['num_7', 'num_4', 'num_1', 'num_0']",['num_7'],num_7,[1],'num_7',images/min1.png,"[(0.45, 0.79)]",,,,,0,1,1,1,4,3,19,0,,,,,"(-0.75, -0.04)",images/min1.png,2,0.0556209002389,0.717178372433,[ 0.740625   -0.00833333],,,2018_Jul_08_1313,59.7167650364,sequenceLearningTask,001,159,
min1.png,min2.png,min3.png,min4.png,allBlank.png,"['num_7', 'num_4', 'num_1', 'num_0']",['num_7'],num_7,[1],'num_7',images/min1.png,"[(0.45, 0.79)]",,,,,0,1,1,1,4,3,19,0,,,,,"(0.25, -0.04)",images/min3.png,2,0.0575679762987,0.721151704201,[-0.671875   -0.06111111],0.197316021658,1,2018_Jul_08_1313,59.7167650364,sequenceLearningTask,001,159,
min1.png,min2.png,min3.png,min4.png,allBlank.png,"['num_7', 'num_4', 'num_1', 'num_0']",['num_7'],num_7,[1],'num_7',images/min1.png,"[(0.45, 0.79)]",,,,,0,1,1,1,4,3,19,0,,,,,"(-0.25, -0.04)",images/min2.png,2,0.0574539251393,0.616457593278,[ 0.2515625  -0.00833333],,,2018_Jul_08_1313,59.7167650364,sequenceLearningTask,001,159,
min1.png,min2.png,min3.png,min4.png,allBlank.png,"['num_7', 'num_4', 'num_1', 'num_0']",['num_7'],num_7,[1],'num_7',images/min1.png,"[(0.45, 0.79)]",,,,,0,1,1,1,4,3,19,0,,,,,"(0.75, -0.04)",images/min4.png,2,0.0624652052065,0.630152767175,[-0.1765625  -0.26944444],,,2018_Jul_08_1313,59.7167650364,sequenceLearningTask,001,159,
min1.png,min2.png,min3.png,min4.png,allBlank.png,"['num_7', 'num_4', 'num_1', 'num_0']",['num_7'],num_7,[1],'num_7',images/min1.png,"[(0.45, 0.79)]",,,,,0,1,1,1,4,3,19,0,,,,,"(0.75, -0.04)",images/min4.png,2,0.0461452119052,1.13258907374,[ 0.7453125   0.13611111],,,2018_Jul_08_1313,59.7167650364,sequenceLearningTask,001,159,
min1.png,min2.png,min3.png,min4.png,allBlank.png,"['num_7', 'num_4', 'num_1', 'num_0']",['num_7'],num_7,[1],'num_7',images/min1.png,"[(0.45, 0.79)]",,,,,0,1,1,1,4,3,19,0,,,,,"(-0.25, -0.04)",images/min2.png,2,0.0606145391939,0.780935064307,[ 0.7296875   0.20833333],,,2018_Jul_08_1313,59.7167650364,sequenceLearningTask,001,159,
min1.png,min2.png,min3.png,min4.png,allBlank.png,"['num_7', 'num_4', 'num_1', 'num_0']",['num_7'],num_7,[1],'num_7',images/min1.png,"[(0.45, 0.79)]",,,,,0,1,1,1,4,3,19,0,,,,,"(0.25, -0.04)",images/min3.png,2,0.0606986418134,0.548913415871,[-0.2578125  -0.06944444],,,2018_Jul_08_1313,59.7167650364,sequenceLearningTask,001,159,
min1.png,min2.png,min3.png,min4.png,allBlank.png,"['num_7', 'num_4', 'num_1', 'num_0']",['num_7'],num_7,[1],'num_7',images/min1.png,"[(0.45, 0.79)]",,,,,0,1,1,1,4,3,19,0,,,,,"(0.75, -0.04)",images/min4.png,2,0.0504898254294,0.518154454068,[ 0.315625   -0.15277778],,,2018_Jul_08_1313,59.7167650364,sequenceLearningTask,001,159,
min1.png,min2.png,min3.png,min4.png,allBlank.png,"['num_7', 'num_4', 'num_1', 'num_0']",['num_7'],num_7,[1],'num_7',images/min1.png,"[(0.45, 0.79)]",,,,,0,2,2,2,4,3,19,0,,,,,"(-0.75, -0.04)",images/min1.png,3,0.0555983361555,0.679469259689,[ 0.6828125  -0.25277778],,,2018_Jul_08_1313,59.7167650364,sequenceLearningTask,001,159,
min1.png,min2.png,min3.png,min4.png,allBlank.png,"['num_7', 'num_4', 'num_1', 'num_0']",['num_7'],num_7,[1],'num_7',images/min1.png,"[(0.45, 0.79)]",,,,,0,2,2,2,4,3,19,0,,,,,"(0.25, -0.04)",images/min3.png,3,0.0568274639081,0.553950131754,[-0.7671875  -0.34722222],,,2018_Jul_08_1313,59.7167650364,sequenceLearningTask,001,159,
min1.png,min2.png,min3.png,min4.png,allBlank.png,"['num_7', 'num_4', 'num_1', 'num_0']",['num_7'],num_7,[1],'num_7',images/min1.png,"[(0.45, 0.79)]",,,,,0,2,2,2,4,3,19,0,,,,,"(-0.25, -0.04)",images/min2.png,3,0.0624299230985,0.581095556496,[ 0.309375   -0.36944444],,,2018_Jul_08_1313,59.7167650364,sequenceLearningTask,001,159,
min1.png,min2.png,min3.png,min4.png,allBlank.png,"['num_7', 'num_4', 'num_1', 'num_0']",['num_7'],num_7,[1],'num_7',images/min1.png,"[(0.45, 0.79)]",,,,,0,2,2,2,4,3,19,0,,,,,"(0.75, -0.04)",images/min4.png,3,0.064340486424,0.512931892183,[-0.2703125  -0.33611111],,,2018_Jul_08_1313,59.7167650364,sequenceLearningTask,001,159,
min1.png,min2.png,min3.png,min4.png,allBlank.png,"['num_7', 'num_4', 'num_1', 'num_0']",['num_7'],num_7,[1],'num_7',images/min1.png,"[(0.45, 0.79)]",,,,,0,2,2,2,4,3,19,0,,,,,"(0.75, -0.04)",images/min4.png,3,0.0482022366486,0.544884289266,[ 0.7359375  -0.31388889],,,2018_Jul_08_1313,59.7167650364,sequenceLearningTask,001,159,
min1.png,min2.png,min3.png,min4.png,allBlank.png,"['num_7', 'num_4', 'num_1', 'num_0']",['num_7'],num_7,[1],'num_7',images/min1.png,"[(0.45, 0.79)]",,,,,0,2,2,2,4,3,19,0,,,,,"(-0.25, -0.04)",images/min2.png,3,0.0601152573945,0.665149265551,[ 0.721875   -0.28888889],,,2018_Jul_08_1313,59.7167650364,sequenceLearningTask,001,159,
min1.png,min2.png,min3.png,min4.png,allBlank.png,"['num_7', 'num_4', 'num_1', 'num_0']",['num_7'],num_7,[1],'num_7',images/min1.png,"[(0.45, 0.79)]",,,,,0,2,2,2,4,3,19,0,,,,,"(0.25, -0.04)",images/min3.png,3,0.0471454164945,0.614406312001,[-0.228125   -0.22777778],,,2018_Jul_08_1313,59.7167650364,sequenceLearningTask,001,159,
min1.png,min2.png,min3.png,min4.png,allBlank.png,"['num_7', 'num_4', 'num_1', 'num_0']",['num_7'],num_7,[1],'num_7',images/min1.png,"[(0.45, 0.79)]",,,,,0,2,2,2,4,3,19,0,,,,,"(0.75, -0.04)",images/min4.png,3,0.0559856181499,0.989430158283,[ 0.3328125  -0.14722222],,,2018_Jul_08_1313,59.7167650364,sequenceLearningTask,001,159,
min1.png,min2.png,min3.png,min4.png,allBlank.png,"['num_7', 'num_4', 'num_1', 'num_0']",['num_7'],num_7,[1],'num_7',images/min1.png,"[(0.45, 0.79)]",,,,,0,3,3,3,4,3,19,0,,,,,"(-0.75, -0.04)",images/min1.png,4,0.05860387336,0.593395038624,[ 0.7359375 -0.25     ],,,2018_Jul_08_1313,59.7167650364,sequenceLearningTask,001,159,
min1.png,min2.png,min3.png,min4.png,allBlank.png,"['num_7', 'num_4', 'num_1', 'num_0']",['num_7'],num_7,[1],'num_7',images/min1.png,"[(0.45, 0.79)]",,,,,0,3,3,3,4,3,19,0,,,,,"(0.25, -0.04)",images/min3.png,4,0.0521378248231,0.458838786115,[-0.6609375  -0.09722222],,,2018_Jul_08_1313,59.7167650364,sequenceLearningTask,001,159,
min1.png,min2.png,min3.png,min4.png,allBlank.png,"['num_7', 'num_4', 'num_1', 'num_0']",['num_7'],num_7,[1],'num_7',images/min1.png,"[(0.45, 0.79)]",,,,,0,3,3,3,4,3,19,0,,,,,"(-0.25, -0.04)",images/min2.png,4,0.0562559769023,0.721826985944,[ 0.3015625  -0.13888889],,,2018_Jul_08_1313,59.7167650364,sequenceLearningTask,001,159,
min1.png,min2.png,min3.png,min4.png,allBlank.png,"['num_7', 'num_4', 'num_1', 'num_0']",['num_7'],num_7,[1],'num_7',images/min1.png,"[(0.45, 0.79)]",,,,,0,3,3,3,4,3,19,0,,,,,"(0.75, -0.04)",images/min4.png,4,0.0591121809557,0.499856205191,[-0.1234375  -0.33333333],,,2018_Jul_08_1313,59.7167650364,sequenceLearningTask,001,159,
min1.png,min2.png,min3.png,min4.png,allBlank.png,"['num_7', 'num_4', 'num_1', 'num_0']",['num_7'],num_7,[1],'num_7',images/min1.png,"[(0.45, 0.79)]",,,,,0,3,3,3,4,3,19,0,,,,,"(0.75, -0.04)",images/min4.png,4,0.0561575153843,0.61847933603,[ 0.8078125  -0.19444444],,,2018_Jul_08_1313,59.7167650364,sequenceLearningTask,001,159,
min1.png,min2.png,min3.png,min4.png,allBlank.png,"['num_7', 'num_4', 'num_1', 'num_0']",['num_7'],num_7,[1],'num_7',images/min1.png,"[(0.45, 0.79)]",,,,,0,3,3,3,4,3,19,0,,,,,"(-0.25, -0.04)",images/min2.png,4,0.0547909518937,0.605764264357,[ 0.7171875  -0.11666667],,,2018_Jul_08_1313,59.7167650364,sequenceLearningTask,001,159,
min1.png,min2.png,min3.png,min4.png,allBlank.png,"['num_7', 'num_4', 'num_1', 'num_0']",['num_7'],num_7,[1],'num_7',images/min1.png,"[(0.45, 0.79)]",,,,,0,3,3,3,4,3,19,0,,,,,"(0.25, -0.04)",images/min3.png,4,0.0536824394949,0.489390568458,[-0.2578125 -0.225    ],,,2018_Jul_08_1313,59.7167650364,sequenceLearningTask,001,159,
min1.png,min2.png,min3.png,min4.png,allBlank.png,"['num_7', 'num_4', 'num_1', 'num_0']",['num_7'],num_7,[1],'num_7',images/min1.png,"[(0.45, 0.79)]",,,,,0,3,3,3,4,3,19,0,,,,,"(0.75, -0.04)",images/min4.png,4,0.0573251047172,0.719088115264,[ 0.2890625 -0.25     ],,,2018_Jul_08_1313,59.7167650364,sequenceLearningTask,001,159,
min1.png,min2.png,min3.png,min4.png,allBlank.png,"['num_7', 'num_4', 'num_1', 'num_0']",['num_7'],num_7,[1],'num_7',images/min1.png,"[(0.45, 0.79)]",,,,,0,4,4,4,4,3,19,0,,,,,"(-0.75, -0.04)",images/min1.png,5,0.0531052089063,0.853559855022,[ 0.7046875  -0.09722222],,,2018_Jul_08_1313,59.7167650364,sequenceLearningTask,001,159,
min1.png,min2.png,min3.png,min4.png,allBlank.png,"['num_7', 'num_4', 'num_1', 'num_0']",['num_7'],num_7,[1],'num_7',images/min1.png,"[(0.45, 0.79)]",,,,,0,4,4,4,4,3,19,0,,,,,"(0.25, -0.04)",images/min3.png,5,0.0550383364316,0.619052874157,[-0.6671875  -0.03888889],,,2018_Jul_08_1313,59.7167650364,sequenceLearningTask,001,159,
min1.png,min2.png,min3.png,min4.png,allBlank.png,"['num_7', 'num_4', 'num_1', 'num_0']",['num_7'],num_7,[1],'num_7',images/min1.png,"[(0.45, 0.79)]",,,,,0,4,4,4,4,3,19,0,,,,,"(-0.25, -0.04)",images/min2.png,5,0.0581480786204,0.835728067439,[ 0.2609375  -0.14722222],,,2018_Jul_08_1313,59.7167650364,sequenceLearningTask,001,159,
min1.png,min2.png,min3.png,min4.png,allBlank.png,"['num_7', 'num_4', 'num_1', 'num_0']",['num_7'],num_7,[1],'num_7',images/min1.png,"[(0.45, 0.79)]",,,,,0,4,4,4,4,3,19,0,,,,,"(0.75, -0.04)",images/min4.png,5,0.054505413631,1.46002073435,[-0.246875   -0.13611111],,,2018_Jul_08_1313,59.7167650364,sequenceLearningTask,001,159,
min1.png,min2.png,min3.png,min4.png,allBlank.png,"['num_7', 'num_4', 'num_1', 'num_0']",['num_7'],num_7,[1],'num_7',images/min1.png,"[(0.45, 0.79)]",,,,,0,4,4,4,4,3,19,0,,,,,"(0.75, -0.04)",images/min4.png,5,0.0563568999059,0.582986017223,[ 0.6671875  -0.10277778],,,2018_Jul_08_1313,59.7167650364,sequenceLearningTask,001,159,
min1.png,min2.png,min3.png,min4.png,allBlank.png,"['num_7', 'num_4', 'num_1', 'num_0']",['num_7'],num_7,[1],'num_7',images/min1.png,"[(0.45, 0.79)]",,,,,0,4,4,4,4,3,19,0,,,,,"(-0.25, -0.04)",images/min2.png,5,0.0535597729031,0.754222049611,[ 0.7296875  -0.25277778],,,2018_Jul_08_1313,59.7167650364,sequenceLearningTask,001,159,
min1.png,min2.png,min3.png,min4.png,allBlank.png,"['num_7', 'num_4', 'num_1', 'num_0']",['num_7'],num_7,[1],'num_7',images/min1.png,"[(0.45, 0.79)]",,,,,0,4,4,4,4,3,19,0,,,,,"(0.25, -0.04)",images/min3.png,5,0.0569156688871,0.588621707284,[-0.2921875  -0.23055556],,,2018_Jul_08_1313,59.7167650364,sequenceLearningTask,001,159,
min1.png,min2.png,min3.png,min4.png,allBlank.png,"['num_7', 'num_4', 'num_1', 'num_0']",['num_7'],num_7,[1],'num_7',images/min1.png,"[(0.45, 0.79)]",,,,,0,4,4,4,4,3,19,0,,,,,"(0.75, -0.04)",images/min4.png,5,0.0541932084598,0.825390020385,[ 0.3171875  -0.24722222],,,2018_Jul_08_1313,59.7167650364,sequenceLearningTask,001,159,
min1.png,min2.png,min3.png,min4.png,allBlank.png,"['num_7', 'num_4', 'num_1', 'num_0']",['num_7'],num_7,[1],'num_7',images/min1.png,"[(0.45, 0.79)]",,,,,0,5,5,5,4,3,19,0,,,,,"(-0.75, -0.04)",images/min1.png,6,0.0594539243029,1.11832815665,[ 0.70625    -0.30277778],,,2018_Jul_08_1313,59.7167650364,sequenceLearningTask,001,159,
min1.png,min2.png,min3.png,min4.png,allBlank.png,"['num_7', 'num_4', 'num_1', 'num_0']",['num_7'],num_7,[1],'num_7',images/min1.png,"[(0.45, 0.79)]",,,,,0,5,5,5,4,3,19,0,,,,,"(0.25, -0.04)",images/min3.png,6,0.0547823364614,0.455576428445,[-0.7640625  -0.13611111],,,2018_Jul_08_1313,59.7167650364,sequenceLearningTask,001,159,
min1.png,min2.png,min3.png,min4.png,allBlank.png,"['num_7', 'num_4', 'num_1', 'num_0']",['num_7'],num_7,[1],'num_7',images/min1.png,"[(0.45, 0.79)]",,,,,0,5,5,5,4,3,19,0,,,,,"(-0.25, -0.04)",images/min2.png,6,0.0609263340011,0.648426400614,[ 0.2125     -0.09722222],,,2018_Jul_08_1313,59.7167650364,sequenceLearningTask,001,159,
min1.png,min2.png,min3.png,min4.png,allBlank.png,"['num_7', 'num_4', 'num_1', 'num_0']",['num_7'],num_7,[1],'num_7',images/min1.png,"[(0.45, 0.79)]",,,,,0,5,5,5,4,3,19,0,,,,,"(0.75, -0.04)",images/min4.png,6,0.0580188479507,0.53337331966,[-0.1203125  -0.19166667],,,2018_Jul_08_1313,59.7167650364,sequenceLearningTask,001,159,
min1.png,min2.png,min3.png,min4.png,allBlank.png,"['num_7', 'num_4', 'num_1', 'num_0']",['num_7'],num_7,[1],'num_7',images/min1.png,"[(0.45, 0.79)]",,,,,0,5,5,5,4,3,19,0,,,,,"(0.75, -0.04)",images/min4.png,6,0.0588619245682,0.483765955432,[ 0.728125   -0.28888889],,,2018_Jul_08_1313,59.7167650364,sequenceLearningTask,001,159,
min1.png,min2.png,min3.png,min4.png,allBlank.png,"['num_7', 'num_4', 'num_1', 'num_0']",['num_7'],num_7,[1],'num_7',images/min1.png,"[(0.45, 0.79)]",,,,,0,5,5,5,4,3,19,0,,,,,"(-0.25, -0.04)",images/min2.png,6,0.0540529009886,0.643109479686,[ 0.734375   -0.31111111],,,2018_Jul_08_1313,59.7167650364,sequenceLearningTask,001,159,
min1.png,min2.png,min3.png,min4.png,allBlank.png,"['num_7', 'num_4', 'num_1', 'num_0']",['num_7'],num_7,[1],'num_7',images/min1.png,"[(0.45, 0.79)]",,,,,0,5,5,5,4,3,19,0,,,,,"(0.25, -0.04)",images/min3.png,6,0.0550904389238,0.555649002898,[-0.228125   -0.15555556],,,2018_Jul_08_1313,59.7167650364,sequenceLearningTask,001,159,
min1.png,min2.png,min3.png,min4.png,allBlank.png,"['num_7', 'num_4', 'num_1', 'num_0']",['num_7'],num_7,[1],'num_7',images/min1.png,"[(0.45, 0.79)]",,,,,0,5,5,5,4,3,19,0,,,,,"(0.75, -0.04)",images/min4.png,6,0.0572664380306,0.467867705505,[ 0.3609375  -0.11388889],,,2018_Jul_08_1313,59.7167650364,sequenceLearningTask,001,159,
min1.png,min2.png,min3.png,min4.png,allBlank.png,"['num_7', 'num_4', 'num_1', 'num_0']",['num_7'],num_7,[1],'num_7',images/min1.png,"[(0.45, 0.79)]",,,,,0,6,6,6,4,3,19,0,,,,,"(-0.75, -0.04)",images/min1.png,7,0.0640611019917,0.694294689572,[ 0.6984375  -0.26666667],,,2018_Jul_08_1313,59.7167650364,sequenceLearningTask,001,159,
min1.png,min2.png,min3.png,min4.png,allBlank.png,"['num_7', 'num_4', 'num_1', 'num_0']",['num_7'],num_7,[1],'num_7',images/min1.png,"[(0.45, 0.79)]",,,,,0,6,6,6,4,3,19,0,,,,,"(0.25, -0.04)",images/min3.png,7,0.0843507345999,0.510363277863,[-0.7015625  -0.15277778],,,2018_Jul_08_1313,59.7167650364,sequenceLearningTask,001,159,
min1.png,min2.png,min3.png,min4.png,allBlank.png,"['num_7', 'num_4', 'num_1', 'num_0']",['num_7'],num_7,[1],'num_7',images/min1.png,"[(0.45, 0.79)]",,,,,0,6,6,6,4,3,19,0,,,,,"(-0.25, -0.04)",images/min2.png,7,0.0599523856072,0.594302525395,[ 0.2890625  -0.15277778],,,2018_Jul_08_1313,59.7167650364,sequenceLearningTask,001,159,
min1.png,min2.png,min3.png,min4.png,allBlank.png,"['num_7', 'num_4', 'num_1', 'num_0']",['num_7'],num_7,[1],'num_7',images/min1.png,"[(0.45, 0.79)]",,,,,0,6,6,6,4,3,19,0,,,,,"(0.75, -0.04)",images/min4.png,7,0.0565279767616,0.71716032119,[-0.21875    -0.16388889],,,2018_Jul_08_1313,59.7167650364,sequenceLearningTask,001,159,
min1.png,min2.png,min3.png,min4.png,allBlank.png,"['num_7', 'num_4', 'num_1', 'num_0']",['num_7'],num_7,[1],'num_7',images/min1.png,"[(0.45, 0.79)]",,,,,0,6,6,6,4,3,19,0,,,,,"(0.75, -0.04)",images/min4.png,7,0.0612385389395,0.596978626912,[ 0.840625   -0.02222222],,,2018_Jul_08_1313,59.7167650364,sequenceLearningTask,001,159,
min1.png,min2.png,min3.png,min4.png,allBlank.png,"['num_7', 'num_4', 'num_1', 'num_0']",['num_7'],num_7,[1],'num_7',images/min1.png,"[(0.45, 0.79)]",,,,,0,6,6,6,4,3,19,0,,,,,"(-0.25, -0.04)",images/min2.png,7,0.0416053162189,0.566079357523,[ 0.7421875  -0.18333333],,,2018_Jul_08_1313,59.7167650364,sequenceLearningTask,001,159,
min1.png,min2.png,min3.png,min4.png,allBlank.png,"['num_7', 'num_4', 'num_1', 'num_0']",['num_7'],num_7,[1],'num_7',images/min1.png,"[(0.45, 0.79)]",,,,,0,6,6,6,4,3,19,0,,,,,"(0.25, -0.04)",images/min3.png,7,0.0559191565262,0.514577840106,[-0.1625     -0.38055556],,,2018_Jul_08_1313,59.7167650364,sequenceLearningTask,001,159,
min1.png,min2.png,min3.png,min4.png,allBlank.png,"['num_7', 'num_4', 'num_1', 'num_0']",['num_7'],num_7,[1],'num_7',images/min1.png,"[(0.45, 0.79)]",,,,,0,6,6,6,4,3,19,0,,,,,"(0.75, -0.04)",images/min4.png,7,0.0579027454369,0.501230563619,[ 0.1984375  -0.29444444],,,2018_Jul_08_1313,59.7167650364,sequenceLearningTask,001,159,
min1.png,min2.png,min3.png,min4.png,allBlank.png,"['num_7', 'num_4', 'num_1', 'num_0']",['num_7'],num_7,[1],'num_7',images/min1.png,"[(0.45, 0.79)]",,,,,0,7,7,7,4,3,19,0,,,,,"(-0.75, -0.04)",images/min1.png,8,0.0616717695957,0.640387839871,[ 0.7546875  -0.26388889],,,2018_Jul_08_1313,59.7167650364,sequenceLearningTask,001,159,
min1.png,min2.png,min3.png,min4.png,allBlank.png,"['num_7', 'num_4', 'num_1', 'num_0']",['num_7'],num_7,[1],'num_7',images/min1.png,"[(0.45, 0.79)]",,,,,0,7,7,7,4,3,19,0,,,,,"(0.25, -0.04)",images/min3.png,8,0.0575741302455,0.529140295694,[-0.6734375  -0.14722222],,,2018_Jul_08_1313,59.7167650364,sequenceLearningTask,001,159,
min1.png,min2.png,min3.png,min4.png,allBlank.png,"['num_7', 'num_4', 'num_1', 'num_0']",['num_7'],num_7,[1],'num_7',images/min1.png,"[(0.45, 0.79)]",,,,,0,7,7,7,4,3,19,0,,,,,"(-0.25, -0.04)",images/min2.png,8,0.0564291051123,0.62999112613,[ 0.2859375   0.02777778],,,2018_Jul_08_1313,59.7167650364,sequenceLearningTask,001,159,
min1.png,min2.png,min3.png,min4.png,allBlank.png,"['num_7', 'num_4', 'num_1', 'num_0']",['num_7'],num_7,[1],'num_7',images/min1.png,"[(0.45, 0.79)]",,,,,0,7,7,7,4,3,19,0,,,,,"(0.75, -0.04)",images/min4.png,8,0.0611273595132,0.502506050281,[-0.1828125  -0.09166667],,,2018_Jul_08_1313,59.7167650364,sequenceLearningTask,001,159,
min1.png,min2.png,min3.png,min4.png,allBlank.png,"['num_7', 'num_4', 'num_1', 'num_0']",['num_7'],num_7,[1],'num_7',images/min1.png,"[(0.45, 0.79)]",,,,,0,7,7,7,4,3,19,0,,,,,"(0.75, -0.04)",images/min4.png,8,0.0592528987909,0.51705824933,[ 0.61875    -0.05555556],,,2018_Jul_08_1313,59.7167650364,sequenceLearningTask,001,159,
min1.png,min2.png,min3.png,min4.png,allBlank.png,"['num_7', 'num_4', 'num_1', 'num_0']",['num_7'],num_7,[1],'num_7',images/min1.png,"[(0.45, 0.79)]",,,,,0,7,7,7,4,3,19,0,,,,,"(-0.25, -0.04)",images/min2.png,8,0.0563950537471,0.684419821831,[ 0.6015625  -0.00277778],,,2018_Jul_08_1313,59.7167650364,sequenceLearningTask,001,159,
min1.png,min2.png,min3.png,min4.png,allBlank.png,"['num_7', 'num_4', 'num_1', 'num_0']",['num_7'],num_7,[1],'num_7',images/min1.png,"[(0.45, 0.79)]",,,,,0,7,7,7,4,3,19,0,,,,,"(0.25, -0.04)",images/min3.png,8,0.0620291027008,0.611439749133,[-0.1421875  -0.16388889],,,2018_Jul_08_1313,59.7167650364,sequenceLearningTask,001,159,
min1.png,min2.png,min3.png,min4.png,allBlank.png,"['num_7', 'num_4', 'num_1', 'num_0']",['num_7'],num_7,[1],'num_7',images/min1.png,"[(0.45, 0.79)]",,,,,0,7,7,7,4,3,19,0,,,,,"(0.75, -0.04)",images/min4.png,8,0.0575552583905,0.927270593937,[ 0.33125     0.11666667],,,2018_Jul_08_1313,59.7167650364,sequenceLearningTask,001,159,
min1.png,min2.png,min3.png,min4.png,allBlank.png,"['num_7', 'num_4', 'num_1', 'num_0']",['num_7'],num_7,[1],'num_7',images/min1.png,"[(0.45, 0.79)]",,,,,0,8,8,8,4,3,19,0,,,,,"(-0.75, -0.04)",images/min1.png,9,0.0550211056834,1.18411028339,[ 0.5984375  -0.09722222],,,2018_Jul_08_1313,59.7167650364,sequenceLearningTask,001,159,
min1.png,min2.png,min3.png,min4.png,allBlank.png,"['num_7', 'num_4', 'num_1', 'num_0']",['num_7'],num_7,[1],'num_7',images/min1.png,"[(0.45, 0.79)]",,,,,0,8,8,8,4,3,19,0,,,,,"(0.25, -0.04)",images/min3.png,9,0.0572208996164,1.02176204242,[-0.7015625  -0.15277778],,,2018_Jul_08_1313,59.7167650364,sequenceLearningTask,001,159,
min1.png,min2.png,min3.png,min4.png,allBlank.png,"['num_7', 'num_4', 'num_1', 'num_0']",['num_7'],num_7,[1],'num_7',images/min1.png,"[(0.45, 0.79)]",,,,,0,8,8,8,4,3,19,0,,,,,"(-0.25, -0.04)",images/min2.png,9,0.0551564901834,0.682238079025,[ 0.2125      0.05277778],,,2018_Jul_08_1313,59.7167650364,sequenceLearningTask,001,159,
min1.png,min2.png,min3.png,min4.png,allBlank.png,"['num_7', 'num_4', 'num_1', 'num_0']",['num_7'],num_7,[1],'num_7',images/min1.png,"[(0.45, 0.79)]",,,,,0,8,8,8,4,3,19,0,,,,,"(0.75, -0.04)",images/min4.png,9,0.0595335140824,0.634418201284,[-0.1265625  -0.08055556],,,2018_Jul_08_1313,59.7167650364,sequenceLearningTask,001,159,
min1.png,min2.png,min3.png,min4.png,allBlank.png,"['num_7', 'num_4', 'num_1', 'num_0']",['num_7'],num_7,[1],'num_7',images/min1.png,"[(0.45, 0.79)]",,,,,0,8,8,8,4,3,19,0,,,,,"(0.75, -0.04)",images/min4.png,9,0.0803708388703,1.64570435043,[ 0.7421875   0.21944444],0.77508398972,1,2018_Jul_08_1313,59.7167650364,sequenceLearningTask,001,159,
min1.png,min2.png,min3.png,min4.png,allBlank.png,"['num_7', 'num_4', 'num_1', 'num_0']",['num_7'],num_7,[1],'num_7',images/min1.png,"[(0.45, 0.79)]",,,,,0,8,8,8,4,3,19,0,,,,,"(-0.25, -0.04)",images/min2.png,9,0.0656676654471,0.445089868619,[ 0.7109375   0.04722222],,,2018_Jul_08_1313,59.7167650364,sequenceLearningTask,001,159,
min1.png,min2.png,min3.png,min4.png,allBlank.png,"['num_7', 'num_4', 'num_1', 'num_0']",['num_7'],num_7,[1],'num_7',images/min1.png,"[(0.45, 0.79)]",,,,,0,8,8,8,4,3,19,0,,,,,"(0.25, -0.04)",images/min3.png,9,0.0624094102532,0.709476632066,[-0.2046875  -0.15277778],0.275165425614,1,2018_Jul_08_1313,59.7167650364,sequenceLearningTask,001,159,
min1.png,min2.png,min3.png,min4.png,allBlank.png,"['num_7', 'num_4', 'num_1', 'num_0']",['num_7'],num_7,[1],'num_7',images/min1.png,"[(0.45, 0.79)]",,,,,0,8,8,8,4,3,19,0,,,,,"(0.75, -0.04)",images/min4.png,9,0.0479031598661,0.643199325888,[ 0.2328125   0.00277778],,,2018_Jul_08_1313,59.7167650364,sequenceLearningTask,001,159,
min1.png,min2.png,min3.png,min4.png,allBlank.png,"['num_7', 'num_4', 'num_1', 'num_0']",['num_7'],num_7,[1],'num_7',images/min1.png,"[(0.45, 0.79)]",,,,,0,9,9,9,4,3,19,0,,,,,"(-0.75, -0.04)",images/min1.png,10,0.0554067464545,0.720173653332,[ 0.7140625   0.06388889],,,2018_Jul_08_1313,59.7167650364,sequenceLearningTask,001,159,
min1.png,min2.png,min3.png,min4.png,allBlank.png,"['num_7', 'num_4', 'num_1', 'num_0']",['num_7'],num_7,[1],'num_7',images/min1.png,"[(0.45, 0.79)]",,,,,0,9,9,9,4,3,19,0,,,,,"(0.25, -0.04)",images/min3.png,10,0.0514600814786,0.419107520371,[-0.6        -0.23611111],,,2018_Jul_08_1313,59.7167650364,sequenceLearningTask,001,159,
min1.png,min2.png,min3.png,min4.png,allBlank.png,"['num_7', 'num_4', 'num_1', 'num_0']",['num_7'],num_7,[1],'num_7',images/min1.png,"[(0.45, 0.79)]",,,,,0,9,9,9,4,3,19,0,,,,,"(-0.25, -0.04)",images/min2.png,10,0.056299053831,0.637001995114,[ 0.3109375  -0.28333333],,,2018_Jul_08_1313,59.7167650364,sequenceLearningTask,001,159,
min1.png,min2.png,min3.png,min4.png,allBlank.png,"['num_7', 'num_4', 'num_1', 'num_0']",['num_7'],num_7,[1],'num_7',images/min1.png,"[(0.45, 0.79)]",,,,,0,9,9,9,4,3,19,0,,,,,"(0.75, -0.04)",images/min4.png,10,0.0645804863889,0.911154087749,[-0.1859375  -0.21666667],,,2018_Jul_08_1313,59.7167650364,sequenceLearningTask,001,159,
min1.png,min2.png,min3.png,min4.png,allBlank.png,"['num_7', 'num_4', 'num_1', 'num_0']",['num_7'],num_7,[1],'num_7',images/min1.png,"[(0.45, 0.79)]",,,,,0,9,9,9,4,3,19,0,,,,,"(0.75, -0.04)",images/min4.png,10,0.0635663329158,1.24784112908,[ 0.7140625   0.18055556],0.691647716216,1,2018_Jul_08_1313,59.7167650364,sequenceLearningTask,001,159,
min1.png,min2.png,min3.png,min4.png,allBlank.png,"['num_7', 'num_4', 'num_1', 'num_0']",['num_7'],num_7,[1],'num_7',images/min1.png,"[(0.45, 0.79)]",,,,,0,9,9,9,4,3,19,0,,,,,"(-0.25, -0.04)",images/min2.png,10,0.0540438753087,1.19435848447,[ 0.6953125   0.19722222],,,2018_Jul_08_1313,59.7167650364,sequenceLearningTask,001,159,
min1.png,min2.png,min3.png,min4.png,allBlank.png,"['num_7', 'num_4', 'num_1', 'num_0']",['num_7'],num_7,[1],'num_7',images/min1.png,"[(0.45, 0.79)]",,,,,0,9,9,9,4,3,19,0,,,,,"(0.25, -0.04)",images/min3.png,10,0.0568204894662,0.65405839833,[-0.1171875  -0.12222222],,,2018_Jul_08_1313,59.7167650364,sequenceLearningTask,001,159,
min1.png,min2.png,min3.png,min4.png,allBlank.png,"['num_7', 'num_4', 'num_1', 'num_0']",['num_7'],num_7,[1],'num_7',images/min1.png,"[(0.45, 0.79)]",,,,,0,9,9,9,4,3,19,0,,,,,"(0.75, -0.04)",images/min4.png,10,0.0507938252995,0.90945111413,[ 0.3390625  -0.13055556],,,2018_Jul_08_1313,59.7167650364,sequenceLearningTask,001,159,
min1.png,min2.png,min3.png,min4.png,allBlank.png,"['num_7', 'num_4', 'num_1', 'num_0']",['num_7'],num_7,[1],'num_7',images/min1.png,"[(0.45, 0.79)]",,,,,0,9,9,9,4,3,19,0,0,-1,-1,0,,,,,,,,,2018_Jul_08_1313,59.7167650364,sequenceLearningTask,001,159,
