pawPatrol1,pawPatrol2,pawPatrol3,pawPatrol4,blank,allowableKey,correctKey,correctKeyPressNum,posLoc,correctKeyPress,randomPaw,im_size,trials.thisRepN,trials.thisTrialN,trials.thisN,trials.thisIndex,trials_3.thisRepN,trials_3.thisTrialN,trials_3.thisN,trials_3.thisIndex,trials_2.thisRepN,trials_2.thisTrialN,trials_2.thisN,trials_2.thisIndex,trials_questions.thisRepN,trials_questions.thisTrialN,trials_questions.thisN,trials_questions.thisIndex,trials_test.thisRepN,trials_test.thisTrialN,trials_test.thisN,trials_test.thisIndex,trials_recogtest.thisRepN,trials_recogtest.thisTrialN,trials_recogtest.thisN,trials_recogtest.thisIndex,correctLocation,correctImage,repetitionNumber,stimulusPresent.t,responseTimeCorrect,pressLoc,responseTimeIncorrect,trialIncorrect,anticipatoryResponse,questionsResponses,AnswerFinished.keys,AnswerFinished.rt,RecordAnswer.keys,RecordAnswer.rt,correctKey,trialCorrect,recallResponse,recallResponseTime,date,frameRate,expName,session,participant,
min1.png,min2.png,min3.png,min4.png,allBlank.png,,,,,,,,,,,,0,0,0,0,,,,,,,,,,,,,,,,,"(-0.75, -0.04)",images/min1.png,1,0.0712118682222,0.714200732637,[ 0.746875   -0.11944444],,,,,,,,,,,,,2018_Jul_01_1238,59.9709433209,sequenceLearningTask,001,164,
min1.png,min2.png,min3.png,min4.png,allBlank.png,,,,,,,,,,,,0,0,0,0,,,,,,,,,,,,,,,,,"(0.25, -0.04)",images/min3.png,1,0.0819023253734,0.558661514395,[-0.7140625  -0.06111111],,,,,,,,,,,,,2018_Jul_01_1238,59.9709433209,sequenceLearningTask,001,164,
min1.png,min2.png,min3.png,min4.png,allBlank.png,,,,,,,,,,,,0,0,0,0,,,,,,,,,,,,,,,,,"(-0.25, -0.04)",images/min2.png,1,0.0792455059509,0.631737176724,[ 0.325      -0.07777778],,,,,,,,,,,,,2018_Jul_01_1238,59.9709433209,sequenceLearningTask,001,164,
min1.png,min2.png,min3.png,min4.png,allBlank.png,,,,,,,,,,,,0,0,0,0,,,,,,,,,,,,,,,,,"(0.75, -0.04)",images/min4.png,1,0.0836397605581,0.544113828057,[-0.215625   -0.26111111],,,,,,,,,,,,,2018_Jul_01_1238,59.9709433209,sequenceLearningTask,001,164,
min1.png,min2.png,min3.png,min4.png,allBlank.png,,,,,,,,,,,,0,0,0,0,,,,,,,,,,,,,,,,,"(0.75, -0.04)",images/min4.png,1,0.0622851026528,0.643831530737,[ 0.7625     -0.09444444],,,,,,,,,,,,,2018_Jul_01_1238,59.9709433209,sequenceLearningTask,001,164,
min1.png,min2.png,min3.png,min4.png,allBlank.png,,,,,,,,,,,,0,0,0,0,,,,,,,,,,,,,,,,,"(-0.25, -0.04)",images/min2.png,1,0.0501767999285,0.72304708798,[ 0.7328125  -0.26666667],,,,,,,,,,,,,2018_Jul_01_1238,59.9709433209,sequenceLearningTask,001,164,
min1.png,min2.png,min3.png,min4.png,allBlank.png,,,,,,,,,,,,0,0,0,0,,,,,,,,,,,,,,,,,"(0.25, -0.04)",images/min3.png,1,0.0571482842479,0.619994412309,[-0.21875    -0.31944444],,,,,,,,,,,,,2018_Jul_01_1238,59.9709433209,sequenceLearningTask,001,164,
min1.png,min2.png,min3.png,min4.png,allBlank.png,,,,,,,,,,,,0,0,0,0,,,,,,,,,,,,,,,,,"(0.75, -0.04)",images/min4.png,1,0.0553718747196,0.622350513908,[ 0.3        -0.26111111],,,,,,,,,,,,,2018_Jul_01_1238,59.9709433209,sequenceLearningTask,001,164,
min1.png,min2.png,min3.png,min4.png,allBlank.png,,,,,,,,,,,,0,1,1,1,,,,,,,,,,,,,,,,,"(-0.75, -0.04)",images/min1.png,2,0.0626379230198,0.713852425088,[ 0.7171875  -0.19166667],,,,,,,,,,,,,2018_Jul_01_1238,59.9709433209,sequenceLearningTask,001,164,
min1.png,min2.png,min3.png,min4.png,allBlank.png,,,,,,,,,,,,0,1,1,1,,,,,,,,,,,,,,,,,"(0.25, -0.04)",images/min3.png,2,0.0514038763486,0.675142697377,[-0.7171875  -0.21944444],,,,,,,,,,,,,2018_Jul_01_1238,59.9709433209,sequenceLearningTask,001,164,
min1.png,min2.png,min3.png,min4.png,allBlank.png,,,,,,,,,,,,0,1,1,1,,,,,,,,,,,,,,,,,"(-0.25, -0.04)",images/min2.png,2,0.0519971068734,0.708403401681,[ 0.253125   -0.23611111],,,,,,,,,,,,,2018_Jul_01_1238,59.9709433209,sequenceLearningTask,001,164,
min1.png,min2.png,min3.png,min4.png,allBlank.png,,,,,,,,,,,,0,1,1,1,,,,,,,,,,,,,,,,,"(0.75, -0.04)",images/min4.png,2,0.0550407979317,0.621600565497,[-0.21875    -0.14722222],,,,,,,,,,,,,2018_Jul_01_1238,59.9709433209,sequenceLearningTask,001,164,
min1.png,min2.png,min3.png,min4.png,allBlank.png,,,,,,,,,,,,0,1,1,1,,,,,,,,,,,,,,,,,"(0.75, -0.04)",images/min4.png,2,0.0561263359486,0.823460585247,[ 0.684375   -0.17222222],,,,,,,,,,,,,2018_Jul_01_1238,59.9709433209,sequenceLearningTask,001,164,
min1.png,min2.png,min3.png,min4.png,allBlank.png,,,,,,,,,,,,0,1,1,1,,,,,,,,,,,,,,,,,"(-0.25, -0.04)",images/min2.png,2,0.0555626438709,0.770441530076,[ 0.6828125  -0.11944444],,,,,,,,,,,,,2018_Jul_01_1238,59.9709433209,sequenceLearningTask,001,164,
min1.png,min2.png,min3.png,min4.png,allBlank.png,,,,,,,,,,,,0,1,1,1,,,,,,,,,,,,,,,,,"(0.25, -0.04)",images/min3.png,2,0.0772701221449,0.665718701244,[-0.203125   -0.05277778],,,,,,,,,,,,,2018_Jul_01_1238,59.9709433209,sequenceLearningTask,001,164,
min1.png,min2.png,min3.png,min4.png,allBlank.png,,,,,,,,,,,,0,1,1,1,,,,,,,,,,,,,,,,,"(0.75, -0.04)",images/min4.png,2,0.0496795693634,0.714489553031,[ 0.28125    -0.13333333],,,,,,,,,,,,,2018_Jul_01_1238,59.9709433209,sequenceLearningTask,001,164,
min1.png,min2.png,min3.png,min4.png,allBlank.png,,,,,,,,,,,,0,2,2,2,,,,,,,,,,,,,,,,,"(-0.75, -0.04)",images/min1.png,3,0.0640586403861,0.889815840077,[ 0.7625     -0.16388889],,,,,,,,,,,,,2018_Jul_01_1238,59.9709433209,sequenceLearningTask,001,164,
min1.png,min2.png,min3.png,min4.png,allBlank.png,,,,,,,,,,,,0,2,2,2,,,,,,,,,,,,,,,,,"(0.25, -0.04)",images/min3.png,3,0.0661612036256,0.628778408707,[-0.6953125  -0.11388889],,,,,,,,,,,,,2018_Jul_01_1238,59.9709433209,sequenceLearningTask,001,164,
min1.png,min2.png,min3.png,min4.png,allBlank.png,,,,,,,,,,,,0,2,2,2,,,,,,,,,,,,,,,,,"(-0.25, -0.04)",images/min2.png,3,0.0495999796512,0.610278723989,[ 0.21875    -0.27222222],,,,,,,,,,,,,2018_Jul_01_1238,59.9709433209,sequenceLearningTask,001,164,
min1.png,min2.png,min3.png,min4.png,allBlank.png,,,,,,,,,,,,0,2,2,2,,,,,,,,,,,,,,,,,"(0.75, -0.04)",images/min4.png,3,0.0513287994545,0.824159661883,[-0.2640625  -0.16944444],,,,,,,,,,,,,2018_Jul_01_1238,59.9709433209,sequenceLearningTask,001,164,
min1.png,min2.png,min3.png,min4.png,allBlank.png,,,,,,,,,,,,0,2,2,2,,,,,,,,,,,,,,,,,"(0.75, -0.04)",images/min4.png,3,0.0555696182273,0.671087314426,[ 0.7140625  -0.20833333],,,,,,,,,,,,,2018_Jul_01_1238,59.9709433209,sequenceLearningTask,001,164,
min1.png,min2.png,min3.png,min4.png,allBlank.png,,,,,,,,,,,,0,2,2,2,,,,,,,,,,,,,,,,,"(-0.25, -0.04)",images/min2.png,3,0.0530613115643,0.757348612369,[ 0.6921875  -0.26388889],,,,,,,,,,,,,2018_Jul_01_1238,59.9709433209,sequenceLearningTask,001,164,
min1.png,min2.png,min3.png,min4.png,allBlank.png,,,,,,,,,,,,0,2,2,2,,,,,,,,,,,,,,,,,"(0.25, -0.04)",images/min3.png,3,0.05276920912,0.639652250398,[-0.221875 -0.15    ],,,,,,,,,,,,,2018_Jul_01_1238,59.9709433209,sequenceLearningTask,001,164,
min1.png,min2.png,min3.png,min4.png,allBlank.png,,,,,,,,,,,,0,2,2,2,,,,,,,,,,,,,,,,,"(0.75, -0.04)",images/min4.png,3,0.05608900263,0.568071972073,[ 0.1796875  -0.18333333],,,,,,,,,,,,,2018_Jul_01_1238,59.9709433209,sequenceLearningTask,001,164,
min1.png,min2.png,min3.png,min4.png,allBlank.png,,,,,,,,,,,,0,3,3,3,,,,,,,,,,,,,,,,,"(-0.75, -0.04)",images/min1.png,4,0.0570165919926,0.783399473477,[ 0.709375 -0.225   ],,,,,,,,,,,,,2018_Jul_01_1238,59.9709433209,sequenceLearningTask,001,164,
min1.png,min2.png,min3.png,min4.png,allBlank.png,,,,,,,,,,,,0,3,3,3,,,,,,,,,,,,,,,,,"(0.25, -0.04)",images/min3.png,4,0.0710781246853,0.648371016052,[-0.7234375  -0.10277778],,,,,,,,,,,,,2018_Jul_01_1238,59.9709433209,sequenceLearningTask,001,164,
min1.png,min2.png,min3.png,min4.png,allBlank.png,,,,,,,,,,,,0,3,3,3,,,,,,,,,,,,,,,,,"(-0.25, -0.04)",images/min2.png,4,0.0564660281161,0.650158912757,[ 0.20625    -0.31388889],,,,,,,,,,,,,2018_Jul_01_1238,59.9709433209,sequenceLearningTask,001,164,
min1.png,min2.png,min3.png,min4.png,allBlank.png,,,,,,,,,,,,0,3,3,3,,,,,,,,,,,,,,,,,"(0.75, -0.04)",images/min4.png,4,0.0549657210395,0.653837270222,[-0.2265625  -0.18611111],,,,,,,,,,,,,2018_Jul_01_1238,59.9709433209,sequenceLearningTask,001,164,
min1.png,min2.png,min3.png,min4.png,allBlank.png,,,,,,,,,,,,0,3,3,3,,,,,,,,,,,,,,,,,"(0.75, -0.04)",images/min4.png,4,0.0555889002717,0.719111089595,[ 0.7375     -0.09166667],,,,,,,,,,,,,2018_Jul_01_1238,59.9709433209,sequenceLearningTask,001,164,
min1.png,min2.png,min3.png,min4.png,allBlank.png,,,,,,,,,,,,0,3,3,3,,,,,,,,,,,,,,,,,"(-0.25, -0.04)",images/min2.png,4,0.0549074646533,0.705767915582,[ 0.7328125  -0.26944444],,,,,,,,,,,,,2018_Jul_01_1238,59.9709433209,sequenceLearningTask,001,164,
min1.png,min2.png,min3.png,min4.png,allBlank.png,,,,,,,,,,,,0,3,3,3,,,,,,,,,,,,,,,,,"(0.25, -0.04)",images/min3.png,4,0.0598920779921,0.567529613321,[-0.0953125  -0.18611111],,,,,,,,,,,,,2018_Jul_01_1238,59.9709433209,sequenceLearningTask,001,164,
min1.png,min2.png,min3.png,min4.png,allBlank.png,,,,,,,,,,,,0,3,3,3,,,,,,,,,,,,,,,,,"(0.75, -0.04)",images/min4.png,4,0.0683248950463,0.44257910048,[ 0.2578125 -0.225    ],,,,,,,,,,,,,2018_Jul_01_1238,59.9709433209,sequenceLearningTask,001,164,
min1.png,min2.png,min3.png,min4.png,allBlank.png,,,,,,,,,,,,0,4,4,4,,,,,,,,,,,,,,,,,"(-0.75, -0.04)",images/min1.png,5,0.056261310252,0.885019534351,[ 0.6921875  -0.27222222],,,,,,,,,,,,,2018_Jul_01_1238,59.9709433209,sequenceLearningTask,001,164,
min1.png,min2.png,min3.png,min4.png,allBlank.png,,,,,,,,,,,,0,4,4,4,,,,,,,,,,,,,,,,,"(0.25, -0.04)",images/min3.png,5,0.0590325911653,0.888940763512,[-0.7390625  -0.32777778],,,,,,,,,,,,,2018_Jul_01_1238,59.9709433209,sequenceLearningTask,001,164,
min1.png,min2.png,min3.png,min4.png,allBlank.png,,,,,,,,,,,,0,4,4,4,,,,,,,,,,,,,,,,,"(-0.25, -0.04)",images/min2.png,5,0.0544237725426,0.654148654708,[ 0.2421875  -0.28055556],,,,,,,,,,,,,2018_Jul_01_1238,59.9709433209,sequenceLearningTask,001,164,
min1.png,min2.png,min3.png,min4.png,allBlank.png,,,,,,,,,,,,0,4,4,4,,,,,,,,,,,,,,,,,"(0.75, -0.04)",images/min4.png,5,0.0550182338393,0.43747551283,[-0.1515625  -0.28611111],,,,,,,,,,,,,2018_Jul_01_1238,59.9709433209,sequenceLearningTask,001,164,
min1.png,min2.png,min3.png,min4.png,allBlank.png,,,,,,,,,,,,0,4,4,4,,,,,,,,,,,,,,,,,"(0.75, -0.04)",images/min4.png,5,0.0519491068935,0.674700851405,[ 0.703125   -0.31944444],,,,,,,,,,,,,2018_Jul_01_1238,59.9709433209,sequenceLearningTask,001,164,
min1.png,min2.png,min3.png,min4.png,allBlank.png,,,,,,,,,,,,0,4,4,4,,,,,,,,,,,,,,,,,"(-0.25, -0.04)",images/min2.png,5,0.0581837710015,0.667847931139,[ 0.7015625  -0.25833333],,,,,,,,,,,,,2018_Jul_01_1238,59.9709433209,sequenceLearningTask,001,164,
min1.png,min2.png,min3.png,min4.png,allBlank.png,,,,,,,,,,,,0,4,4,4,,,,,,,,,,,,,,,,,"(0.25, -0.04)",images/min3.png,5,0.0546875673081,0.620895335018,[-0.1546875  -0.35833333],,,,,,,,,,,,,2018_Jul_01_1238,59.9709433209,sequenceLearningTask,001,164,
min1.png,min2.png,min3.png,min4.png,allBlank.png,,,,,,,,,,,,0,4,4,4,,,,,,,,,,,,,,,,,"(0.75, -0.04)",images/min4.png,5,0.0489456209452,0.492653336347,[ 0.265625   -0.26944444],,,,,,,,,,,,,2018_Jul_01_1238,59.9709433209,sequenceLearningTask,001,164,
min1.png,min2.png,min3.png,min4.png,allBlank.png,,,,,,,,,,,,0,5,5,5,,,,,,,,,,,,,,,,,"(-0.75, -0.04)",images/min1.png,6,0.0535117729196,0.821481509136,[ 0.6234375  -0.31944444],,,,,,,,,,,,,2018_Jul_01_1238,59.9709433209,sequenceLearningTask,001,164,
min1.png,min2.png,min3.png,min4.png,allBlank.png,,,,,,,,,,,,0,5,5,5,,,,,,,,,,,,,,,,,"(0.25, -0.04)",images/min3.png,6,0.0570924893982,0.647648965067,[-0.6890625  -0.26388889],,,,,,,,,,,,,2018_Jul_01_1238,59.9709433209,sequenceLearningTask,001,164,
min1.png,min2.png,min3.png,min4.png,allBlank.png,,,,,,,,,,,,0,5,5,5,,,,,,,,,,,,,,,,,"(-0.25, -0.04)",images/min2.png,6,0.0556467464012,0.670111725081,[ 0.2578125  -0.26388889],,,,,,,,,,,,,2018_Jul_01_1238,59.9709433209,sequenceLearningTask,001,164,
min1.png,min2.png,min3.png,min4.png,allBlank.png,,,,,,,,,,,,0,5,5,5,,,,,,,,,,,,,,,,,"(0.75, -0.04)",images/min4.png,6,0.0576053097011,0.486938877153,[-0.1421875 -0.225    ],,,,,,,,,,,,,2018_Jul_01_1238,59.9709433209,sequenceLearningTask,001,164,
min1.png,min2.png,min3.png,min4.png,allBlank.png,,,,,,,,,,,,0,5,5,5,,,,,,,,,,,,,,,,,"(0.75, -0.04)",images/min4.png,6,0.0563158743316,0.556031771885,[ 0.6765625  -0.28055556],,,,,,,,,,,,,2018_Jul_01_1238,59.9709433209,sequenceLearningTask,001,164,
min1.png,min2.png,min3.png,min4.png,allBlank.png,,,,,,,,,,,,0,5,5,5,,,,,,,,,,,,,,,,,"(-0.25, -0.04)",images/min2.png,6,0.0677476645142,1.04317618742,[ 0.6484375  -0.29444444],,,,,,,,,,,,,2018_Jul_01_1238,59.9709433209,sequenceLearningTask,001,164,
min1.png,min2.png,min3.png,min4.png,allBlank.png,,,,,,,,,,,,0,5,5,5,,,,,,,,,,,,,,,,,"(0.25, -0.04)",images/min3.png,6,0.0592660269667,0.717898782401,[-0.2703125  -0.26944444],,,,,,,,,,,,,2018_Jul_01_1238,59.9709433209,sequenceLearningTask,001,164,
min1.png,min2.png,min3.png,min4.png,allBlank.png,,,,,,,,,,,,0,5,5,5,,,,,,,,,,,,,,,,,"(0.75, -0.04)",images/min4.png,6,0.056561617821,0.554568798127,[ 0.1859375  -0.14722222],,,,,,,,,,,,,2018_Jul_01_1238,59.9709433209,sequenceLearningTask,001,164,
min1.png,min2.png,min3.png,min4.png,allBlank.png,,,,,,,,,,,,0,6,6,6,,,,,,,,,,,,,,,,,"(-0.75, -0.04)",images/min1.png,7,0.0575023353849,0.902963321862,[ 0.6625     -0.27222222],,,,,,,,,,,,,2018_Jul_01_1238,59.9709433209,sequenceLearningTask,001,164,
min1.png,min2.png,min3.png,min4.png,allBlank.png,,,,,,,,,,,,0,6,6,6,,,,,,,,,,,,,,,,,"(0.25, -0.04)",images/min3.png,7,0.0523002862355,0.574369405387,[-0.709375   -0.22222222],,,,,,,,,,,,,2018_Jul_01_1238,59.9709433209,sequenceLearningTask,001,164,
min1.png,min2.png,min3.png,min4.png,allBlank.png,,,,,,,,,,,,0,6,6,6,,,,,,,,,,,,,,,,,"(-0.25, -0.04)",images/min2.png,7,0.0596044883678,0.919805571362,[ 0.2734375  -0.33333333],,,,,,,,,,,,,2018_Jul_01_1238,59.9709433209,sequenceLearningTask,001,164,
min1.png,min2.png,min3.png,min4.png,allBlank.png,,,,,,,,,,,,0,6,6,6,,,,,,,,,,,,,,,,,"(0.75, -0.04)",images/min4.png,7,0.0584890016453,0.656773884401,[-0.2125     -0.34444444],,,,,,,,,,,,,2018_Jul_01_1238,59.9709433209,sequenceLearningTask,001,164,
min1.png,min2.png,min3.png,min4.png,allBlank.png,,,,,,,,,,,,0,6,6,6,,,,,,,,,,,,,,,,,"(0.75, -0.04)",images/min4.png,7,0.0546202852838,0.638473994473,[ 0.7109375  -0.26388889],,,,,,,,,,,,,2018_Jul_01_1238,59.9709433209,sequenceLearningTask,001,164,
min1.png,min2.png,min3.png,min4.png,allBlank.png,,,,,,,,,,,,0,6,6,6,,,,,,,,,,,,,,,,,"(-0.25, -0.04)",images/min2.png,7,0.0529152603413,1.16130947228,[ 0.7671875  -0.22222222],0.607719135294,1,,,,,,,,,,,2018_Jul_01_1238,59.9709433209,sequenceLearningTask,001,164,
min1.png,min2.png,min3.png,min4.png,allBlank.png,,,,,,,,,,,,0,6,6,6,,,,,,,,,,,,,,,,,"(0.25, -0.04)",images/min3.png,7,0.0611856159248,0.581696581869,[-0.2296875  -0.19444444],,,,,,,,,,,,,2018_Jul_01_1238,59.9709433209,sequenceLearningTask,001,164,
min1.png,min2.png,min3.png,min4.png,allBlank.png,,,,,,,,,,,,0,6,6,6,,,,,,,,,,,,,,,,,"(0.75, -0.04)",images/min4.png,7,0.0593488987288,0.582244684207,[ 0.2515625  -0.24444444],,,,,,,,,,,,,2018_Jul_01_1238,59.9709433209,sequenceLearningTask,001,164,
min1.png,min2.png,min3.png,min4.png,allBlank.png,,,,,,,,,,,,0,7,7,7,,,,,,,,,,,,,,,,,"(-0.75, -0.04)",images/min1.png,8,0.0499368000255,0.923542185214,[ 0.79375    -0.20277778],,,,,,,,,,,,,2018_Jul_01_1238,59.9709433209,sequenceLearningTask,001,164,
min1.png,min2.png,min3.png,min4.png,allBlank.png,,,,,,,,,,,,0,7,7,7,,,,,,,,,,,,,,,,,"(0.25, -0.04)",images/min3.png,8,0.0551552594225,1.15624937179,[-0.6640625  -0.24444444],,,,,,,,,,,,,2018_Jul_01_1238,59.9709433209,sequenceLearningTask,001,164,
min1.png,min2.png,min3.png,min4.png,allBlank.png,,,,,,,,,,,,0,7,7,7,,,,,,,,,,,,,,,,,"(-0.25, -0.04)",images/min2.png,8,0.0582580273804,1.18795315366,[ 0.2        -0.29722222],,,,,,,,,,,,,2018_Jul_01_1238,59.9709433209,sequenceLearningTask,001,164,
min1.png,min2.png,min3.png,min4.png,allBlank.png,,,,,,,,,,,,0,7,7,7,,,,,,,,,,,,,,,,,"(0.75, -0.04)",images/min4.png,8,0.0546662339821,0.759623072976,[-0.1796875  -0.26111111],,,,,,,,,,,,,2018_Jul_01_1238,59.9709433209,sequenceLearningTask,001,164,
min1.png,min2.png,min3.png,min4.png,allBlank.png,,,,,,,,,,,,0,7,7,7,,,,,,,,,,,,,,,,,"(0.75, -0.04)",images/min4.png,8,0.0596389498915,0.712090784782,[ 0.6921875  -0.18333333],,,,,,,,,,,,,2018_Jul_01_1238,59.9709433209,sequenceLearningTask,001,164,
min1.png,min2.png,min3.png,min4.png,allBlank.png,,,,,,,,,,,,0,7,7,7,,,,,,,,,,,,,,,,,"(-0.25, -0.04)",images/min2.png,8,0.0665333060388,0.838013604916,[ 0.71875    -0.21388889],,,,,,,,,,,,,2018_Jul_01_1238,59.9709433209,sequenceLearningTask,001,164,
min1.png,min2.png,min3.png,min4.png,allBlank.png,,,,,,,,,,,,0,7,7,7,,,,,,,,,,,,,,,,,"(0.25, -0.04)",images/min3.png,8,0.050896799632,0.657308038028,[-0.2140625  -0.21666667],,,,,,,,,,,,,2018_Jul_01_1238,59.9709433209,sequenceLearningTask,001,164,
min1.png,min2.png,min3.png,min4.png,allBlank.png,,,,,,,,,,,,0,7,7,7,,,,,,,,,,,,,,,,,"(0.75, -0.04)",images/min4.png,8,0.0588278733012,2.51009948304,[ 0.2140625  -0.28888889],,,,,,,,,,,,,2018_Jul_01_1238,59.9709433209,sequenceLearningTask,001,164,
min1.png,min2.png,min3.png,min4.png,allBlank.png,,,,,,,,,,,,0,8,8,8,,,,,,,,,,,,,,,,,"(-0.75, -0.04)",images/min1.png,9,0.0584143350097,0.883375637588,[ 0.765625   -0.23888889],,,,,,,,,,,,,2018_Jul_01_1238,59.9709433209,sequenceLearningTask,001,164,
min1.png,min2.png,min3.png,min4.png,allBlank.png,,,,,,,,,,,,0,8,8,8,,,,,,,,,,,,,,,,,"(0.25, -0.04)",images/min3.png,9,0.0568106433602,0.602448573354,[-0.7234375  -0.14722222],,,,,,,,,,,,,2018_Jul_01_1238,59.9709433209,sequenceLearningTask,001,164,
min1.png,min2.png,min3.png,min4.png,allBlank.png,,,,,,,,,,,,0,8,8,8,,,,,,,,,,,,,,,,,"(-0.25, -0.04)",images/min2.png,9,0.0563458230372,1.18897140965,[ 0.3015625  -0.20555556],,,,,,,,,,,,,2018_Jul_01_1238,59.9709433209,sequenceLearningTask,001,164,
min1.png,min2.png,min3.png,min4.png,allBlank.png,,,,,,,,,,,,0,8,8,8,,,,,,,,,,,,,,,,,"(0.75, -0.04)",images/min4.png,9,0.0515687993575,0.875025282041,[-0.228125   -0.29444444],,,,,,,,,,,,,2018_Jul_01_1238,59.9709433209,sequenceLearningTask,001,164,
min1.png,min2.png,min3.png,min4.png,allBlank.png,,,,,,,,,,,,0,8,8,8,,,,,,,,,,,,,,,,,"(0.75, -0.04)",images/min4.png,9,0.0554957721051,0.572015355072,[ 0.765625 -0.425   ],,,,,,,,,,,,,2018_Jul_01_1238,59.9709433209,sequenceLearningTask,001,164,
min1.png,min2.png,min3.png,min4.png,allBlank.png,,,,,,,,,,,,0,8,8,8,,,,,,,,,,,,,,,,,"(-0.25, -0.04)",images/min2.png,9,0.0528639783115,1.14188424948,[ 0.7234375  -0.35277778],0.551540286548,1,,,,,,,,,,,2018_Jul_01_1238,59.9709433209,sequenceLearningTask,001,164,
min1.png,min2.png,min3.png,min4.png,allBlank.png,,,,,,,,,,,,0,8,8,8,,,,,,,,,,,,,,,,,"(0.25, -0.04)",images/min3.png,9,0.0650284861422,0.430949156533,[-0.184375   -0.31388889],,,,,,,,,,,,,2018_Jul_01_1238,59.9709433209,sequenceLearningTask,001,164,
min1.png,min2.png,min3.png,min4.png,allBlank.png,,,,,,,,,,,,0,8,8,8,,,,,,,,,,,,,,,,,"(0.75, -0.04)",images/min4.png,9,0.0637517687173,3.35745339181,[ 0.2265625  -0.28611111],0.208807298952,1,,,,,,,,,,,2018_Jul_01_1238,59.9709433209,sequenceLearningTask,001,164,
min1.png,min2.png,min3.png,min4.png,allBlank.png,,,,,,,,,,,,0,9,9,9,,,,,,,,,,,,,,,,,"(-0.75, -0.04)",images/min1.png,10,0.0519909530303,0.82241976516,[ 0.6828125  -0.26388889],,,,,,,,,,,,,2018_Jul_01_1238,59.9709433209,sequenceLearningTask,001,164,
min1.png,min2.png,min3.png,min4.png,allBlank.png,,,,,,,,,,,,0,9,9,9,,,,,,,,,,,,,,,,,"(0.25, -0.04)",images/min3.png,10,0.0566924895629,1.22124175539,[-0.7203125  -0.23333333],0.618944566586,1,,,,,,,,,,,2018_Jul_01_1238,59.9709433209,sequenceLearningTask,001,164,
min1.png,min2.png,min3.png,min4.png,allBlank.png,,,,,,,,,,,,0,9,9,9,,,,,,,,,,,,,,,,,"(-0.25, -0.04)",images/min2.png,10,0.0532951576224,0.768737325647,[ 0.2671875  -0.30555556],,,,,,,,,,,,,2018_Jul_01_1238,59.9709433209,sequenceLearningTask,001,164,
min1.png,min2.png,min3.png,min4.png,allBlank.png,,,,,,,,,,,,0,9,9,9,,,,,,,,,,,,,,,,,"(0.75, -0.04)",images/min4.png,10,0.0529542346867,0.751072922636,[-0.25625    -0.17777778],,,,,,,,,,,,,2018_Jul_01_1238,59.9709433209,sequenceLearningTask,001,164,
min1.png,min2.png,min3.png,min4.png,allBlank.png,,,,,,,,,,,,0,9,9,9,,,,,,,,,,,,,,,,,"(0.75, -0.04)",images/min4.png,10,0.0597238729351,0.664620035028,[ 0.7234375  -0.24722222],,,,,,,,,,,,,2018_Jul_01_1238,59.9709433209,sequenceLearningTask,001,164,
min1.png,min2.png,min3.png,min4.png,allBlank.png,,,,,,,,,,,,0,9,9,9,,,,,,,,,,,,,,,,,"(-0.25, -0.04)",images/min2.png,10,0.062649820451,0.70882596561,[ 0.7609375  -0.26111111],,,,,,,,,,,,,2018_Jul_01_1238,59.9709433209,sequenceLearningTask,001,164,
min1.png,min2.png,min3.png,min4.png,allBlank.png,,,,,,,,,,,,0,9,9,9,,,,,,,,,,,,,,,,,"(0.25, -0.04)",images/min3.png,10,0.0609825390839,0.643631735946,[-0.2484375 -0.375    ],,,,,,,,,,,,,2018_Jul_01_1238,59.9709433209,sequenceLearningTask,001,164,
min1.png,min2.png,min3.png,min4.png,allBlank.png,,,,,,,,,,,,0,9,9,9,,,,,,,,,,,,,,,,,"(0.75, -0.04)",images/min4.png,10,0.0541776188002,0.652886706508,[ 0.2828125  -0.28611111],,,,,,,,,,,,,2018_Jul_01_1238,59.9709433209,sequenceLearningTask,001,164,
min1.png,min2.png,min3.png,min4.png,allBlank.png,,,,,,,,,,,,0,0,0,0,,,,,,,,,,,,,,,,,"(-0.75, -0.04)",images/min1.png,1,0.0369427540736,0.980200623506,[ 0.7734375 -0.125    ],,,,,,,,,,,,,2018_Jul_01_1238,59.9709433209,sequenceLearningTask,001,164,
min1.png,min2.png,min3.png,min4.png,allBlank.png,,,,,,,,,,,,0,0,0,0,,,,,,,,,,,,,,,,,"(0.25, -0.04)",images/min3.png,1,0.0632200766267,0.567220280116,[-0.7453125  -0.01388889],,,,,,,,,,,,,2018_Jul_01_1238,59.9709433209,sequenceLearningTask,001,164,
min1.png,min2.png,min3.png,min4.png,allBlank.png,,,,,,,,,,,,0,0,0,0,,,,,,,,,,,,,,,,,"(-0.25, -0.04)",images/min2.png,1,0.0567770023481,0.687338384681,[ 0.290625   -0.00555556],,,,,,,,,,,,,2018_Jul_01_1238,59.9709433209,sequenceLearningTask,001,164,
min1.png,min2.png,min3.png,min4.png,allBlank.png,,,,,,,,,,,,0,0,0,0,,,,,,,,,,,,,,,,,"(0.75, -0.04)",images/min4.png,1,0.0575523866446,0.498733744109,[-0.1359375  -0.06944444],,,,,,,,,,,,,2018_Jul_01_1238,59.9709433209,sequenceLearningTask,001,164,
min1.png,min2.png,min3.png,min4.png,allBlank.png,,,,,,,,,,,,0,0,0,0,,,,,,,,,,,,,,,,,"(0.75, -0.04)",images/min4.png,1,0.0588963860937,0.528450654994,[ 0.775      -0.20833333],,,,,,,,,,,,,2018_Jul_01_1238,59.9709433209,sequenceLearningTask,001,164,
min1.png,min2.png,min3.png,min4.png,allBlank.png,,,,,,,,,,,,0,0,0,0,,,,,,,,,,,,,,,,,"(-0.25, -0.04)",images/min2.png,1,0.060589513605,0.631192356434,[ 0.6953125 -0.075    ],,,,,,,,,,,,,2018_Jul_01_1238,59.9709433209,sequenceLearningTask,001,164,
min1.png,min2.png,min3.png,min4.png,allBlank.png,,,,,,,,,,,,0,0,0,0,,,,,,,,,,,,,,,,,"(0.25, -0.04)",images/min3.png,1,0.0519002864003,0.558933104028,[-0.2171875  0.025    ],,,,,,,,,,,,,2018_Jul_01_1238,59.9709433209,sequenceLearningTask,001,164,
min1.png,min2.png,min3.png,min4.png,allBlank.png,,,,,,,,,,,,0,0,0,0,,,,,,,,,,,,,,,,,"(0.75, -0.04)",images/min4.png,1,0.0637361789795,0.492672618391,[ 0.2921875  -0.18611111],,,,,,,,,,,,,2018_Jul_01_1238,59.9709433209,sequenceLearningTask,001,164,
min1.png,min2.png,min3.png,min4.png,allBlank.png,,,,,,,,,,,,0,1,1,1,,,,,,,,,,,,,,,,,"(-0.75, -0.04)",images/min1.png,2,0.0612028466858,0.707206273966,[ 0.7359375  -0.08055556],,,,,,,,,,,,,2018_Jul_01_1238,59.9709433209,sequenceLearningTask,001,164,
min1.png,min2.png,min3.png,min4.png,allBlank.png,,,,,,,,,,,,0,1,1,1,,,,,,,,,,,,,,,,,"(0.25, -0.04)",images/min3.png,2,0.0582239761115,0.984015596301,[-0.75625    -0.08333333],,,,,,,,,,,,,2018_Jul_01_1238,59.9709433209,sequenceLearningTask,001,164,
min1.png,min2.png,min3.png,min4.png,allBlank.png,,,,,,,,,,,,0,1,1,1,,,,,,,,,,,,,,,,,"(-0.25, -0.04)",images/min2.png,2,0.0548463364721,0.840040270754,[ 0.3359375  -0.23611111],,,,,,,,,,,,,2018_Jul_01_1238,59.9709433209,sequenceLearningTask,001,164,
min1.png,min2.png,min3.png,min4.png,allBlank.png,,,,,,,,,,,,0,1,1,1,,,,,,,,,,,,,,,,,"(0.75, -0.04)",images/min4.png,2,0.0540291060406,0.524472810474,[-0.3015625  -0.18611111],,,,,,,,,,,,,2018_Jul_01_1238,59.9709433209,sequenceLearningTask,001,164,
min1.png,min2.png,min3.png,min4.png,allBlank.png,,,,,,,,,,,,0,1,1,1,,,,,,,,,,,,,,,,,"(0.75, -0.04)",images/min4.png,2,0.0514900301587,0.72400339528,[-0.25       -0.26388889],,,,,,,,,,,,,2018_Jul_01_1238,59.9709433209,sequenceLearningTask,001,164,
min1.png,min2.png,min3.png,min4.png,allBlank.png,,,,,,,,,,,,0,1,1,1,,,,,,,,,,,,,,,,,"(-0.25, -0.04)",images/min2.png,2,0.0600385394719,0.816117819029,[ 0.74375    -0.15277778],,,,,,,,,,,,,2018_Jul_01_1238,59.9709433209,sequenceLearningTask,001,164,
min1.png,min2.png,min3.png,min4.png,allBlank.png,,,,,,,,,,,,0,1,1,1,,,,,,,,,,,,,,,,,"(0.25, -0.04)",images/min3.png,2,0.0522457221559,1.27101363241,[-0.2703125  -0.23333333],,,,,,,,,,,,,2018_Jul_01_1238,59.9709433209,sequenceLearningTask,001,164,
min1.png,min2.png,min3.png,min4.png,allBlank.png,,,,,,,,,,,,0,1,1,1,,,,,,,,,,,,,,,,,"(0.75, -0.04)",images/min4.png,2,0.0510793636604,0.928548542133,[ 0.3609375  -0.29166667],,,,,,,,,,,,,2018_Jul_01_1238,59.9709433209,sequenceLearningTask,001,164,
min1.png,min2.png,min3.png,min4.png,allBlank.png,,,,,,,,,,,,0,2,2,2,,,,,,,,,,,,,,,,,"(-0.75, -0.04)",images/min1.png,3,0.0506387484565,0.839337501811,[ 0.7734375  -0.10277778],,,,,,,,,,,,,2018_Jul_01_1238,59.9709433209,sequenceLearningTask,001,164,
min1.png,min2.png,min3.png,min4.png,allBlank.png,,,,,,,,,,,,0,2,2,2,,,,,,,,,,,,,,,,,"(0.25, -0.04)",images/min3.png,3,0.0614633593996,1.01788347984,[-0.703125   -0.20833333],,,,,,,,,,,,,2018_Jul_01_1238,59.9709433209,sequenceLearningTask,001,164,
min1.png,min2.png,min3.png,min4.png,allBlank.png,,,,,,,,,,,,0,2,2,2,,,,,,,,,,,,,,,,,"(-0.25, -0.04)",images/min2.png,3,0.0583532068285,0.835139349687,[ 0.3328125  -0.14444444],,,,,,,,,,,,,2018_Jul_01_1238,59.9709433209,sequenceLearningTask,001,164,
min1.png,min2.png,min3.png,min4.png,allBlank.png,,,,,,,,,,,,0,2,2,2,,,,,,,,,,,,,,,,,"(0.75, -0.04)",images/min4.png,3,0.0594297192074,0.742901438811,[-0.2265625  -0.11944444],,,,,,,,,,,,,2018_Jul_01_1238,59.9709433209,sequenceLearningTask,001,164,
min1.png,min2.png,min3.png,min4.png,allBlank.png,,,,,,,,,,,,0,2,2,2,,,,,,,,,,,,,,,,,"(0.75, -0.04)",images/min4.png,3,0.0492713644016,0.487588312784,[ 0.6953125   0.02222222],,,,,,,,,,,,,2018_Jul_01_1238,59.9709433209,sequenceLearningTask,001,164,
min1.png,min2.png,min3.png,min4.png,allBlank.png,,,,,,,,,,,,0,2,2,2,,,,,,,,,,,,,,,,,"(-0.25, -0.04)",images/min2.png,3,0.0553271567896,0.648415323727,[ 0.71875     0.20277778],,,,,,,,,,,,,2018_Jul_01_1238,59.9709433209,sequenceLearningTask,001,164,
min1.png,min2.png,min3.png,min4.png,allBlank.png,,,,,,,,,,,,0,2,2,2,,,,,,,,,,,,,,,,,"(0.25, -0.04)",images/min3.png,3,0.0577008994042,0.467048834031,[-0.1671875 -0.15     ],,,,,,,,,,,,,2018_Jul_01_1238,59.9709433209,sequenceLearningTask,001,164,
min1.png,min2.png,min3.png,min4.png,allBlank.png,,,,,,,,,,,,0,2,2,2,,,,,,,,,,,,,,,,,"(0.75, -0.04)",images/min4.png,3,0.0626375127649,0.506902766399,[ 0.3015625  -0.16388889],,,,,,,,,,,,,2018_Jul_01_1238,59.9709433209,sequenceLearningTask,001,164,
min1.png,min2.png,min3.png,min4.png,allBlank.png,,,,,,,,,,,,0,3,3,3,,,,,,,,,,,,,,,,,"(-0.75, -0.04)",images/min1.png,4,0.0582170017569,0.670343109603,[ 0.7640625   0.07222222],,,,,,,,,,,,,2018_Jul_01_1238,59.9709433209,sequenceLearningTask,001,164,
min1.png,min2.png,min3.png,min4.png,allBlank.png,,,,,,,,,,,,0,3,3,3,,,,,,,,,,,,,,,,,"(0.25, -0.04)",images/min3.png,4,0.061533513217,0.473616626208,[-0.796875   -0.21111111],,,,,,,,,,,,,2018_Jul_01_1238,59.9709433209,sequenceLearningTask,001,164,
min1.png,min2.png,min3.png,min4.png,allBlank.png,,,,,,,,,,,,0,3,3,3,,,,,,,,,,,,,,,,,"(-0.25, -0.04)",images/min2.png,4,0.0634391534604,0.597783139372,[ 0.1265625  -0.06944444],,,,,,,,,,,,,2018_Jul_01_1238,59.9709433209,sequenceLearningTask,001,164,
min1.png,min2.png,min3.png,min4.png,allBlank.png,,,,,,,,,,,,0,3,3,3,,,,,,,,,,,,,,,,,"(0.75, -0.04)",images/min4.png,4,0.0562863358828,0.504166357265,[-0.2203125  -0.02222222],,,,,,,,,,,,,2018_Jul_01_1238,59.9709433209,sequenceLearningTask,001,164,
min1.png,min2.png,min3.png,min4.png,allBlank.png,,,,,,,,,,,,0,3,3,3,,,,,,,,,,,,,,,,,"(0.75, -0.04)",images/min4.png,4,0.0614157696764,0.613244056105,[ 0.7328125  -0.10277778],,,,,,,,,,,,,2018_Jul_01_1238,59.9709433209,sequenceLearningTask,001,164,
min1.png,min2.png,min3.png,min4.png,allBlank.png,,,,,,,,,,,,0,3,3,3,,,,,,,,,,,,,,,,,"(-0.25, -0.04)",images/min2.png,4,0.0537411061578,0.65452732122,[ 0.6890625 -0.275    ],,,,,,,,,,,,,2018_Jul_01_1238,59.9709433209,sequenceLearningTask,001,164,
min1.png,min2.png,min3.png,min4.png,allBlank.png,,,,,,,,,,,,0,3,3,3,,,,,,,,,,,,,,,,,"(0.25, -0.04)",images/min3.png,4,0.0621673591104,0.698814072281,[-0.1828125  -0.31111111],,,,,,,,,,,,,2018_Jul_01_1238,59.9709433209,sequenceLearningTask,001,164,
min1.png,min2.png,min3.png,min4.png,allBlank.png,,,,,,,,,,,,0,3,3,3,,,,,,,,,,,,,,,,,"(0.75, -0.04)",images/min4.png,4,0.0581271556402,1.55411546498,[ 0.3265625  -0.21666667],0.802007465843,1,,,,,,,,,,,2018_Jul_01_1238,59.9709433209,sequenceLearningTask,001,164,
min1.png,min2.png,min3.png,min4.png,allBlank.png,,,,,,,,,,,,0,4,4,4,,,,,,,,,,,,,,,,,"(-0.75, -0.04)",images/min1.png,5,0.0677427414394,0.909032652706,[ 0.6984375  -0.26666667],,,,,,,,,,,,,2018_Jul_01_1238,59.9709433209,sequenceLearningTask,001,164,
min1.png,min2.png,min3.png,min4.png,allBlank.png,,,,,,,,,,,,0,4,4,4,,,,,,,,,,,,,,,,,"(0.25, -0.04)",images/min3.png,5,0.0551212081555,0.720860011956,[-0.7359375  -0.08333333],,,,,,,,,,,,,2018_Jul_01_1238,59.9709433209,sequenceLearningTask,001,164,
min1.png,min2.png,min3.png,min4.png,allBlank.png,,,,,,,,,,,,0,4,4,4,,,,,,,,,,,,,,,,,"(-0.25, -0.04)",images/min2.png,5,0.0507556714838,0.910973574986,[ 0.2546875   0.01388889],,,,,,,,,,,,,2018_Jul_01_1238,59.9709433209,sequenceLearningTask,001,164,
min1.png,min2.png,min3.png,min4.png,allBlank.png,,,,,,,,,,,,0,4,4,4,,,,,,,,,,,,,,,,,"(0.75, -0.04)",images/min4.png,5,0.0547179262703,0.808267976096,[-0.2578125  -0.23611111],,,,,,,,,,,,,2018_Jul_01_1238,59.9709433209,sequenceLearningTask,001,164,
min1.png,min2.png,min3.png,min4.png,allBlank.png,,,,,,,,,,,,0,4,4,4,,,,,,,,,,,,,,,,,"(0.75, -0.04)",images/min4.png,5,0.0602961803907,0.830505505433,[ 0.6328125  -0.20555556],,,,,,,,,,,,,2018_Jul_01_1238,59.9709433209,sequenceLearningTask,001,164,
min1.png,min2.png,min3.png,min4.png,allBlank.png,,,,,,,,,,,,0,4,4,4,,,,,,,,,,,,,,,,,"(-0.25, -0.04)",images/min2.png,5,0.0605058213314,2.55965146271,[ 0.8015625 -0.25     ],,,,,,,,,,,,,2018_Jul_01_1238,59.9709433209,sequenceLearningTask,001,164,
min1.png,min2.png,min3.png,min4.png,allBlank.png,,,,,,,,,,,,0,4,4,4,,,,,,,,,,,,,,,,,"(0.25, -0.04)",images/min3.png,5,0.0645849991433,0.7112308877,[-0.3140625  -0.18055556],,,,,,,,,,,,,2018_Jul_01_1238,59.9709433209,sequenceLearningTask,001,164,
min1.png,min2.png,min3.png,min4.png,allBlank.png,,,,,,,,,,,,0,4,4,4,,,,,,,,,,,,,,,,,"(0.75, -0.04)",images/min4.png,5,0.0571839765398,1.08897268145,[ 0.2296875  -0.37777778],,,,,,,,,,,,,2018_Jul_01_1238,59.9709433209,sequenceLearningTask,001,164,
min1.png,min2.png,min3.png,min4.png,allBlank.png,,,,,,,,,,,,0,5,5,5,,,,,,,,,,,,,,,,,"(-0.75, -0.04)",images/min1.png,6,0.0543712597446,0.817775664504,[ 0.8328125  -0.29444444],,,,,,,,,,,,,2018_Jul_01_1238,59.9709433209,sequenceLearningTask,001,164,
min1.png,min2.png,min3.png,min4.png,allBlank.png,,,,,,,,,,,,0,5,5,5,,,,,,,,,,,,,,,,,"(0.25, -0.04)",images/min3.png,6,0.0507355689278,0.586536374754,[-0.70625    -0.14444444],,,,,,,,,,,,,2018_Jul_01_1238,59.9709433209,sequenceLearningTask,001,164,
min1.png,min2.png,min3.png,min4.png,allBlank.png,,,,,,,,,,,,0,5,5,5,,,,,,,,,,,,,,,,,"(-0.25, -0.04)",images/min2.png,6,0.0644947427718,1.61094908269,[ 0.3578125 -0.225    ],,,,,,,,,,,,,2018_Jul_01_1238,59.9709433209,sequenceLearningTask,001,164,
min1.png,min2.png,min3.png,min4.png,allBlank.png,,,,,,,,,,,,0,5,5,5,,,,,,,,,,,,,,,,,"(0.75, -0.04)",images/min4.png,6,0.056136592355,0.857379750818,[-0.1953125  -0.28611111],,,,,,,,,,,,,2018_Jul_01_1238,59.9709433209,sequenceLearningTask,001,164,
min1.png,min2.png,min3.png,min4.png,allBlank.png,,,,,,,,,,,,0,5,5,5,,,,,,,,,,,,,,,,,"(0.75, -0.04)",images/min4.png,6,0.054335157196,0.788432907309,[ 0.709375   -0.13055556],,,,,,,,,,,,,2018_Jul_01_1238,59.9709433209,sequenceLearningTask,001,164,
min1.png,min2.png,min3.png,min4.png,allBlank.png,,,,,,,,,,,,0,5,5,5,,,,,,,,,,,,,,,,,"(-0.25, -0.04)",images/min2.png,6,0.0546863365398,2.09446232022,[ 0.7953125 -0.175    ],,,,,,,,,,,,,2018_Jul_01_1238,59.9709433209,sequenceLearningTask,001,164,
min1.png,min2.png,min3.png,min4.png,allBlank.png,,,,,,,,,,,,0,5,5,5,,,,,,,,,,,,,,,,,"(0.25, -0.04)",images/min3.png,6,0.0607408981577,0.914603932471,[-0.2578125  -0.11944444],0.282894653172,1,,,,,,,,,,,2018_Jul_01_1238,59.9709433209,sequenceLearningTask,001,164,
min1.png,min2.png,min3.png,min4.png,allBlank.png,,,,,,,,,,,,0,5,5,5,,,,,,,,,,,,,,,,,"(0.75, -0.04)",images/min4.png,6,0.0569086946016,0.366671029058,[ 0.3734375  -0.05555556],,,,,,,,,,,,,2018_Jul_01_1238,59.9709433209,sequenceLearningTask,001,164,
min1.png,min2.png,min3.png,min4.png,allBlank.png,,,,,,,,,,,,0,6,6,6,,,,,,,,,,,,,,,,,"(-0.75, -0.04)",images/min1.png,7,0.0563130025384,0.751680922387,[ 0.7421875  -0.03055556],0.352662829677,1,,,,,,,,,,,2018_Jul_01_1238,59.9709433209,sequenceLearningTask,001,164,
min1.png,min2.png,min3.png,min4.png,allBlank.png,,,,,,,,,,,,0,6,6,6,,,,,,,,,,,,,,,,,"(0.25, -0.04)",images/min3.png,7,0.0674551518132,0.825177097364,[ 0.4671875  -0.07222222],0.5247144514,1,,,,,,,,,,,2018_Jul_01_1238,59.9709433209,sequenceLearningTask,001,164,
min1.png,min2.png,min3.png,min4.png,allBlank.png,,,,,,,,,,,,0,6,6,6,,,,,,,,,,,,,,,,,"(-0.25, -0.04)",images/min2.png,7,0.0267601941505,0.362696466587,[ 0.4578125  -0.20555556],0.0639897173387,1,,,,,,,,,,,2018_Jul_01_1238,59.9709433209,sequenceLearningTask,001,164,
min1.png,min2.png,min3.png,min4.png,allBlank.png,,,,,,,,,,,,0,6,6,6,,,,,,,,,,,,,,,,,"(0.75, -0.04)",images/min4.png,7,0.0587946425458,0.784082139864,[-0.0765625  -0.09722222],0.517123069898,1,,,,,,,,,,,2018_Jul_01_1238,59.9709433209,sequenceLearningTask,001,164,
min1.png,min2.png,min3.png,min4.png,allBlank.png,,,,,,,,,,,,0,6,6,6,,,,,,,,,,,,,,,,,"(0.75, -0.04)",images/min4.png,7,0.0299876800054,1.19842125193,[ 0.8265625  -0.08333333],0.948970687603,1,,,,,,,,,,,2018_Jul_01_1238,59.9709433209,sequenceLearningTask,001,164,
min1.png,min2.png,min3.png,min4.png,allBlank.png,,,,,,,,,,,,0,6,6,6,,,,,,,,,,,,,,,,,"(-0.25, -0.04)",images/min2.png,7,0.0658777165627,0.828334019145,[ 0.75625     0.08611111],0.573077098225,1,,,,,,,,,,,2018_Jul_01_1238,59.9709433209,sequenceLearningTask,001,164,
min1.png,min2.png,min3.png,min4.png,allBlank.png,,,,,,,,,,,,0,6,6,6,,,,,,,,,,,,,,,,,"(0.25, -0.04)",images/min3.png,7,0.0552996696206,0.521363068157,[-0.41875    -0.14444444],0.104086111143,1,,,,,,,,,,,2018_Jul_01_1238,59.9709433209,sequenceLearningTask,001,164,
min1.png,min2.png,min3.png,min4.png,allBlank.png,,,,,,,,,,,,0,6,6,6,,,,,,,,,,,,,,,,,"(0.75, -0.04)",images/min4.png,7,0.0547495160008,0.38689173871,[ 0.3015625  -0.14444444],0.150532040807,1,,,,,,,,,,,2018_Jul_01_1238,59.9709433209,sequenceLearningTask,001,164,
min1.png,min2.png,min3.png,min4.png,allBlank.png,,,,,,,,,,,,0,7,7,7,,,,,,,,,,,,,,,,,"(-0.75, -0.04)",images/min1.png,8,0.0574309507974,0.915807214027,[ 0.821875 -0.075   ],0.698697969765,1,,,,,,,,,,,2018_Jul_01_1238,59.9709433209,sequenceLearningTask,001,164,
min1.png,min2.png,min3.png,min4.png,allBlank.png,,,,,,,,,,,,0,7,7,7,,,,,,,,,,,,,,,,,"(0.25, -0.04)",images/min3.png,8,0.063664384139,0.280266961941,[-0.44375    -0.16111111],0.0367733182466,1,,,,,,,,,,,2018_Jul_01_1238,59.9709433209,sequenceLearningTask,001,164,
min1.png,min2.png,min3.png,min4.png,allBlank.png,,,,,,,,,,,,0,7,7,7,,,,,,,,,,,,,,,,,"(-0.25, -0.04)",images/min2.png,8,0.0574481815602,0.617023336607,[ 0.3375     -0.19722222],0.0808631463133,1,,,,,,,,,,,2018_Jul_01_1238,59.9709433209,sequenceLearningTask,001,164,
min1.png,min2.png,min3.png,min4.png,allBlank.png,,,,,,,,,,,,0,7,7,7,,,,,,,,,,,,,,,,,"(0.75, -0.04)",images/min4.png,8,0.0623006923906,0.607232981649,[-0.3234375  -0.19444444],0.0777558655373,1,,,,,,,,,,,2018_Jul_01_1238,59.9709433209,sequenceLearningTask,001,164,
min1.png,min2.png,min3.png,min4.png,allBlank.png,,,,,,,,,,,,0,7,7,7,,,,,,,,,,,,,,,,,"(0.75, -0.04)",images/min4.png,8,0.0676758696718,0.658203627405,[ 0.665625   -0.08333333],,,,,,,,,,,,,2018_Jul_01_1238,59.9709433209,sequenceLearningTask,001,164,
min1.png,min2.png,min3.png,min4.png,allBlank.png,,,,,,,,,,,,0,7,7,7,,,,,,,,,,,,,,,,,"(-0.25, -0.04)",images/min2.png,8,0.0506420305064,0.596312370744,[ 0.68125    -0.03055556],,,,,,,,,,,,,2018_Jul_01_1238,59.9709433209,sequenceLearningTask,001,164,
min1.png,min2.png,min3.png,min4.png,allBlank.png,,,,,,,,,,,,0,7,7,7,,,,,,,,,,,,,,,,,"(0.25, -0.04)",images/min3.png,8,0.0576332071232,0.603942316331,[-0.2265625  -0.08611111],,,,,,,,,,,,,2018_Jul_01_1238,59.9709433209,sequenceLearningTask,001,164,
min1.png,min2.png,min3.png,min4.png,allBlank.png,,,,,,,,,,,,0,7,7,7,,,,,,,,,,,,,,,,,"(0.75, -0.04)",images/min4.png,8,0.0559527975583,0.504660716037,[ 0.2921875  -0.11388889],,,,,,,,,,,,,2018_Jul_01_1238,59.9709433209,sequenceLearningTask,001,164,
min1.png,min2.png,min3.png,min4.png,allBlank.png,,,,,,,,,,,,0,8,8,8,,,,,,,,,,,,,,,,,"(-0.75, -0.04)",images/min1.png,9,0.0532204909869,0.668408341166,[ 0.725      -0.11944444],,,,,,,,,,,,,2018_Jul_01_1238,59.9709433209,sequenceLearningTask,001,164,
min1.png,min2.png,min3.png,min4.png,allBlank.png,,,,,,,,,,,,0,8,8,8,,,,,,,,,,,,,,,,,"(0.25, -0.04)",images/min3.png,9,0.0650276656306,0.544162238291,[-0.653125   -0.11388889],,,,,,,,,,,,,2018_Jul_01_1238,59.9709433209,sequenceLearningTask,001,164,
min1.png,min2.png,min3.png,min4.png,allBlank.png,,,,,,,,,,,,0,8,8,8,,,,,,,,,,,,,,,,,"(-0.25, -0.04)",images/min2.png,9,0.0571589509091,0.677794593725,[ 0.2625     -0.08611111],,,,,,,,,,,,,2018_Jul_01_1238,59.9709433209,sequenceLearningTask,001,164,
min1.png,min2.png,min3.png,min4.png,allBlank.png,,,,,,,,,,,,0,8,8,8,,,,,,,,,,,,,,,,,"(0.75, -0.04)",images/min4.png,9,0.0549382338722,0.537345830833,[-0.1453125  -0.04722222],,,,,,,,,,,,,2018_Jul_01_1238,59.9709433209,sequenceLearningTask,001,164,
min1.png,min2.png,min3.png,min4.png,allBlank.png,,,,,,,,,,,,0,8,8,8,,,,,,,,,,,,,,,,,"(0.75, -0.04)",images/min4.png,9,0.0517205941651,0.74424748954,[ 0.765625 -0.175   ],,,,,,,,,,,,,2018_Jul_01_1238,59.9709433209,sequenceLearningTask,001,164,
min1.png,min2.png,min3.png,min4.png,allBlank.png,,,,,,,,,,,,0,8,8,8,,,,,,,,,,,,,,,,,"(-0.25, -0.04)",images/min2.png,9,0.0585985400612,0.685874180153,[ 0.8015625  -0.10833333],,,,,,,,,,,,,2018_Jul_01_1238,59.9709433209,sequenceLearningTask,001,164,
min1.png,min2.png,min3.png,min4.png,allBlank.png,,,,,,,,,,,,0,8,8,8,,,,,,,,,,,,,,,,,"(0.25, -0.04)",images/min3.png,9,0.0563318743261,0.735960723709,[-0.175      -0.05555556],,,,,,,,,,,,,2018_Jul_01_1238,59.9709433209,sequenceLearningTask,001,164,
min1.png,min2.png,min3.png,min4.png,allBlank.png,,,,,,,,,,,,0,8,8,8,,,,,,,,,,,,,,,,,"(0.75, -0.04)",images/min4.png,9,0.0539720804209,0.588988476313,[ 0.2734375  -0.15277778],,,,,,,,,,,,,2018_Jul_01_1238,59.9709433209,sequenceLearningTask,001,164,
min1.png,min2.png,min3.png,min4.png,allBlank.png,,,,,,,,,,,,0,9,9,9,,,,,,,,,,,,,,,,,"(-0.75, -0.04)",images/min1.png,10,0.0539207983911,0.687806076798,[ 0.771875  0.025   ],,,,,,,,,,,,,2018_Jul_01_1238,59.9709433209,sequenceLearningTask,001,164,
min1.png,min2.png,min3.png,min4.png,allBlank.png,,,,,,,,,,,,0,9,9,9,,,,,,,,,,,,,,,,,"(0.25, -0.04)",images/min3.png,10,0.059536385832,0.919501981742,[-0.6421875  -0.14722222],,,,,,,,,,,,,2018_Jul_01_1238,59.9709433209,sequenceLearningTask,001,164,
min1.png,min2.png,min3.png,min4.png,allBlank.png,,,,,,,,,,,,0,9,9,9,,,,,,,,,,,,,,,,,"(-0.25, -0.04)",images/min2.png,10,0.0513878763541,0.672757877843,[ 0.2171875  -0.05833333],,,,,,,,,,,,,2018_Jul_01_1238,59.9709433209,sequenceLearningTask,001,164,
min1.png,min2.png,min3.png,min4.png,allBlank.png,,,,,,,,,,,,0,9,9,9,,,,,,,,,,,,,,,,,"(0.75, -0.04)",images/min4.png,10,0.051412901983,0.793829828173,[-0.2578125  -0.16944444],,,,,,,,,,,,,2018_Jul_01_1238,59.9709433209,sequenceLearningTask,001,164,
min1.png,min2.png,min3.png,min4.png,allBlank.png,,,,,,,,,,,,0,9,9,9,,,,,,,,,,,,,,,,,"(0.75, -0.04)",images/min4.png,10,0.0578046942337,0.635649790504,[ 0.6515625  -0.34722222],,,,,,,,,,,,,2018_Jul_01_1238,59.9709433209,sequenceLearningTask,001,164,
min1.png,min2.png,min3.png,min4.png,allBlank.png,,,,,,,,,,,,0,9,9,9,,,,,,,,,,,,,,,,,"(-0.25, -0.04)",images/min2.png,10,0.0502494152825,0.640175327107,[ 0.7171875  -0.21666667],,,,,,,,,,,,,2018_Jul_01_1238,59.9709433209,sequenceLearningTask,001,164,
min1.png,min2.png,min3.png,min4.png,allBlank.png,,,,,,,,,,,,0,9,9,9,,,,,,,,,,,,,,,,,"(0.25, -0.04)",images/min3.png,10,0.055161823524,0.925598799755,[-0.1125 -0.25  ],,,,,,,,,,,,,2018_Jul_01_1238,59.9709433209,sequenceLearningTask,001,164,
min1.png,min2.png,min3.png,min4.png,allBlank.png,,,,,,,,,,,,0,9,9,9,,,,,,,,,,,,,,,,,"(0.75, -0.04)",images/min4.png,10,0.0567556690239,1.40076660481,[ 0.24375    -0.17222222],,,,,,,,,,,,,2018_Jul_01_1238,59.9709433209,sequenceLearningTask,001,164,
min1.png,min2.png,min3.png,min4.png,images/allBlank.png,"['num_7', 'num_4', 'num_1', 'num_0']",['num_0'],num_0,[4],'num_0',images/min4.png,"[(0.45, 0.79)]",,,,,0,-1,-1,0,0,0,0,3,,,,,,,,,,,,,"(0.75, 0.04)",images/min4.png,1,0.0272377324163,0.691056947258,[ 0.65625    -0.24722222],,,,,,,,,['num_0'],,,,2018_Jul_01_1238,59.9709433209,sequenceLearningTask,001,164,
min1.png,min2.png,min3.png,min4.png,images/allBlank.png,"['num_7', 'num_4', 'num_1', 'num_0']",['num_0'],num_0,[4],'num_0',images/min4.png,"[(0.45, 0.79)]",,,,,0,-1,-1,0,0,0,0,3,,,,,,,,,,,,,"(-0.75, 0.04)",images/min1.png,1,0.0584504375583,0.778735270262,[ 0.7265625   0.00833333],,,,,,,,,['num_0'],,,,2018_Jul_01_1238,59.9709433209,sequenceLearningTask,001,164,
min1.png,min2.png,min3.png,min4.png,images/allBlank.png,"['num_7', 'num_4', 'num_1', 'num_0']",['num_0'],num_0,[4],'num_0',images/min4.png,"[(0.45, 0.79)]",,,,,0,-1,-1,0,0,0,0,3,,,,,,,,,,,,,"(-0.75, 0.04)",images/min1.png,1,0.0225308625522,0.653769577941,[-0.7390625   0.06388889],,,,,,,,,['num_0'],,,,2018_Jul_01_1238,59.9709433209,sequenceLearningTask,001,164,
min1.png,min2.png,min3.png,min4.png,images/allBlank.png,"['num_7', 'num_4', 'num_1', 'num_0']",['num_0'],num_0,[4],'num_0',images/min4.png,"[(0.45, 0.79)]",,,,,0,-1,-1,0,0,0,0,3,,,,,,,,,,,,,"(-0.75, 0.04)",images/min1.png,1,0.0645271530138,0.789230035187,[-0.728125   -0.00277778],,,,,,,,,['num_0'],,,,2018_Jul_01_1238,59.9709433209,sequenceLearningTask,001,164,
min1.png,min2.png,min3.png,min4.png,images/allBlank.png,"['num_7', 'num_4', 'num_1', 'num_0']",['num_1'],num_1,[3],'num_1',images/min3.png,"[(0.45, 0.79)]",,,,,0,-1,-1,0,0,1,1,2,,,,,,,,,,,,,"(0.75, 0.04)",images/min4.png,2,0.0673977159386,0.717413859524,[-0.725      -0.05833333],,,,,,,,,['num_1'],,,,2018_Jul_01_1238,59.9709433209,sequenceLearningTask,001,164,
min1.png,min2.png,min3.png,min4.png,images/allBlank.png,"['num_7', 'num_4', 'num_1', 'num_0']",['num_1'],num_1,[3],'num_1',images/min3.png,"[(0.45, 0.79)]",,,,,0,-1,-1,0,0,1,1,2,,,,,,,,,,,,,"(-0.25, 0.04)",images/min2.png,2,0.0659971011301,0.602187240129,[ 0.8015625  -0.24722222],,,,,,,,,['num_1'],,,,2018_Jul_01_1238,59.9709433209,sequenceLearningTask,001,164,
min1.png,min2.png,min3.png,min4.png,images/allBlank.png,"['num_7', 'num_4', 'num_1', 'num_0']",['num_1'],num_1,[3],'num_1',images/min3.png,"[(0.45, 0.79)]",,,,,0,-1,-1,0,0,1,1,2,,,,,,,,,,,,,"(-0.25, 0.04)",images/min2.png,2,0.0635462303399,0.656704140838,[-0.278125   -0.11944444],,,,,,,,,['num_1'],,,,2018_Jul_01_1238,59.9709433209,sequenceLearningTask,001,164,
min1.png,min2.png,min3.png,min4.png,images/allBlank.png,"['num_7', 'num_4', 'num_1', 'num_0']",['num_1'],num_1,[3],'num_1',images/min3.png,"[(0.45, 0.79)]",,,,,0,-1,-1,0,0,1,1,2,,,,,,,,,,,,,"(-0.75, 0.04)",images/min1.png,2,0.0569743355991,0.790076804071,[-0.2484375  -0.08611111],,,,,,,,,['num_1'],,,,2018_Jul_01_1238,59.9709433209,sequenceLearningTask,001,164,
min1.png,min2.png,min3.png,min4.png,images/allBlank.png,"['num_7', 'num_4', 'num_1', 'num_0']",['num_4'],num_4,[2],'num_4',images/min2.png,"[(0.45, 0.79)]",,,,,0,-1,-1,0,0,2,2,1,,,,,,,,,,,,,"(0.25, 0.04)",images/min3.png,3,0.0598338216059,0.678272131991,[-0.5984375  -0.14444444],,,,,,,,,['num_4'],,,,2018_Jul_01_1238,59.9709433209,sequenceLearningTask,001,164,
min1.png,min2.png,min3.png,min4.png,images/allBlank.png,"['num_7', 'num_4', 'num_1', 'num_0']",['num_4'],num_4,[2],'num_4',images/min2.png,"[(0.45, 0.79)]",,,,,0,-1,-1,0,0,2,2,1,,,,,,,,,,,,,"(-0.25, 0.04)",images/min2.png,3,0.0668676648747,1.69497653539,[ 0.2640625   0.01388889],,,,,,,,,['num_4'],,,,2018_Jul_01_1238,59.9709433209,sequenceLearningTask,001,164,
min1.png,min2.png,min3.png,min4.png,images/allBlank.png,"['num_7', 'num_4', 'num_1', 'num_0']",['num_4'],num_4,[2],'num_4',images/min2.png,"[(0.45, 0.79)]",,,,,0,-1,-1,0,0,2,2,1,,,,,,,,,,,,,"(-0.25, 0.04)",images/min2.png,3,0.0583741298979,0.832411555934,[-0.2453125  -0.21111111],,,,,,,,,['num_4'],,,,2018_Jul_01_1238,59.9709433209,sequenceLearningTask,001,164,
min1.png,min2.png,min3.png,min4.png,images/allBlank.png,"['num_7', 'num_4', 'num_1', 'num_0']",['num_4'],num_4,[2],'num_4',images/min2.png,"[(0.45, 0.79)]",,,,,0,-1,-1,0,0,2,2,1,,,,,,,,,,,,,"(0.25, 0.04)",images/min3.png,3,0.0537661317885,0.684947821559,[-0.246875   -0.06944444],,,,,,,,,['num_4'],,,,2018_Jul_01_1238,59.9709433209,sequenceLearningTask,001,164,
min1.png,min2.png,min3.png,min4.png,images/allBlank.png,"['num_7', 'num_4', 'num_1', 'num_0']",['num_7'],num_7,[1],'num_7',images/min1.png,"[(0.45, 0.79)]",,,,,0,-1,-1,0,0,3,3,0,,,,,,,,,,,,,"(0.75, 0.04)",images/min4.png,4,0.0550600799743,0.516313634333,[ 0.4015625  -0.07777778],,,,,,,,,['num_7'],,,,2018_Jul_01_1238,59.9709433209,sequenceLearningTask,001,164,
min1.png,min2.png,min3.png,min4.png,images/allBlank.png,"['num_7', 'num_4', 'num_1', 'num_0']",['num_7'],num_7,[1],'num_7',images/min1.png,"[(0.45, 0.79)]",,,,,0,-1,-1,0,0,3,3,0,,,,,,,,,,,,,"(-0.75, 0.04)",images/min1.png,4,0.0568561818018,0.914650291425,[ 0.8875     -0.21944444],,,,,,,,,['num_7'],,,,2018_Jul_01_1238,59.9709433209,sequenceLearningTask,001,164,
min1.png,min2.png,min3.png,min4.png,images/allBlank.png,"['num_7', 'num_4', 'num_1', 'num_0']",['num_7'],num_7,[1],'num_7',images/min1.png,"[(0.45, 0.79)]",,,,,0,-1,-1,0,0,3,3,0,,,,,,,,,,,,,"(-0.25, 0.04)",images/min2.png,4,0.0703630480566,0.748826769712,[-0.6921875  -0.20833333],,,,,,,,,['num_7'],,,,2018_Jul_01_1238,59.9709433209,sequenceLearningTask,001,164,
min1.png,min2.png,min3.png,min4.png,images/allBlank.png,"['num_7', 'num_4', 'num_1', 'num_0']",['num_7'],num_7,[1],'num_7',images/min1.png,"[(0.45, 0.79)]",,,,,0,-1,-1,0,0,3,3,0,,,,,,,,,,,,,"(0.75, 0.04)",images/min4.png,4,0.0618576156485,0.790631470511,[-0.253125 -0.125   ],,,,,,,,,['num_7'],,,,2018_Jul_01_1238,59.9709433209,sequenceLearningTask,001,164,
min1.png,min2.png,min3.png,min4.png,images/allBlank.png,"['num_7', 'num_4', 'num_1', 'num_0']",['num_7'],num_7,[1],'num_7',images/min1.png,"[(0.45, 0.79)]",,,,,0,-1,-1,0,1,0,4,0,,,,,,,,,,,,,"(0.25, 0.04)",images/min3.png,5,0.0248200923816,0.647572657404,[ 0.7828125  -0.20277778],,,,,,,,,['num_7'],,,,2018_Jul_01_1238,59.9709433209,sequenceLearningTask,001,164,
min1.png,min2.png,min3.png,min4.png,images/allBlank.png,"['num_7', 'num_4', 'num_1', 'num_0']",['num_7'],num_7,[1],'num_7',images/min1.png,"[(0.45, 0.79)]",,,,,0,-1,-1,0,1,0,4,0,,,,,,,,,,,,,"(-0.25, 0.04)",images/min2.png,5,0.0898965785036,0.74824297508,[ 0.2484375  -0.20833333],,,,,,,,,['num_7'],,,,2018_Jul_01_1238,59.9709433209,sequenceLearningTask,001,164,
min1.png,min2.png,min3.png,min4.png,images/allBlank.png,"['num_7', 'num_4', 'num_1', 'num_0']",['num_7'],num_7,[1],'num_7',images/min1.png,"[(0.45, 0.79)]",,,,,0,-1,-1,0,1,0,4,0,,,,,,,,,,,,,"(0.25, 0.04)",images/min3.png,5,0.0688130999733,0.735255903484,[-0.246875   -0.11666667],,,,,,,,,['num_7'],,,,2018_Jul_01_1238,59.9709433209,sequenceLearningTask,001,164,
min1.png,min2.png,min3.png,min4.png,images/allBlank.png,"['num_7', 'num_4', 'num_1', 'num_0']",['num_7'],num_7,[1],'num_7',images/min1.png,"[(0.45, 0.79)]",,,,,0,-1,-1,0,1,0,4,0,,,,,,,,,,,,,"(-0.75, 0.04)",images/min1.png,5,0.0608286929946,0.850629804871,[ 0.1828125  -0.14444444],,,,,,,,,['num_7'],,,,2018_Jul_01_1238,59.9709433209,sequenceLearningTask,001,164,
min1.png,min2.png,min3.png,min4.png,images/allBlank.png,"['num_7', 'num_4', 'num_1', 'num_0']",['num_1'],num_1,[3],'num_1',images/min3.png,"[(0.45, 0.79)]",,,,,0,-1,-1,0,1,1,5,2,,,,,,,,,,,,,"(-0.25, 0.04)",images/min2.png,6,0.0545542340296,0.631822510022,[-0.7078125  -0.16111111],,,,,,,,,['num_1'],,,,2018_Jul_01_1238,59.9709433209,sequenceLearningTask,001,164,
min1.png,min2.png,min3.png,min4.png,images/allBlank.png,"['num_7', 'num_4', 'num_1', 'num_0']",['num_1'],num_1,[3],'num_1',images/min3.png,"[(0.45, 0.79)]",,,,,0,-1,-1,0,1,1,5,2,,,,,,,,,,,,,"(-0.25, 0.04)",images/min2.png,6,0.0596844883348,1.56678828029,[-0.2640625  -0.23611111],0.832870632668,1,,,,,,,['num_1'],,,,2018_Jul_01_1238,59.9709433209,sequenceLearningTask,001,164,
min1.png,min2.png,min3.png,min4.png,images/allBlank.png,"['num_7', 'num_4', 'num_1', 'num_0']",['num_1'],num_1,[3],'num_1',images/min3.png,"[(0.45, 0.79)]",,,,,0,-1,-1,0,1,1,5,2,,,,,,,,,,,,,"(0.75, 0.04)",images/min4.png,6,0.0571532073209,0.785245626566,[-0.1953125  -0.28888889],,,,,,,,,['num_1'],,,,2018_Jul_01_1238,59.9709433209,sequenceLearningTask,001,164,
min1.png,min2.png,min3.png,min4.png,images/allBlank.png,"['num_7', 'num_4', 'num_1', 'num_0']",['num_1'],num_1,[3],'num_1',images/min3.png,"[(0.45, 0.79)]",,,,,0,-1,-1,0,1,1,5,2,,,,,,,,,,,,,"(0.25, 0.04)",images/min3.png,6,0.0664167932646,0.52575363046,[ 0.7265625  -0.13055556],,,,,,,,,['num_1'],,,,2018_Jul_01_1238,59.9709433209,sequenceLearningTask,001,164,
min1.png,min2.png,min3.png,min4.png,images/allBlank.png,"['num_7', 'num_4', 'num_1', 'num_0']",['num_0'],num_0,[4],'num_0',images/min4.png,"[(0.45, 0.79)]",,,,,0,-1,-1,0,1,2,6,3,,,,,,,,,,,,,"(0.25, 0.04)",images/min3.png,7,0.0634658201179,0.5389737276,[ 0.34375 -0.125  ],,,,,,,,,['num_0'],,,,2018_Jul_01_1238,59.9709433209,sequenceLearningTask,001,164,
min1.png,min2.png,min3.png,min4.png,images/allBlank.png,"['num_7', 'num_4', 'num_1', 'num_0']",['num_0'],num_0,[4],'num_0',images/min4.png,"[(0.45, 0.79)]",,,,,0,-1,-1,0,1,2,6,3,,,,,,,,,,,,,"(-0.75, 0.04)",images/min1.png,7,0.0597406934394,0.727868419335,[ 0.2859375  0.       ],,,,,,,,,['num_0'],,,,2018_Jul_01_1238,59.9709433209,sequenceLearningTask,001,164,
min1.png,min2.png,min3.png,min4.png,images/allBlank.png,"['num_7', 'num_4', 'num_1', 'num_0']",['num_0'],num_0,[4],'num_0',images/min4.png,"[(0.45, 0.79)]",,,,,0,-1,-1,0,1,2,6,3,,,,,,,,,,,,,"(-0.75, 0.04)",images/min1.png,7,0.0582789504497,0.947904431629,[-0.7640625  -0.19444444],0.482643084044,1,,,,,,,['num_0'],,,,2018_Jul_01_1238,59.9709433209,sequenceLearningTask,001,164,
min1.png,min2.png,min3.png,min4.png,images/allBlank.png,"['num_7', 'num_4', 'num_1', 'num_0']",['num_0'],num_0,[4],'num_0',images/min4.png,"[(0.45, 0.79)]",,,,,0,-1,-1,0,1,2,6,3,,,,,,,,,,,,,"(-0.25, 0.04)",images/min2.png,7,0.0565119768144,0.901538912189,[-0.8140625  -0.11388889],0.395054196901,1,,,,,,,['num_0'],,,,2018_Jul_01_1238,59.9709433209,sequenceLearningTask,001,164,
min1.png,min2.png,min3.png,min4.png,images/allBlank.png,"['num_7', 'num_4', 'num_1', 'num_0']",['num_4'],num_4,[2],'num_4',images/min2.png,"[(0.45, 0.79)]",,,,,0,-1,-1,0,1,3,7,1,,,,,,,,,,,,,"(-0.75, 0.04)",images/min1.png,8,0.0516377224048,0.750302051158,[-0.325      -0.10277778],0.750302051158,1,,,,,,,['num_4'],,,,2018_Jul_01_1238,59.9709433209,sequenceLearningTask,001,164,
min1.png,min2.png,min3.png,min4.png,images/allBlank.png,"['num_7', 'num_4', 'num_1', 'num_0']",['num_4'],num_4,[2],'num_4',images/min2.png,"[(0.45, 0.79)]",,,,,0,-1,-1,0,1,3,7,1,,,,,,,,,,,,,"(0.25, 0.04)",images/min3.png,8,0.0581542325526,0.734436211515,[-0.8359375   0.01111111],0.232608725084,1,,,,,,,['num_4'],,,,2018_Jul_01_1238,59.9709433209,sequenceLearningTask,001,164,
min1.png,min2.png,min3.png,min4.png,images/allBlank.png,"['num_7', 'num_4', 'num_1', 'num_0']",['num_4'],num_4,[2],'num_4',images/min2.png,"[(0.45, 0.79)]",,,,,0,-1,-1,0,1,3,7,1,,,,,,,,,,,,,"(0.75, 0.04)",images/min4.png,8,0.0245206053241,0.954696223713,[ 0.3390625  -0.01666667],0.664901470809,1,,,,,,,['num_4'],,,,2018_Jul_01_1238,59.9709433209,sequenceLearningTask,001,164,
min1.png,min2.png,min3.png,min4.png,images/allBlank.png,"['num_7', 'num_4', 'num_1', 'num_0']",['num_4'],num_4,[2],'num_4',images/min2.png,"[(0.45, 0.79)]",,,,,0,-1,-1,0,1,3,7,1,,,,,,,,,,,,,"(-0.75, 0.04)",images/min1.png,8,0.025022758964,1.60823318637,[ 0.7109375  -0.06111111],0.0972446780543,1,,,,,,,['num_4'],,,,2018_Jul_01_1238,59.9709433209,sequenceLearningTask,001,164,
min1.png,min2.png,min3.png,min4.png,images/allBlank.png,"['num_7', 'num_4', 'num_1', 'num_0']",['num_0'],num_0,[4],'num_0',images/min4.png,"[(0.45, 0.79)]",,,,,0,-1,-1,0,2,0,8,3,,,,,,,,,,,,,"(0.25, 0.04)",images/min3.png,9,0.0581423351214,1.11972343806,[-0.5796875  -0.28055556],0.680098182524,1,,,,,,,['num_0'],,,,2018_Jul_01_1238,59.9709433209,sequenceLearningTask,001,164,
min1.png,min2.png,min3.png,min4.png,images/allBlank.png,"['num_7', 'num_4', 'num_1', 'num_0']",['num_0'],num_0,[4],'num_0',images/min4.png,"[(0.45, 0.79)]",,,,,0,-1,-1,0,2,0,8,3,,,,,,,,,,,,,"(0.25, 0.04)",images/min3.png,9,0.0607171032952,0.868316361717,[ 0.253125   -0.25833333],,,,,,,,,['num_0'],,,,2018_Jul_01_1238,59.9709433209,sequenceLearningTask,001,164,
min1.png,min2.png,min3.png,min4.png,images/allBlank.png,"['num_7', 'num_4', 'num_1', 'num_0']",['num_0'],num_0,[4],'num_0',images/min4.png,"[(0.45, 0.79)]",,,,,0,-1,-1,0,2,0,8,3,,,,,,,,,,,,,"(0.75, 0.04)",images/min4.png,9,0.0574243866977,1.01793599264,[ 0.2640625  -0.18055556],,,,,,,,,['num_0'],,,,2018_Jul_01_1238,59.9709433209,sequenceLearningTask,001,164,
min1.png,min2.png,min3.png,min4.png,images/allBlank.png,"['num_7', 'num_4', 'num_1', 'num_0']",['num_0'],num_0,[4],'num_0',images/min4.png,"[(0.45, 0.79)]",,,,,0,-1,-1,0,2,0,8,3,,,,,,,,,,,,,"(-0.75, 0.04)",images/min1.png,9,0.0683294078644,0.987341543654,[ 0.5921875  -0.13611111],0.312650538399,1,,,,,,,['num_0'],,,,2018_Jul_01_1238,59.9709433209,sequenceLearningTask,001,164,
min1.png,min2.png,min3.png,min4.png,images/allBlank.png,"['num_7', 'num_4', 'num_1', 'num_0']",['num_7'],num_7,[1],'num_7',images/min1.png,"[(0.45, 0.79)]",,,,,0,-1,-1,0,2,1,9,0,,,,,,,,,,,,,"(-0.75, 0.04)",images/min1.png,10,0.0634420252536,1.5987907287,[-0.8046875  -0.19166667],0.809128283436,1,,,,,,,['num_7'],,,,2018_Jul_01_1238,59.9709433209,sequenceLearningTask,001,164,
min1.png,min2.png,min3.png,min4.png,images/allBlank.png,"['num_7', 'num_4', 'num_1', 'num_0']",['num_7'],num_7,[1],'num_7',images/min1.png,"[(0.45, 0.79)]",,,,,0,-1,-1,0,2,1,9,0,,,,,,,,,,,,,"(-0.75, 0.04)",images/min1.png,10,0.0639052045517,1.12367133388,[-0.6171875  -0.28611111],,,,,,,,,['num_7'],,,,2018_Jul_01_1238,59.9709433209,sequenceLearningTask,001,164,
min1.png,min2.png,min3.png,min4.png,images/allBlank.png,"['num_7', 'num_4', 'num_1', 'num_0']",['num_7'],num_7,[1],'num_7',images/min1.png,"[(0.45, 0.79)]",,,,,0,-1,-1,0,2,1,9,0,,,,,,,,,,,,,"(-0.75, 0.04)",images/min1.png,10,0.0694887920054,0.622678718901,[-0.58125    -0.26111111],,,,,,,,,['num_7'],,,,2018_Jul_01_1238,59.9709433209,sequenceLearningTask,001,164,
min1.png,min2.png,min3.png,min4.png,images/allBlank.png,"['num_7', 'num_4', 'num_1', 'num_0']",['num_7'],num_7,[1],'num_7',images/min1.png,"[(0.45, 0.79)]",,,,,0,-1,-1,0,2,1,9,0,,,,,,,,,,,,,"(-0.25, 0.04)",images/min2.png,10,0.0600085907645,0.693340433501,[-0.590625   -0.28055556],,,,,,,,,['num_7'],,,,2018_Jul_01_1238,59.9709433209,sequenceLearningTask,001,164,
min1.png,min2.png,min3.png,min4.png,images/allBlank.png,"['num_7', 'num_4', 'num_1', 'num_0']",['num_1'],num_1,[3],'num_1',images/min3.png,"[(0.45, 0.79)]",,,,,0,-1,-1,0,2,2,10,2,,,,,,,,,,,,,"(-0.25, 0.04)",images/min2.png,11,0.0563593614934,0.936412744035,[-0.1046875  -0.15555556],,,,,,,,,['num_1'],,,,2018_Jul_01_1238,59.9709433209,sequenceLearningTask,001,164,
min1.png,min2.png,min3.png,min4.png,images/allBlank.png,"['num_7', 'num_4', 'num_1', 'num_0']",['num_1'],num_1,[3],'num_1',images/min3.png,"[(0.45, 0.79)]",,,,,0,-1,-1,0,2,2,10,2,,,,,,,,,,,,,"(-0.75, 0.04)",images/min1.png,11,0.0559331052573,0.820863663235,[-0.1484375 -0.225    ],0.117362823647,1,,,,,,,['num_1'],,,,2018_Jul_01_1238,59.9709433209,sequenceLearningTask,001,164,
min1.png,min2.png,min3.png,min4.png,images/allBlank.png,"['num_7', 'num_4', 'num_1', 'num_0']",['num_1'],num_1,[3],'num_1',images/min3.png,"[(0.45, 0.79)]",,,,,0,-1,-1,0,2,2,10,2,,,,,,,,,,,,,"(-0.25, 0.04)",images/min2.png,11,0.0608024365938,1.06062848795,[-0.775      -0.19444444],,,,,,,,,['num_1'],,,,2018_Jul_01_1238,59.9709433209,sequenceLearningTask,001,164,
min1.png,min2.png,min3.png,min4.png,images/allBlank.png,"['num_7', 'num_4', 'num_1', 'num_0']",['num_1'],num_1,[3],'num_1',images/min3.png,"[(0.45, 0.79)]",,,,,0,-1,-1,0,2,2,10,2,,,,,,,,,,,,,"(0.25, 0.04)",images/min3.png,11,0.0597862318809,0.515029532295,[-0.0890625  -0.01388889],,,,,,,,,['num_1'],,,,2018_Jul_01_1238,59.9709433209,sequenceLearningTask,001,164,
min1.png,min2.png,min3.png,min4.png,images/allBlank.png,"['num_7', 'num_4', 'num_1', 'num_0']",['num_4'],num_4,[2],'num_4',images/min2.png,"[(0.45, 0.79)]",,,,,0,-1,-1,0,2,3,11,1,,,,,,,,,,,,,"(-0.25, 0.04)",images/min2.png,12,0.025064194846,2.83962878374,[ 0.403125    0.03888889],2.33990919388,1,,,,,,,['num_4'],,,,2018_Jul_01_1238,59.9709433209,sequenceLearningTask,001,164,
min1.png,min2.png,min3.png,min4.png,images/allBlank.png,"['num_7', 'num_4', 'num_1', 'num_0']",['num_4'],num_4,[2],'num_4',images/min2.png,"[(0.45, 0.79)]",,,,,0,-1,-1,0,2,3,11,1,,,,,,,,,,,,,"(-0.75, 0.04)",images/min1.png,12,0.0713940219921,0.752112101698,[-0.3109375  -0.15277778],0.0027425629778,1,,,,,,,['num_4'],,,,2018_Jul_01_1238,59.9709433209,sequenceLearningTask,001,164,
min1.png,min2.png,min3.png,min4.png,images/allBlank.png,"['num_7', 'num_4', 'num_1', 'num_0']",['num_4'],num_4,[2],'num_4',images/min2.png,"[(0.45, 0.79)]",,,,,0,-1,-1,0,2,3,11,1,,,,,,,,,,,,,"(-0.25, 0.04)",images/min2.png,12,0.075462122888,0.533994447593,[-0.8078125 -0.175    ],0.00258502458018,1,,,,,,,['num_4'],,,,2018_Jul_01_1238,59.9709433209,sequenceLearningTask,001,164,
min1.png,min2.png,min3.png,min4.png,images/allBlank.png,"['num_7', 'num_4', 'num_1', 'num_0']",['num_4'],num_4,[2],'num_4',images/min2.png,"[(0.45, 0.79)]",,,,,0,-1,-1,0,2,3,11,1,,,,,,,,,,,,,"(0.75, 0.04)",images/min4.png,12,0.0725374061385,0.530140090199,[-0.1953125  -0.01944444],0.0,1,,,,,,,['num_4'],,,,2018_Jul_01_1238,59.9709433209,sequenceLearningTask,001,164,
min1.png,min2.png,min3.png,min4.png,images/allBlank.png,"['num_7', 'num_4', 'num_1', 'num_0']",['num_7'],num_7,[1],'num_7',images/min1.png,"[(0.45, 0.79)]",,,,,0,-1,-1,0,3,0,12,0,,,,,,,,,,,,,"(0.75, 0.04)",images/min4.png,13,0.0663076651053,0.0,[ 0.6359375   0.14722222],,,1,,,,,,['num_7'],,,,2018_Jul_01_1238,59.9709433209,sequenceLearningTask,001,164,
min1.png,min2.png,min3.png,min4.png,images/allBlank.png,"['num_7', 'num_4', 'num_1', 'num_0']",['num_7'],num_7,[1],'num_7',images/min1.png,"[(0.45, 0.79)]",,,,,0,-1,-1,0,3,0,12,0,,,,,,,,,,,,,"(0.75, 0.04)",images/min4.png,13,0.0610215134257,0.124881179536,[ 0.7109375   0.05277778],,,,,,,,,['num_7'],,,,2018_Jul_01_1238,59.9709433209,sequenceLearningTask,001,164,
min1.png,min2.png,min3.png,min4.png,images/allBlank.png,"['num_7', 'num_4', 'num_1', 'num_0']",['num_7'],num_7,[1],'num_7',images/min1.png,"[(0.45, 0.79)]",,,,,0,-1,-1,0,3,0,12,0,,,,,,,,,,,,,"(-0.25, 0.04)",images/min2.png,13,0.0531183371822,0.889901173374,[ 0.678125    0.03888889],0.352872880872,1,,,,,,,['num_7'],,,,2018_Jul_01_1238,59.9709433209,sequenceLearningTask,001,164,
min1.png,min2.png,min3.png,min4.png,images/allBlank.png,"['num_7', 'num_4', 'num_1', 'num_0']",['num_7'],num_7,[1],'num_7',images/min1.png,"[(0.45, 0.79)]",,,,,0,-1,-1,0,3,0,12,0,,,,,,,,,,,,,"(0.75, 0.04)",images/min4.png,13,0.0668278700196,0.500604512572,[-0.2640625  -0.06666667],,,,,,,,,['num_7'],,,,2018_Jul_01_1238,59.9709433209,sequenceLearningTask,001,164,
min1.png,min2.png,min3.png,min4.png,images/allBlank.png,"['num_7', 'num_4', 'num_1', 'num_0']",['num_4'],num_4,[2],'num_4',images/min2.png,"[(0.45, 0.79)]",,,,,0,-1,-1,0,3,1,13,1,,,,,,,,,,,,,"(0.25, 0.04)",images/min3.png,14,0.0587921810074,0.443834074324,[ 0.69375     0.03055556],0.00322830636833,1,,,,,,,['num_4'],,,,2018_Jul_01_1238,59.9709433209,sequenceLearningTask,001,164,
min1.png,min2.png,min3.png,min4.png,images/allBlank.png,"['num_7', 'num_4', 'num_1', 'num_0']",['num_4'],num_4,[2],'num_4',images/min2.png,"[(0.45, 0.79)]",,,,,0,-1,-1,0,3,1,13,1,,,,,,,,,,,,,"(0.25, 0.04)",images/min3.png,14,0.0313977307087,0.05531607987,[ 0.3328125   0.06388889],,,,,,,,,['num_4'],,,,2018_Jul_01_1238,59.9709433209,sequenceLearningTask,001,164,
min1.png,min2.png,min3.png,min4.png,images/allBlank.png,"['num_7', 'num_4', 'num_1', 'num_0']",['num_4'],num_4,[2],'num_4',images/min2.png,"[(0.45, 0.79)]",,,,,0,-1,-1,0,3,1,13,1,,,,,,,,,,,,,"(0.25, 0.04)",images/min3.png,14,0.0453591608784,0.0610055134348,[ 0.3265625   0.08055556],,,,,,,,,['num_4'],,,,2018_Jul_01_1238,59.9709433209,sequenceLearningTask,001,164,
min1.png,min2.png,min3.png,min4.png,images/allBlank.png,"['num_7', 'num_4', 'num_1', 'num_0']",['num_4'],num_4,[2],'num_4',images/min2.png,"[(0.45, 0.79)]",,,,,0,-1,-1,0,3,1,13,1,,,,,,,,,,,,,"(0.75, 0.04)",images/min4.png,14,0.0266867582832,2.20859765801,[ 0.2890625   0.00833333],0.0446580329608,1,,,,,,,['num_4'],,,,2018_Jul_01_1238,59.9709433209,sequenceLearningTask,001,164,
min1.png,min2.png,min3.png,min4.png,images/allBlank.png,"['num_7', 'num_4', 'num_1', 'num_0']",['num_1'],num_1,[3],'num_1',images/min3.png,"[(0.45, 0.79)]",,,,,0,-1,-1,0,3,2,14,2,,,,,,,,,,,,,"(0.75, 0.04)",images/min4.png,15,0.0551285927686,2.14176199312,[ 0.7421875   0.08888889],,,,,,,,,['num_1'],,,,2018_Jul_01_1238,59.9709433209,sequenceLearningTask,001,164,
min1.png,min2.png,min3.png,min4.png,images/allBlank.png,"['num_7', 'num_4', 'num_1', 'num_0']",['num_1'],num_1,[3],'num_1',images/min3.png,"[(0.45, 0.79)]",,,,,0,-1,-1,0,3,2,14,2,,,,,,,,,,,,,"(-0.25, 0.04)",images/min2.png,15,0.0588094117702,0.936739718261,[ 0.7078125  -0.07777778],0.727428624645,1,,,,,,,['num_1'],,,,2018_Jul_01_1238,59.9709433209,sequenceLearningTask,001,164,
min1.png,min2.png,min3.png,min4.png,images/allBlank.png,"['num_7', 'num_4', 'num_1', 'num_0']",['num_1'],num_1,[3],'num_1',images/min3.png,"[(0.45, 0.79)]",,,,,0,-1,-1,0,3,2,14,2,,,,,,,,,,,,,"(0.75, 0.04)",images/min4.png,15,0.0730128931227,0.533923063007,[-0.2359375  -0.01666667],,,,,,,,,['num_1'],,,,2018_Jul_01_1238,59.9709433209,sequenceLearningTask,001,164,
min1.png,min2.png,min3.png,min4.png,images/allBlank.png,"['num_7', 'num_4', 'num_1', 'num_0']",['num_1'],num_1,[3],'num_1',images/min3.png,"[(0.45, 0.79)]",,,,,0,-1,-1,0,3,2,14,2,,,,,,,,,,,,,"(-0.25, 0.04)",images/min2.png,15,0.0603843854842,0.850487035697,[ 0.7296875  -0.33055556],,,,,,,,,['num_1'],,,,2018_Jul_01_1238,59.9709433209,sequenceLearningTask,001,164,
min1.png,min2.png,min3.png,min4.png,images/allBlank.png,"['num_7', 'num_4', 'num_1', 'num_0']",['num_0'],num_0,[4],'num_0',images/min4.png,"[(0.45, 0.79)]",,,,,0,-1,-1,0,3,3,15,3,,,,,,,,,,,,,"(-0.25, 0.04)",images/min2.png,16,0.0635331021404,0.877392460558,[-0.15625    -0.31666667],0.423429159619,1,,,,,,,['num_0'],,,,2018_Jul_01_1238,59.9709433209,sequenceLearningTask,001,164,
min1.png,min2.png,min3.png,min4.png,images/allBlank.png,"['num_7', 'num_4', 'num_1', 'num_0']",['num_0'],num_0,[4],'num_0',images/min4.png,"[(0.45, 0.79)]",,,,,0,-1,-1,0,3,3,15,3,,,,,,,,,,,,,"(0.25, 0.04)",images/min3.png,16,0.0255794766854,0.699481148931,[-0.2140625  -0.29444444],,,,,,,,,['num_0'],,,,2018_Jul_01_1238,59.9709433209,sequenceLearningTask,001,164,
min1.png,min2.png,min3.png,min4.png,images/allBlank.png,"['num_7', 'num_4', 'num_1', 'num_0']",['num_0'],num_0,[4],'num_0',images/min4.png,"[(0.45, 0.79)]",,,,,0,-1,-1,0,3,3,15,3,,,,,,,,,,,,,"(0.75, 0.04)",images/min4.png,16,0.052969414166,0.587380271843,[ 0.253125   -0.15833333],,,,,,,,,['num_0'],,,,2018_Jul_01_1238,59.9709433209,sequenceLearningTask,001,164,
min1.png,min2.png,min3.png,min4.png,images/allBlank.png,"['num_7', 'num_4', 'num_1', 'num_0']",['num_0'],num_0,[4],'num_0',images/min4.png,"[(0.45, 0.79)]",,,,,0,-1,-1,0,3,3,15,3,,,,,,,,,,,,,"(-0.25, 0.04)",images/min2.png,16,0.0253333229412,0.00105640982292,[ 0.5765625  -0.15277778],0.00105640982292,1,1,,,,,,['num_0'],,,,2018_Jul_01_1238,59.9709433209,sequenceLearningTask,001,164,
min1.png,min2.png,min3.png,min4.png,images/allBlank.png,"['num_7', 'num_4', 'num_1', 'num_0']",['num_4'],num_4,[2],'num_4',images/min2.png,"[(0.45, 0.79)]",,,,,0,-1,-1,0,4,0,16,1,,,,,,,,,,,,,"(-0.25, 0.04)",images/min2.png,17,0.0248955795305,0.331381197382,[-0.7234375  -0.29166667],0.0944032433217,1,,,,,,,['num_4'],,,,2018_Jul_01_1238,59.9709433209,sequenceLearningTask,001,164,
min1.png,min2.png,min3.png,min4.png,images/allBlank.png,"['num_7', 'num_4', 'num_1', 'num_0']",['num_4'],num_4,[2],'num_4',images/min2.png,"[(0.45, 0.79)]",,,,,0,-1,-1,0,4,0,16,1,,,,,,,,,,,,,"(0.75, 0.04)",images/min4.png,17,0.0503109537185,0.908010704406,[-0.1875     -0.24722222],0.672851826523,1,,,,,,,['num_4'],,,,2018_Jul_01_1238,59.9709433209,sequenceLearningTask,001,164,
min1.png,min2.png,min3.png,min4.png,images/allBlank.png,"['num_7', 'num_4', 'num_1', 'num_0']",['num_4'],num_4,[2],'num_4',images/min2.png,"[(0.45, 0.79)]",,,,,0,-1,-1,0,4,0,16,1,,,,,,,,,,,,,"(-0.75, 0.04)",images/min1.png,17,0.0531544397327,1.67729941444,[ 0.7203125  -0.11388889],1.44155222911,1,,,,,,,['num_4'],,,,2018_Jul_01_1238,59.9709433209,sequenceLearningTask,001,164,
min1.png,min2.png,min3.png,min4.png,images/allBlank.png,"['num_7', 'num_4', 'num_1', 'num_0']",['num_4'],num_4,[2],'num_4',images/min2.png,"[(0.45, 0.79)]",,,,,0,-1,-1,0,4,0,16,1,,,,,,,,,,,,,"(0.25, 0.04)",images/min3.png,17,0.0639088968564,0.855644777172,[-0.6296875  -0.14722222],0.660104754828,1,,,,,,,['num_4'],,,,2018_Jul_01_1238,59.9709433209,sequenceLearningTask,001,164,
min1.png,min2.png,min3.png,min4.png,images/allBlank.png,"['num_7', 'num_4', 'num_1', 'num_0']",['num_0'],num_0,[4],'num_0',images/min4.png,"[(0.45, 0.79)]",,,,,0,-1,-1,0,4,1,17,3,,,,,,,,,,,,,"(-0.75, 0.04)",images/min1.png,18,0.0379417280237,0.816711870066,[ 0.5171875  -0.13611111],0.578600788265,1,,,,,,,['num_0'],,,,2018_Jul_01_1238,59.9709433209,sequenceLearningTask,001,164,
min1.png,min2.png,min3.png,min4.png,images/allBlank.png,"['num_7', 'num_4', 'num_1', 'num_0']",['num_0'],num_0,[4],'num_0',images/min4.png,"[(0.45, 0.79)]",,,,,0,-1,-1,0,4,1,17,3,,,,,,,,,,,,,"(-0.75, 0.04)",images/min1.png,18,0.0244139387014,0.0653607936983,[-0.8125     -0.08611111],,,,,,,,,['num_0'],,,,2018_Jul_01_1238,59.9709433209,sequenceLearningTask,001,164,
min1.png,min2.png,min3.png,min4.png,images/allBlank.png,"['num_7', 'num_4', 'num_1', 'num_0']",['num_0'],num_0,[4],'num_0',images/min4.png,"[(0.45, 0.79)]",,,,,0,-1,-1,0,4,1,17,3,,,,,,,,,,,,,"(0.75, 0.04)",images/min4.png,18,0.0611076672376,0.809427770491,[-0.7328125  -0.08055556],,,,,,,,,['num_0'],,,,2018_Jul_01_1238,59.9709433209,sequenceLearningTask,001,164,
min1.png,min2.png,min3.png,min4.png,images/allBlank.png,"['num_7', 'num_4', 'num_1', 'num_0']",['num_0'],num_0,[4],'num_0',images/min4.png,"[(0.45, 0.79)]",,,,,0,-1,-1,0,4,1,17,3,,,,,,,,,,,,,"(0.75, 0.04)",images/min4.png,18,0.0902822193711,0.630107228673,[ 0.74375    -0.08888889],,,,,,,,,['num_0'],,,,2018_Jul_01_1238,59.9709433209,sequenceLearningTask,001,164,
min1.png,min2.png,min3.png,min4.png,images/allBlank.png,"['num_7', 'num_4', 'num_1', 'num_0']",['num_7'],num_7,[1],'num_7',images/min1.png,"[(0.45, 0.79)]",,,,,0,-1,-1,0,4,2,18,0,,,,,,,,,,,,,"(-0.25, 0.04)",images/min2.png,19,0.0652044860708,0.584127760358,[ 0.6796875 -0.125    ],,,,,,,,,['num_7'],,,,2018_Jul_01_1238,59.9709433209,sequenceLearningTask,001,164,
min1.png,min2.png,min3.png,min4.png,images/allBlank.png,"['num_7', 'num_4', 'num_1', 'num_0']",['num_7'],num_7,[1],'num_7',images/min1.png,"[(0.45, 0.79)]",,,,,0,-1,-1,0,4,2,18,0,,,,,,,,,,,,,"(-0.75, 0.04)",images/min1.png,19,0.0586744374668,0.683425770902,[-0.3203125 -0.05     ],,,,,,,,,['num_7'],,,,2018_Jul_01_1238,59.9709433209,sequenceLearningTask,001,164,
min1.png,min2.png,min3.png,min4.png,images/allBlank.png,"['num_7', 'num_4', 'num_1', 'num_0']",['num_7'],num_7,[1],'num_7',images/min1.png,"[(0.45, 0.79)]",,,,,0,-1,-1,0,4,2,18,0,,,,,,,,,,,,,"(-0.25, 0.04)",images/min2.png,19,0.0598822318425,0.62706846069,[-0.6984375  -0.09722222],,,,,,,,,['num_7'],,,,2018_Jul_01_1238,59.9709433209,sequenceLearningTask,001,164,
min1.png,min2.png,min3.png,min4.png,images/allBlank.png,"['num_7', 'num_4', 'num_1', 'num_0']",['num_7'],num_7,[1],'num_7',images/min1.png,"[(0.45, 0.79)]",,,,,0,-1,-1,0,4,2,18,0,,,,,,,,,,,,,"(-0.25, 0.04)",images/min2.png,19,0.0704828428788,0.632294714955,[-0.1421875   0.14722222],,,,,,,,,['num_7'],,,,2018_Jul_01_1238,59.9709433209,sequenceLearningTask,001,164,
min1.png,min2.png,min3.png,min4.png,images/allBlank.png,"['num_7', 'num_4', 'num_1', 'num_0']",['num_1'],num_1,[3],'num_1',images/min3.png,"[(0.45, 0.79)]",,,,,0,-1,-1,0,4,3,19,2,,,,,,,,,,,,,"(0.75, 0.04)",images/min4.png,20,0.0617480772326,0.587283041115,[-0.1765625  -0.05277778],,,,,,,,,['num_1'],,,,2018_Jul_01_1238,59.9709433209,sequenceLearningTask,001,164,
min1.png,min2.png,min3.png,min4.png,images/allBlank.png,"['num_7', 'num_4', 'num_1', 'num_0']",['num_1'],num_1,[3],'num_1',images/min3.png,"[(0.45, 0.79)]",,,,,0,-1,-1,0,4,3,19,2,,,,,,,,,,,,,"(-0.75, 0.04)",images/min1.png,20,0.0602001804309,0.643816351256,[ 0.7640625  -0.11666667],,,,,,,,,['num_1'],,,,2018_Jul_01_1238,59.9709433209,sequenceLearningTask,001,164,
min1.png,min2.png,min3.png,min4.png,images/allBlank.png,"['num_7', 'num_4', 'num_1', 'num_0']",['num_1'],num_1,[3],'num_1',images/min3.png,"[(0.45, 0.79)]",,,,,0,-1,-1,0,4,3,19,2,,,,,,,,,,,,,"(-0.25, 0.04)",images/min2.png,20,0.07231791905,0.616824772585,[-0.659375   -0.13055556],,,,,,,,,['num_1'],,,,2018_Jul_01_1238,59.9709433209,sequenceLearningTask,001,164,
min1.png,min2.png,min3.png,min4.png,images/allBlank.png,"['num_7', 'num_4', 'num_1', 'num_0']",['num_1'],num_1,[3],'num_1',images/min3.png,"[(0.45, 0.79)]",,,,,0,-1,-1,0,4,3,19,2,,,,,,,,,,,,,"(0.75, 0.04)",images/min4.png,20,0.0628754613845,0.934701565251,[-0.1734375  -0.28888889],,,,,,,,,['num_1'],,,,2018_Jul_01_1238,59.9709433209,sequenceLearningTask,001,164,
min1.png,min2.png,min3.png,min4.png,allBlank.png,"['num_7', 'num_4', 'num_1', 'num_0']",['num_1'],num_1,[3],'num_1',images/min3.png,"[(0.45, 0.79)]",,,,,0,0,0,0,4,3,19,2,,,,,,,,,,,,,"(-0.75, -0.04)",images/min1.png,1,0.0421714698787,0.847926626491,[ 0.2765625  -0.31388889],,,,,,,,,['num_1'],,,,2018_Jul_01_1238,59.9709433209,sequenceLearningTask,001,164,
min1.png,min2.png,min3.png,min4.png,allBlank.png,"['num_7', 'num_4', 'num_1', 'num_0']",['num_1'],num_1,[3],'num_1',images/min3.png,"[(0.45, 0.79)]",,,,,0,0,0,0,4,3,19,2,,,,,,,,,,,,,"(0.25, -0.04)",images/min3.png,1,0.0599158728546,0.626948255611,[-0.7140625  0.075    ],,,,,,,,,['num_1'],,,,2018_Jul_01_1238,59.9709433209,sequenceLearningTask,001,164,
min1.png,min2.png,min3.png,min4.png,allBlank.png,"['num_7', 'num_4', 'num_1', 'num_0']",['num_1'],num_1,[3],'num_1',images/min3.png,"[(0.45, 0.79)]",,,,,0,0,0,0,4,3,19,2,,,,,,,,,,,,,"(-0.25, -0.04)",images/min2.png,1,0.0599962830784,0.900454604942,[ 0.0484375  -0.18611111],,,,,,,,,['num_1'],,,,2018_Jul_01_1238,59.9709433209,sequenceLearningTask,001,164,
min1.png,min2.png,min3.png,min4.png,allBlank.png,"['num_7', 'num_4', 'num_1', 'num_0']",['num_1'],num_1,[3],'num_1',images/min3.png,"[(0.45, 0.79)]",,,,,0,0,0,0,4,3,19,2,,,,,,,,,,,,,"(0.75, -0.04)",images/min4.png,1,0.0558223360731,0.802214645244,[-0.1671875  -0.08055556],,,,,,,,,['num_1'],,,,2018_Jul_01_1238,59.9709433209,sequenceLearningTask,001,164,
min1.png,min2.png,min3.png,min4.png,allBlank.png,"['num_7', 'num_4', 'num_1', 'num_0']",['num_1'],num_1,[3],'num_1',images/min3.png,"[(0.45, 0.79)]",,,,,0,0,0,0,4,3,19,2,,,,,,,,,,,,,"(0.75, -0.04)",images/min4.png,1,0.0565923870399,2.07373043129,[ 0.7765625 -0.375    ],,,,,,,,,['num_1'],,,,2018_Jul_01_1238,59.9709433209,sequenceLearningTask,001,164,
min1.png,min2.png,min3.png,min4.png,allBlank.png,"['num_7', 'num_4', 'num_1', 'num_0']",['num_1'],num_1,[3],'num_1',images/min3.png,"[(0.45, 0.79)]",,,,,0,0,0,0,4,3,19,2,,,,,,,,,,,,,"(-0.25, -0.04)",images/min2.png,1,0.0569948484135,1.84090386014,[ 0.809375   -0.06388889],,,,,,,,,['num_1'],,,,2018_Jul_01_1238,59.9709433209,sequenceLearningTask,001,164,
min1.png,min2.png,min3.png,min4.png,allBlank.png,"['num_7', 'num_4', 'num_1', 'num_0']",['num_1'],num_1,[3],'num_1',images/min3.png,"[(0.45, 0.79)]",,,,,0,0,0,0,4,3,19,2,,,,,,,,,,,,,"(0.25, -0.04)",images/min3.png,1,0.0620910514499,2.05166233778,[-0.190625 -0.225   ],,,,,,,,,['num_1'],,,,2018_Jul_01_1238,59.9709433209,sequenceLearningTask,001,164,
min1.png,min2.png,min3.png,min4.png,allBlank.png,"['num_7', 'num_4', 'num_1', 'num_0']",['num_1'],num_1,[3],'num_1',images/min3.png,"[(0.45, 0.79)]",,,,,0,0,0,0,4,3,19,2,,,,,,,,,,,,,"(0.75, -0.04)",images/min4.png,1,0.0561525923476,0.554864592876,[ 0.29375    -0.20555556],,,,,,,,,['num_1'],,,,2018_Jul_01_1238,59.9709433209,sequenceLearningTask,001,164,
min1.png,min2.png,min3.png,min4.png,allBlank.png,"['num_7', 'num_4', 'num_1', 'num_0']",['num_1'],num_1,[3],'num_1',images/min3.png,"[(0.45, 0.79)]",,,,,0,1,1,1,4,3,19,2,,,,,,,,,,,,,"(-0.75, -0.04)",images/min1.png,2,0.0591819244382,1.11515277327,[ 0.79375 -0.25   ],0.396630401383,1,,,,,,,['num_1'],,,,2018_Jul_01_1238,59.9709433209,sequenceLearningTask,001,164,
min1.png,min2.png,min3.png,min4.png,allBlank.png,"['num_7', 'num_4', 'num_1', 'num_0']",['num_1'],num_1,[3],'num_1',images/min3.png,"[(0.45, 0.79)]",,,,,0,1,1,1,4,3,19,2,,,,,,,,,,,,,"(0.25, -0.04)",images/min3.png,2,0.0564972075899,0.497142360147,[-0.8140625  -0.13888889],,,,,,,,,['num_1'],,,,2018_Jul_01_1238,59.9709433209,sequenceLearningTask,001,164,
min1.png,min2.png,min3.png,min4.png,allBlank.png,"['num_7', 'num_4', 'num_1', 'num_0']",['num_1'],num_1,[3],'num_1',images/min3.png,"[(0.45, 0.79)]",,,,,0,1,1,1,4,3,19,2,,,,,,,,,,,,,"(-0.25, -0.04)",images/min2.png,2,0.0516992608409,0.590291450137,[ 0.24375     0.03333333],,,,,,,,,['num_1'],,,,2018_Jul_01_1238,59.9709433209,sequenceLearningTask,001,164,
min1.png,min2.png,min3.png,min4.png,allBlank.png,"['num_7', 'num_4', 'num_1', 'num_0']",['num_1'],num_1,[3],'num_1',images/min3.png,"[(0.45, 0.79)]",,,,,0,1,1,1,4,3,19,2,,,,,,,,,,,,,"(0.75, -0.04)",images/min4.png,2,0.0575663353575,0.98004636716,[-0.3125     -0.21111111],,,,,,,,,['num_1'],,,,2018_Jul_01_1238,59.9709433209,sequenceLearningTask,001,164,
min1.png,min2.png,min3.png,min4.png,allBlank.png,"['num_7', 'num_4', 'num_1', 'num_0']",['num_1'],num_1,[3],'num_1',images/min3.png,"[(0.45, 0.79)]",,,,,0,1,1,1,4,3,19,2,,,,,,,,,,,,,"(0.75, -0.04)",images/min4.png,2,0.0590719757656,0.728848111243,[ 0.7453125  -0.37222222],,,,,,,,,['num_1'],,,,2018_Jul_01_1238,59.9709433209,sequenceLearningTask,001,164,
min1.png,min2.png,min3.png,min4.png,allBlank.png,"['num_7', 'num_4', 'num_1', 'num_0']",['num_1'],num_1,[3],'num_1',images/min3.png,"[(0.45, 0.79)]",,,,,0,1,1,1,4,3,19,2,,,,,,,,,,,,,"(-0.25, -0.04)",images/min2.png,2,0.052681414285,0.583897196349,[ 0.703125 -0.125   ],,,,,,,,,['num_1'],,,,2018_Jul_01_1238,59.9709433209,sequenceLearningTask,001,164,
min1.png,min2.png,min3.png,min4.png,allBlank.png,"['num_7', 'num_4', 'num_1', 'num_0']",['num_1'],num_1,[3],'num_1',images/min3.png,"[(0.45, 0.79)]",,,,,0,1,1,1,4,3,19,2,,,,,,,,,,,,,"(0.25, -0.04)",images/min3.png,2,0.0573025405938,0.612378005178,[-0.271875   -0.05555556],,,,,,,,,['num_1'],,,,2018_Jul_01_1238,59.9709433209,sequenceLearningTask,001,164,
min1.png,min2.png,min3.png,min4.png,allBlank.png,"['num_7', 'num_4', 'num_1', 'num_0']",['num_1'],num_1,[3],'num_1',images/min3.png,"[(0.45, 0.79)]",,,,,0,1,1,1,4,3,19,2,,,,,,,,,,,,,"(0.75, -0.04)",images/min4.png,2,0.0617751541431,0.575072994841,[ 0.190625   -0.03611111],,,,,,,,,['num_1'],,,,2018_Jul_01_1238,59.9709433209,sequenceLearningTask,001,164,
min1.png,min2.png,min3.png,min4.png,allBlank.png,"['num_7', 'num_4', 'num_1', 'num_0']",['num_1'],num_1,[3],'num_1',images/min3.png,"[(0.45, 0.79)]",,,,,0,2,2,2,4,3,19,2,,,,,,,,,,,,,"(-0.75, -0.04)",images/min1.png,3,0.0593923858905,0.777790860393,[ 0.66875     0.07777778],,,,,,,,,['num_1'],,,,2018_Jul_01_1238,59.9709433209,sequenceLearningTask,001,164,
min1.png,min2.png,min3.png,min4.png,allBlank.png,"['num_7', 'num_4', 'num_1', 'num_0']",['num_1'],num_1,[3],'num_1',images/min3.png,"[(0.45, 0.79)]",,,,,0,2,2,2,4,3,19,2,,,,,,,,,,,,,"(0.25, -0.04)",images/min3.png,3,0.060475872624,0.578091660271,[-0.6640625   0.09722222],,,,,,,,,['num_1'],,,,2018_Jul_01_1238,59.9709433209,sequenceLearningTask,001,164,
min1.png,min2.png,min3.png,min4.png,allBlank.png,"['num_7', 'num_4', 'num_1', 'num_0']",['num_1'],num_1,[3],'num_1',images/min3.png,"[(0.45, 0.79)]",,,,,0,2,2,2,4,3,19,2,,,,,,,,,,,,,"(-0.25, -0.04)",images/min2.png,3,0.0539577214531,1.69206207505,[ 0.340625    0.04722222],,,,,,,,,['num_1'],,,,2018_Jul_01_1238,59.9709433209,sequenceLearningTask,001,164,
min1.png,min2.png,min3.png,min4.png,allBlank.png,"['num_7', 'num_4', 'num_1', 'num_0']",['num_1'],num_1,[3],'num_1',images/min3.png,"[(0.45, 0.79)]",,,,,0,2,2,2,4,3,19,2,,,,,,,,,,,,,"(0.75, -0.04)",images/min4.png,3,0.0569160792147,0.646904760244,[-0.3515625  -0.08055556],,,,,,,,,['num_1'],,,,2018_Jul_01_1238,59.9709433209,sequenceLearningTask,001,164,
min1.png,min2.png,min3.png,min4.png,allBlank.png,"['num_7', 'num_4', 'num_1', 'num_0']",['num_1'],num_1,[3],'num_1',images/min3.png,"[(0.45, 0.79)]",,,,,0,2,2,2,4,3,19,2,,,,,,,,,,,,,"(0.75, -0.04)",images/min4.png,3,0.0721201755405,3.3447046791,[ 0.6578125  -0.20833333],0.0662239728317,1,,,,,,,['num_1'],,,,2018_Jul_01_1238,59.9709433209,sequenceLearningTask,001,164,
min1.png,min2.png,min3.png,min4.png,allBlank.png,"['num_7', 'num_4', 'num_1', 'num_0']",['num_1'],num_1,[3],'num_1',images/min3.png,"[(0.45, 0.79)]",,,,,0,2,2,2,4,3,19,2,,,,,,,,,,,,,"(-0.25, -0.04)",images/min2.png,3,0.0642112557089,0.64479276111,[ 0.7015625 -0.125    ],0.0912721676832,1,,,,,,,['num_1'],,,,2018_Jul_01_1238,59.9709433209,sequenceLearningTask,001,164,
min1.png,min2.png,min3.png,min4.png,allBlank.png,"['num_7', 'num_4', 'num_1', 'num_0']",['num_1'],num_1,[3],'num_1',images/min3.png,"[(0.45, 0.79)]",,,,,0,2,2,2,4,3,19,2,,,,,,,,,,,,,"(0.25, -0.04)",images/min3.png,3,0.0721534062959,0.550504389537,[-0.43125    -0.12222222],,,,,,,,,['num_1'],,,,2018_Jul_01_1238,59.9709433209,sequenceLearningTask,001,164,
min1.png,min2.png,min3.png,min4.png,allBlank.png,"['num_7', 'num_4', 'num_1', 'num_0']",['num_1'],num_1,[3],'num_1',images/min3.png,"[(0.45, 0.79)]",,,,,0,2,2,2,4,3,19,2,,,,,,,,,,,,,"(0.75, -0.04)",images/min4.png,3,0.0574859251337,0.44551776594,[ 0.2359375  -0.34722222],,,,,,,,,['num_1'],,,,2018_Jul_01_1238,59.9709433209,sequenceLearningTask,001,164,
min1.png,min2.png,min3.png,min4.png,allBlank.png,"['num_7', 'num_4', 'num_1', 'num_0']",['num_1'],num_1,[3],'num_1',images/min3.png,"[(0.45, 0.79)]",,,,,0,3,3,3,4,3,19,2,,,,,,,,,,,,,"(-0.75, -0.04)",images/min1.png,4,0.0586768990051,0.542142136555,[ 0.6671875  -0.06944444],,,,,,,,,['num_1'],,,,2018_Jul_01_1238,59.9709433209,sequenceLearningTask,001,164,
min1.png,min2.png,min3.png,min4.png,allBlank.png,"['num_7', 'num_4', 'num_1', 'num_0']",['num_1'],num_1,[3],'num_1',images/min3.png,"[(0.45, 0.79)]",,,,,0,3,3,3,4,3,19,2,,,,,,,,,,,,,"(0.25, -0.04)",images/min3.png,4,0.0609304365407,0.664493265849,[-0.7515625  -0.07222222],,,,,,,,,['num_1'],,,,2018_Jul_01_1238,59.9709433209,sequenceLearningTask,001,164,
min1.png,min2.png,min3.png,min4.png,allBlank.png,"['num_7', 'num_4', 'num_1', 'num_0']",['num_1'],num_1,[3],'num_1',images/min3.png,"[(0.45, 0.79)]",,,,,0,3,3,3,4,3,19,2,,,,,,,,,,,,,"(-0.25, -0.04)",images/min2.png,4,0.0533636704149,0.838353707341,[ 0.1234375  -0.20833333],,,,,,,,,['num_1'],,,,2018_Jul_01_1238,59.9709433209,sequenceLearningTask,001,164,
min1.png,min2.png,min3.png,min4.png,allBlank.png,"['num_7', 'num_4', 'num_1', 'num_0']",['num_1'],num_1,[3],'num_1',images/min3.png,"[(0.45, 0.79)]",,,,,0,3,3,3,4,3,19,2,,,,,,,,,,,,,"(0.75, -0.04)",images/min4.png,4,0.055899464247,0.615224362984,[-0.2515625  -0.09722222],,,,,,,,,['num_1'],,,,2018_Jul_01_1238,59.9709433209,sequenceLearningTask,001,164,
min1.png,min2.png,min3.png,min4.png,allBlank.png,"['num_7', 'num_4', 'num_1', 'num_0']",['num_1'],num_1,[3],'num_1',images/min3.png,"[(0.45, 0.79)]",,,,,0,3,3,3,4,3,19,2,,,,,,,,,,,,,"(0.75, -0.04)",images/min4.png,4,0.0542247982667,1.10540303368,[ 0.665625    0.00277778],0.470089243041,1,,,,,,,['num_1'],,,,2018_Jul_01_1238,59.9709433209,sequenceLearningTask,001,164,
min1.png,min2.png,min3.png,min4.png,allBlank.png,"['num_7', 'num_4', 'num_1', 'num_0']",['num_1'],num_1,[3],'num_1',images/min3.png,"[(0.45, 0.79)]",,,,,0,3,3,3,4,3,19,2,,,,,,,,,,,,,"(-0.25, -0.04)",images/min2.png,4,0.0587761810148,0.694702073968,[ 0.8140625  -0.14722222],,,,,,,,,['num_1'],,,,2018_Jul_01_1238,59.9709433209,sequenceLearningTask,001,164,
min1.png,min2.png,min3.png,min4.png,allBlank.png,"['num_7', 'num_4', 'num_1', 'num_0']",['num_1'],num_1,[3],'num_1',images/min3.png,"[(0.45, 0.79)]",,,,,0,3,3,3,4,3,19,2,,,,,,,,,,,,,"(0.25, -0.04)",images/min3.png,4,0.0589021296819,0.918065674641,[-0.3265625 -0.3      ],,,,,,,,,['num_1'],,,,2018_Jul_01_1238,59.9709433209,sequenceLearningTask,001,164,
min1.png,min2.png,min3.png,min4.png,allBlank.png,"['num_7', 'num_4', 'num_1', 'num_0']",['num_1'],num_1,[3],'num_1',images/min3.png,"[(0.45, 0.79)]",,,,,0,3,3,3,4,3,19,2,,,,,,,,,,,,,"(0.75, -0.04)",images/min4.png,4,0.0573829508176,0.999683692438,[ 0.1859375  -0.12222222],,,,,,,,,['num_1'],,,,2018_Jul_01_1238,59.9709433209,sequenceLearningTask,001,164,
min1.png,min2.png,min3.png,min4.png,allBlank.png,"['num_7', 'num_4', 'num_1', 'num_0']",['num_1'],num_1,[3],'num_1',images/min3.png,"[(0.45, 0.79)]",,,,,0,4,4,4,4,3,19,2,,,,,,,,,,,,,"(-0.75, -0.04)",images/min1.png,5,0.0489837747755,0.685132847126,[ 0.7859375  -0.05833333],,,,,,,,,['num_1'],,,,2018_Jul_01_1238,59.9709433209,sequenceLearningTask,001,164,
min1.png,min2.png,min3.png,min4.png,allBlank.png,"['num_7', 'num_4', 'num_1', 'num_0']",['num_1'],num_1,[3],'num_1',images/min3.png,"[(0.45, 0.79)]",,,,,0,4,4,4,4,3,19,2,,,,,,,,,,,,,"(0.25, -0.04)",images/min3.png,5,0.0587630528153,0.543424187314,[-0.721875   -0.18611111],,,,,,,,,['num_1'],,,,2018_Jul_01_1238,59.9709433209,sequenceLearningTask,001,164,
min1.png,min2.png,min3.png,min4.png,allBlank.png,"['num_7', 'num_4', 'num_1', 'num_0']",['num_1'],num_1,[3],'num_1',images/min3.png,"[(0.45, 0.79)]",,,,,0,4,4,4,4,3,19,2,,,,,,,,,,,,,"(-0.25, -0.04)",images/min2.png,5,0.0583302324812,0.66628034204,[ 0.2859375  -0.05277778],,,,,,,,,['num_1'],,,,2018_Jul_01_1238,59.9709433209,sequenceLearningTask,001,164,
min1.png,min2.png,min3.png,min4.png,allBlank.png,"['num_7', 'num_4', 'num_1', 'num_0']",['num_1'],num_1,[3],'num_1',images/min3.png,"[(0.45, 0.79)]",,,,,0,4,4,4,4,3,19,2,,,,,,,,,,,,,"(0.75, -0.04)",images/min4.png,5,0.0521607991141,1.00465353655,[-0.2328125   0.09166667],0.450307507565,1,,,,,,,['num_1'],,,,2018_Jul_01_1238,59.9709433209,sequenceLearningTask,001,164,
min1.png,min2.png,min3.png,min4.png,allBlank.png,"['num_7', 'num_4', 'num_1', 'num_0']",['num_1'],num_1,[3],'num_1',images/min3.png,"[(0.45, 0.79)]",,,,,0,4,4,4,4,3,19,2,,,,,,,,,,,,,"(0.75, -0.04)",images/min4.png,5,0.0658982293735,0.576481404521,[ 0.6671875   0.14722222],,,,,,,,,['num_1'],,,,2018_Jul_01_1238,59.9709433209,sequenceLearningTask,001,164,
min1.png,min2.png,min3.png,min4.png,allBlank.png,"['num_7', 'num_4', 'num_1', 'num_0']",['num_1'],num_1,[3],'num_1',images/min3.png,"[(0.45, 0.79)]",,,,,0,4,4,4,4,3,19,2,,,,,,,,,,,,,"(-0.25, -0.04)",images/min2.png,5,0.0568377202726,1.1319966638,[ 0.8453125  -0.53333333],,,,,,,,,['num_1'],,,,2018_Jul_01_1238,59.9709433209,sequenceLearningTask,001,164,
min1.png,min2.png,min3.png,min4.png,allBlank.png,"['num_7', 'num_4', 'num_1', 'num_0']",['num_1'],num_1,[3],'num_1',images/min3.png,"[(0.45, 0.79)]",,,,,0,4,4,4,4,3,19,2,,,,,,,,,,,,,"(0.25, -0.04)",images/min3.png,5,0.0249267590043,0.71852893599,[-0.246875   -0.13055556],0.030419269573,1,,,,,,,['num_1'],,,,2018_Jul_01_1238,59.9709433209,sequenceLearningTask,001,164,
min1.png,min2.png,min3.png,min4.png,allBlank.png,"['num_7', 'num_4', 'num_1', 'num_0']",['num_1'],num_1,[3],'num_1',images/min3.png,"[(0.45, 0.79)]",,,,,0,4,4,4,4,3,19,2,,,,,,,,,,,,,"(0.75, -0.04)",images/min4.png,5,0.0552332081097,0.5670319725,[ 0.2515625  -0.23611111],,,,,,,,,['num_1'],,,,2018_Jul_01_1238,59.9709433209,sequenceLearningTask,001,164,
min1.png,min2.png,min3.png,min4.png,allBlank.png,"['num_7', 'num_4', 'num_1', 'num_0']",['num_1'],num_1,[3],'num_1',images/min3.png,"[(0.45, 0.79)]",,,,,0,5,5,5,4,3,19,2,,,,,,,,,,,,,"(-0.75, -0.04)",images/min1.png,6,0.0694859202104,0.654745987797,[ 0.8109375  -0.02777778],,,,,,,,,['num_1'],,,,2018_Jul_01_1238,59.9709433209,sequenceLearningTask,001,164,
min1.png,min2.png,min3.png,min4.png,allBlank.png,"['num_7', 'num_4', 'num_1', 'num_0']",['num_1'],num_1,[3],'num_1',images/min3.png,"[(0.45, 0.79)]",,,,,0,5,5,5,4,3,19,2,,,,,,,,,,,,,"(0.25, -0.04)",images/min3.png,6,0.0579331044373,0.562161000138,[-0.5859375   0.13055556],,,,,,,,,['num_1'],,,,2018_Jul_01_1238,59.9709433209,sequenceLearningTask,001,164,
min1.png,min2.png,min3.png,min4.png,allBlank.png,"['num_7', 'num_4', 'num_1', 'num_0']",['num_1'],num_1,[3],'num_1',images/min3.png,"[(0.45, 0.79)]",,,,,0,5,5,5,4,3,19,2,,,,,,,,,,,,,"(-0.25, -0.04)",images/min2.png,6,0.0551523876293,0.570901919631,[ 0.2        -0.15277778],,,,,,,,,['num_1'],,,,2018_Jul_01_1238,59.9709433209,sequenceLearningTask,001,164,
min1.png,min2.png,min3.png,min4.png,allBlank.png,"['num_7', 'num_4', 'num_1', 'num_0']",['num_1'],num_1,[3],'num_1',images/min3.png,"[(0.45, 0.79)]",,,,,0,5,5,5,4,3,19,2,,,,,,,,,,,,,"(0.75, -0.04)",images/min4.png,6,0.0599646933479,0.560124898409,[-0.23125    -0.25833333],,,,,,,,,['num_1'],,,,2018_Jul_01_1238,59.9709433209,sequenceLearningTask,001,164,
min1.png,min2.png,min3.png,min4.png,allBlank.png,"['num_7', 'num_4', 'num_1', 'num_0']",['num_1'],num_1,[3],'num_1',images/min3.png,"[(0.45, 0.79)]",,,,,0,5,5,5,4,3,19,2,,,,,,,,,,,,,"(0.75, -0.04)",images/min4.png,6,0.0685927923714,0.708400119629,[ 0.728125   -0.21111111],,,,,,,,,['num_1'],,,,2018_Jul_01_1238,59.9709433209,sequenceLearningTask,001,164,
min1.png,min2.png,min3.png,min4.png,allBlank.png,"['num_7', 'num_4', 'num_1', 'num_0']",['num_1'],num_1,[3],'num_1',images/min3.png,"[(0.45, 0.79)]",,,,,0,5,5,5,4,3,19,2,,,,,,,,,,,,,"(-0.25, -0.04)",images/min2.png,6,0.0679704336526,0.770181837874,[ 0.609375 -0.025   ],0.58902375835,1,,,,,,,['num_1'],,,,2018_Jul_01_1238,59.9709433209,sequenceLearningTask,001,164,
min1.png,min2.png,min3.png,min4.png,allBlank.png,"['num_7', 'num_4', 'num_1', 'num_0']",['num_1'],num_1,[3],'num_1',images/min3.png,"[(0.45, 0.79)]",,,,,0,5,5,5,4,3,19,2,,,,,,,,,,,,,"(0.25, -0.04)",images/min3.png,6,0.0514924916952,0.587572682021,[-0.3765625   0.03611111],,,,,,,,,['num_1'],,,,2018_Jul_01_1238,59.9709433209,sequenceLearningTask,001,164,
min1.png,min2.png,min3.png,min4.png,allBlank.png,"['num_7', 'num_4', 'num_1', 'num_0']",['num_1'],num_1,[3],'num_1',images/min3.png,"[(0.45, 0.79)]",,,,,0,5,5,5,4,3,19,2,,,,,,,,,,,,,"(0.75, -0.04)",images/min4.png,6,0.0698949456837,1.4038710138,[ 0.1578125  -0.11666667],,,,,,,,,['num_1'],,,,2018_Jul_01_1238,59.9709433209,sequenceLearningTask,001,164,
min1.png,min2.png,min3.png,min4.png,allBlank.png,"['num_7', 'num_4', 'num_1', 'num_0']",['num_1'],num_1,[3],'num_1',images/min3.png,"[(0.45, 0.79)]",,,,,0,6,6,6,4,3,19,2,,,,,,,,,,,,,"(-0.75, -0.04)",images/min1.png,7,0.0543638751333,0.787714548629,[ 0.75       -0.16944444],,,,,,,,,['num_1'],,,,2018_Jul_01_1238,59.9709433209,sequenceLearningTask,001,164,
min1.png,min2.png,min3.png,min4.png,allBlank.png,"['num_7', 'num_4', 'num_1', 'num_0']",['num_1'],num_1,[3],'num_1',images/min3.png,"[(0.45, 0.79)]",,,,,0,6,6,6,4,3,19,2,,,,,,,,,,,,,"(0.25, -0.04)",images/min3.png,7,0.0508910560438,0.585312580384,[-0.696875 -0.2     ],,,,,,,,,['num_1'],,,,2018_Jul_01_1238,59.9709433209,sequenceLearningTask,001,164,
min1.png,min2.png,min3.png,min4.png,allBlank.png,"['num_7', 'num_4', 'num_1', 'num_0']",['num_1'],num_1,[3],'num_1',images/min3.png,"[(0.45, 0.79)]",,,,,0,6,6,6,4,3,19,2,,,,,,,,,,,,,"(-0.25, -0.04)",images/min2.png,7,0.0521681837254,0.617901695219,[ 0.2140625  -0.17222222],,,,,,,,,['num_1'],,,,2018_Jul_01_1238,59.9709433209,sequenceLearningTask,001,164,
min1.png,min2.png,min3.png,min4.png,allBlank.png,"['num_7', 'num_4', 'num_1', 'num_0']",['num_1'],num_1,[3],'num_1',images/min3.png,"[(0.45, 0.79)]",,,,,0,6,6,6,4,3,19,2,,,,,,,,,,,,,"(0.75, -0.04)",images/min4.png,7,0.0623925897889,0.480401033681,[-0.190625   -0.21388889],,,,,,,,,['num_1'],,,,2018_Jul_01_1238,59.9709433209,sequenceLearningTask,001,164,
min1.png,min2.png,min3.png,min4.png,allBlank.png,"['num_7', 'num_4', 'num_1', 'num_0']",['num_1'],num_1,[3],'num_1',images/min3.png,"[(0.45, 0.79)]",,,,,0,6,6,6,4,3,19,2,,,,,,,,,,,,,"(0.75, -0.04)",images/min4.png,7,0.0574498225833,0.718645859017,[ 0.7234375  -0.18611111],,,,,,,,,['num_1'],,,,2018_Jul_01_1238,59.9709433209,sequenceLearningTask,001,164,
min1.png,min2.png,min3.png,min4.png,allBlank.png,"['num_7', 'num_4', 'num_1', 'num_0']",['num_1'],num_1,[3],'num_1',images/min3.png,"[(0.45, 0.79)]",,,,,0,6,6,6,4,3,19,2,,,,,,,,,,,,,"(-0.25, -0.04)",images/min2.png,7,0.0601673599303,0.761157021065,[ 0.6953125  -0.04722222],0.711948425867,1,,,,,,,['num_1'],,,,2018_Jul_01_1238,59.9709433209,sequenceLearningTask,001,164,
min1.png,min2.png,min3.png,min4.png,allBlank.png,"['num_7', 'num_4', 'num_1', 'num_0']",['num_1'],num_1,[3],'num_1',images/min3.png,"[(0.45, 0.79)]",,,,,0,6,6,6,4,3,19,2,,,,,,,,,,,,,"(0.25, -0.04)",images/min3.png,7,0.0690986383197,0.468051910542,[-0.365625   -0.09166667],,,,,,,,,['num_1'],,,,2018_Jul_01_1238,59.9709433209,sequenceLearningTask,001,164,
min1.png,min2.png,min3.png,min4.png,allBlank.png,"['num_7', 'num_4', 'num_1', 'num_0']",['num_1'],num_1,[3],'num_1',images/min3.png,"[(0.45, 0.79)]",,,,,0,6,6,6,4,3,19,2,,,,,,,,,,,,,"(0.75, -0.04)",images/min4.png,7,0.0543954648638,3.73390739122,[ 0.2328125  -0.15555556],1.37082979658,1,,,,,,,['num_1'],,,,2018_Jul_01_1238,59.9709433209,sequenceLearningTask,001,164,
min1.png,min2.png,min3.png,min4.png,allBlank.png,"['num_7', 'num_4', 'num_1', 'num_0']",['num_1'],num_1,[3],'num_1',images/min3.png,"[(0.45, 0.79)]",,,,,0,7,7,7,4,3,19,2,,,,,,,,,,,,,"(-0.75, -0.04)",images/min1.png,8,0.0213050169023,0.666467418885,[ 0.703125   -0.05277778],0.203482993444,1,,,,,,,['num_1'],,,,2018_Jul_01_1238,59.9709433209,sequenceLearningTask,001,164,
min1.png,min2.png,min3.png,min4.png,allBlank.png,"['num_7', 'num_4', 'num_1', 'num_0']",['num_1'],num_1,[3],'num_1',images/min3.png,"[(0.45, 0.79)]",,,,,0,7,7,7,4,3,19,2,,,,,,,,,,,,,"(0.25, -0.04)",images/min3.png,8,0.0580586428478,0.397925990594,[-0.71875    -0.07222222],0.150737579184,1,,,,,,,['num_1'],,,,2018_Jul_01_1238,59.9709433209,sequenceLearningTask,001,164,
min1.png,min2.png,min3.png,min4.png,allBlank.png,"['num_7', 'num_4', 'num_1', 'num_0']",['num_1'],num_1,[3],'num_1',images/min3.png,"[(0.45, 0.79)]",,,,,0,7,7,7,4,3,19,2,,,,,,,,,,,,,"(-0.25, -0.04)",images/min2.png,8,0.0641591531657,0.663527522654,[ 0.2671875  -0.24166667],0.359609288365,1,,,,,,,['num_1'],,,,2018_Jul_01_1238,59.9709433209,sequenceLearningTask,001,164,
min1.png,min2.png,min3.png,min4.png,allBlank.png,"['num_7', 'num_4', 'num_1', 'num_0']",['num_1'],num_1,[3],'num_1',images/min3.png,"[(0.45, 0.79)]",,,,,0,7,7,7,4,3,19,2,,,,,,,,,,,,,"(0.75, -0.04)",images/min4.png,8,0.0588188476631,0.845598422318,[-0.1921875  -0.14444444],0.612250415488,1,,,,,,,['num_1'],,,,2018_Jul_01_1238,59.9709433209,sequenceLearningTask,001,164,
min1.png,min2.png,min3.png,min4.png,allBlank.png,"['num_7', 'num_4', 'num_1', 'num_0']",['num_1'],num_1,[3],'num_1',images/min3.png,"[(0.45, 0.79)]",,,,,0,7,7,7,4,3,19,2,,,,,,,,,,,,,"(0.75, -0.04)",images/min4.png,8,0.0514826455455,1.0407105474,[ 0.6921875   0.00555556],0.770637222302,1,,,,,,,['num_1'],,,,2018_Jul_01_1238,59.9709433209,sequenceLearningTask,001,164,
min1.png,min2.png,min3.png,min4.png,allBlank.png,"['num_7', 'num_4', 'num_1', 'num_0']",['num_1'],num_1,[3],'num_1',images/min3.png,"[(0.45, 0.79)]",,,,,0,7,7,7,4,3,19,2,,,,,,,,,,,,,"(-0.25, -0.04)",images/min2.png,8,0.052402850295,0.622072770431,[ 0.7703125  -0.13055556],0.366431849669,1,,,,,,,['num_1'],,,,2018_Jul_01_1238,59.9709433209,sequenceLearningTask,001,164,
min1.png,min2.png,min3.png,min4.png,allBlank.png,"['num_7', 'num_4', 'num_1', 'num_0']",['num_1'],num_1,[3],'num_1',images/min3.png,"[(0.45, 0.79)]",,,,,0,7,7,7,4,3,19,2,,,,,,,,,,,,,"(0.25, -0.04)",images/min3.png,8,0.0574974123083,1.31942592024,[-0.1421875  -0.01666667],0.953343608884,1,,,,,,,['num_1'],,,,2018_Jul_01_1238,59.9709433209,sequenceLearningTask,001,164,
min1.png,min2.png,min3.png,min4.png,allBlank.png,"['num_7', 'num_4', 'num_1', 'num_0']",['num_1'],num_1,[3],'num_1',images/min3.png,"[(0.45, 0.79)]",,,,,0,7,7,7,4,3,19,2,,,,,,,,,,,,,"(0.75, -0.04)",images/min4.png,8,0.0553804900992,1.0705267403,[ 0.3265625   0.06944444],,,,,,,,,['num_1'],,,,2018_Jul_01_1238,59.9709433209,sequenceLearningTask,001,164,
min1.png,min2.png,min3.png,min4.png,allBlank.png,"['num_7', 'num_4', 'num_1', 'num_0']",['num_1'],num_1,[3],'num_1',images/min3.png,"[(0.45, 0.79)]",,,,,0,8,8,8,4,3,19,2,,,,,,,,,,,,,"(-0.75, -0.04)",images/min1.png,9,0.0543043879788,1.75660727934,[ 0.7140625  -0.11944444],1.30608028468,1,,,,,,,['num_1'],,,,2018_Jul_01_1238,59.9709433209,sequenceLearningTask,001,164,
min1.png,min2.png,min3.png,min4.png,allBlank.png,"['num_7', 'num_4', 'num_1', 'num_0']",['num_1'],num_1,[3],'num_1',images/min3.png,"[(0.45, 0.79)]",,,,,0,8,8,8,4,3,19,2,,,,,,,,,,,,,"(0.25, -0.04)",images/min3.png,9,0.0565312588587,0.61947256637,[-0.7890625  -0.08055556],,,,,,,,,['num_1'],,,,2018_Jul_01_1238,59.9709433209,sequenceLearningTask,001,164,
min1.png,min2.png,min3.png,min4.png,allBlank.png,"['num_7', 'num_4', 'num_1', 'num_0']",['num_1'],num_1,[3],'num_1',images/min3.png,"[(0.45, 0.79)]",,,,,0,8,8,8,4,3,19,2,,,,,,,,,,,,,"(-0.25, -0.04)",images/min2.png,9,0.0618465387306,0.699886482098,[ 0.2671875 -0.225    ],,,,,,,,,['num_1'],,,,2018_Jul_01_1238,59.9709433209,sequenceLearningTask,001,164,
min1.png,min2.png,min3.png,min4.png,allBlank.png,"['num_7', 'num_4', 'num_1', 'num_0']",['num_1'],num_1,[3],'num_1',images/min3.png,"[(0.45, 0.79)]",,,,,0,8,8,8,4,3,19,2,,,,,,,,,,,,,"(0.75, -0.04)",images/min4.png,9,0.0599663343728,0.701236225135,[-0.2546875  -0.11944444],,,,,,,,,['num_1'],,,,2018_Jul_01_1238,59.9709433209,sequenceLearningTask,001,164,
min1.png,min2.png,min3.png,min4.png,allBlank.png,"['num_7', 'num_4', 'num_1', 'num_0']",['num_1'],num_1,[3],'num_1',images/min3.png,"[(0.45, 0.79)]",,,,,0,8,8,8,4,3,19,2,,,,,,,,,,,,,"(0.75, -0.04)",images/min4.png,9,0.047515467686,0.562138846302,[ 0.7046875  -0.21666667],,,,,,,,,['num_1'],,,,2018_Jul_01_1238,59.9709433209,sequenceLearningTask,001,164,
min1.png,min2.png,min3.png,min4.png,allBlank.png,"['num_7', 'num_4', 'num_1', 'num_0']",['num_1'],num_1,[3],'num_1',images/min3.png,"[(0.45, 0.79)]",,,,,0,8,8,8,4,3,19,2,,,,,,,,,,,,,"(-0.25, -0.04)",images/min2.png,9,0.0544332084373,0.892108351954,[ 0.6328125  -0.21388889],,,,,,,,,['num_1'],,,,2018_Jul_01_1238,59.9709433209,sequenceLearningTask,001,164,
min1.png,min2.png,min3.png,min4.png,allBlank.png,"['num_7', 'num_4', 'num_1', 'num_0']",['num_1'],num_1,[3],'num_1',images/min3.png,"[(0.45, 0.79)]",,,,,0,8,8,8,4,3,19,2,,,,,,,,,,,,,"(0.25, -0.04)",images/min3.png,9,0.0586416169681,1.38833173812,[-0.2484375  -0.29722222],1.03581208787,1,,,,,,,['num_1'],,,,2018_Jul_01_1238,59.9709433209,sequenceLearningTask,001,164,
min1.png,min2.png,min3.png,min4.png,allBlank.png,"['num_7', 'num_4', 'num_1', 'num_0']",['num_1'],num_1,[3],'num_1',images/min3.png,"[(0.45, 0.79)]",,,,,0,8,8,8,4,3,19,2,,,,,,,,,,,,,"(0.75, -0.04)",images/min4.png,9,0.0554272593126,0.806090746219,[ 0.21875    -0.15833333],,,,,,,,,['num_1'],,,,2018_Jul_01_1238,59.9709433209,sequenceLearningTask,001,164,
min1.png,min2.png,min3.png,min4.png,allBlank.png,"['num_7', 'num_4', 'num_1', 'num_0']",['num_1'],num_1,[3],'num_1',images/min3.png,"[(0.45, 0.79)]",,,,,0,9,9,9,4,3,19,2,,,,,,,,,,,,,"(-0.75, -0.04)",images/min1.png,10,0.0511962866894,0.88623799539,[ 0.665625   -0.28333333],,,,,,,,,['num_1'],,,,2018_Jul_01_1238,59.9709433209,sequenceLearningTask,001,164,
min1.png,min2.png,min3.png,min4.png,allBlank.png,"['num_7', 'num_4', 'num_1', 'num_0']",['num_1'],num_1,[3],'num_1',images/min3.png,"[(0.45, 0.79)]",,,,,0,9,9,9,4,3,19,2,,,,,,,,,,,,,"(0.25, -0.04)",images/min3.png,10,0.0564988486167,0.534837524168,[-0.6890625  -0.14722222],,,,,,,,,['num_1'],,,,2018_Jul_01_1238,59.9709433209,sequenceLearningTask,001,164,
min1.png,min2.png,min3.png,min4.png,allBlank.png,"['num_7', 'num_4', 'num_1', 'num_0']",['num_1'],num_1,[3],'num_1',images/min3.png,"[(0.45, 0.79)]",,,,,0,9,9,9,4,3,19,2,,,,,,,,,,,,,"(-0.25, -0.04)",images/min2.png,10,0.0565845921701,0.617587438939,[ 0.271875   -0.18055556],,,,,,,,,['num_1'],,,,2018_Jul_01_1238,59.9709433209,sequenceLearningTask,001,164,
min1.png,min2.png,min3.png,min4.png,allBlank.png,"['num_7', 'num_4', 'num_1', 'num_0']",['num_1'],num_1,[3],'num_1',images/min3.png,"[(0.45, 0.79)]",,,,,0,9,9,9,4,3,19,2,,,,,,,,,,,,,"(0.75, -0.04)",images/min4.png,10,0.0533267473529,0.556807156183,[-0.2890625  -0.04166667],,,,,,,,,['num_1'],,,,2018_Jul_01_1238,59.9709433209,sequenceLearningTask,001,164,
min1.png,min2.png,min3.png,min4.png,allBlank.png,"['num_7', 'num_4', 'num_1', 'num_0']",['num_1'],num_1,[3],'num_1',images/min3.png,"[(0.45, 0.79)]",,,,,0,9,9,9,4,3,19,2,,,,,,,,,,,,,"(0.75, -0.04)",images/min4.png,10,0.0555527977231,0.435423821364,[ 0.69375    -0.26944444],,,,,,,,,['num_1'],,,,2018_Jul_01_1238,59.9709433209,sequenceLearningTask,001,164,
min1.png,min2.png,min3.png,min4.png,allBlank.png,"['num_7', 'num_4', 'num_1', 'num_0']",['num_1'],num_1,[3],'num_1',images/min3.png,"[(0.45, 0.79)]",,,,,0,9,9,9,4,3,19,2,,,,,,,,,,,,,"(-0.25, -0.04)",images/min2.png,10,0.0622531026638,0.918543212905,[ 0.7390625 -0.25     ],,,,,,,,,['num_1'],,,,2018_Jul_01_1238,59.9709433209,sequenceLearningTask,001,164,
min1.png,min2.png,min3.png,min4.png,allBlank.png,"['num_7', 'num_4', 'num_1', 'num_0']",['num_1'],num_1,[3],'num_1',images/min3.png,"[(0.45, 0.79)]",,,,,0,9,9,9,4,3,19,2,,,,,,,,,,,,,"(0.25, -0.04)",images/min3.png,10,0.0614420260754,0.440779306346,[-0.2578125  -0.13611111],,,,,,,,,['num_1'],,,,2018_Jul_01_1238,59.9709433209,sequenceLearningTask,001,164,
min1.png,min2.png,min3.png,min4.png,allBlank.png,"['num_7', 'num_4', 'num_1', 'num_0']",['num_1'],num_1,[3],'num_1',images/min3.png,"[(0.45, 0.79)]",,,,,0,9,9,9,4,3,19,2,,,,,,,,,,,,,"(0.75, -0.04)",images/min4.png,10,0.0644516658667,1.3150431528,[ 0.2578125  -0.19722222],,,,,,,,,['num_1'],,,,2018_Jul_01_1238,59.9709433209,sequenceLearningTask,001,164,
min1.png,min2.png,min3.png,min4.png,allBlank.png,"['num_7', 'num_4', 'num_1', 'num_0']",['num_1'],num_1,[3],'num_1',images/min3.png,"[(0.45, 0.79)]",,,,,0,9,9,9,4,3,19,2,0,-1,-1,0,,,,,,,,,,,,,,,,,,,,,,,['num_1'],,,,2018_Jul_01_1238,59.9709433209,sequenceLearningTask,001,164,
min1.png,min2.png,min3.png,min4.png,allBlank.png,"['num_7', 'num_4', 'num_1', 'num_0']",['num_1'],num_1,[3],'num_1',images/min3.png,"[(0.45, 0.79)]",,,,,0,9,9,9,4,3,19,2,0,-1,-1,0,,,,,,,,,,,,,,,,,,['1'],,,,,['num_1'],,,,2018_Jul_01_1238,59.9709433209,sequenceLearningTask,001,164,
min1.png,min2.png,min3.png,min4.png,allBlank.png,"['num_7', 'num_4', 'num_1', 'num_0']",['num_1'],num_1,[3],'num_1',images/min3.png,"[(0.45, 0.79)]",,,,,0,9,9,9,4,3,19,2,0,-1,-1,0,,,,,,,,,,,,,,,,,,['1'],,,,,['num_1'],,,,2018_Jul_01_1238,59.9709433209,sequenceLearningTask,001,164,
