pawPatrol1,pawPatrol2,pawPatrol3,pawPatrol4,blank,allowableKey,correctKey,correctKeyPressNum,posLoc,correctKeyPress,randomPaw,im_size,trials.thisRepN,trials.thisTrialN,trials.thisN,trials.thisIndex,trials_3.thisRepN,trials_3.thisTrialN,trials_3.thisN,trials_3.thisIndex,trials_2.thisRepN,trials_2.thisTrialN,trials_2.thisN,trials_2.thisIndex,trials_questions.thisRepN,trials_questions.thisTrialN,trials_questions.thisN,trials_questions.thisIndex,trials_test.thisRepN,trials_test.thisTrialN,trials_test.thisN,trials_test.thisIndex,trials_recogtest.thisRepN,trials_recogtest.thisTrialN,trials_recogtest.thisN,trials_recogtest.thisIndex,correctLocation,correctImage,repetitionNumber,stimulusPresent.t,responseTimeCorrect,pressLoc,anticipatoryResponse,responseTimeIncorrect,trialIncorrect,questionsResponses,AnswerFinished.keys,AnswerFinished.rt,RecordAnswer.keys,correctKey,trialCorrect,recallResponse,recallResponseTime,date,frameRate,expName,session,participant,
min1.png,min2.png,min3.png,min4.png,allBlank.png,,,,,,,,,,,,0,0,0,0,,,,,,,,,,,,,,,,,"(-0.75, -0.04)",images/min1.png,1,0.0370789590525,0.678473978071,[ 0.7359375  -0.19166667],,,,,,,,,,,,2018_Jul_08_1221,60.3423980887,sequenceLearningTask,001,160,
min1.png,min2.png,min3.png,min4.png,allBlank.png,,,,,,,,,,,,0,0,0,0,,,,,,,,,,,,,,,,,"(0.25, -0.04)",images/min3.png,1,0.0614941286622,0.532135166344,[-0.6546875  -0.14444444],,,,,,,,,,,,2018_Jul_08_1221,60.3423980887,sequenceLearningTask,001,160,
min1.png,min2.png,min3.png,min4.png,allBlank.png,,,,,,,,,,,,0,0,0,0,,,,,,,,,,,,,,,,,"(-0.25, -0.04)",images/min2.png,1,0.0629127946449,0.496618052595,[ 0.2890625   0.08055556],,,,,,,,,,,,2018_Jul_08_1221,60.3423980887,sequenceLearningTask,001,160,
min1.png,min2.png,min3.png,min4.png,allBlank.png,,,,,,,,,,,,0,0,0,0,,,,,,,,,,,,,,,,,"(0.75, -0.04)",images/min4.png,1,0.0613132056314,0.60310662433,[-0.225       0.03611111],,,,,,,,,,,,2018_Jul_08_1221,60.3423980887,sequenceLearningTask,001,160,
min1.png,min2.png,min3.png,min4.png,allBlank.png,,,,,,,,,,,,0,0,0,0,,,,,,,,,,,,,,,,,"(0.75, -0.04)",images/min4.png,1,0.0610949492548,0.666904341779,[ 0.7421875   0.10833333],,,,,,,,,,,,2018_Jul_08_1221,60.3423980887,sequenceLearningTask,001,160,
min1.png,min2.png,min3.png,min4.png,allBlank.png,,,,,,,,,,,,0,0,0,0,,,,,,,,,,,,,,,,,"(-0.25, -0.04)",images/min2.png,1,0.0594970012316,0.480024008197,[ 0.759375  0.025   ],,,,,,,,,,,,2018_Jul_08_1221,60.3423980887,sequenceLearningTask,001,160,
min1.png,min2.png,min3.png,min4.png,allBlank.png,,,,,,,,,,,,0,0,0,0,,,,,,,,,,,,,,,,,"(0.25, -0.04)",images/min3.png,1,0.0570879766019,0.546387878363,[-0.2234375   0.03611111],,,,,,,,,,,,2018_Jul_08_1221,60.3423980887,sequenceLearningTask,001,160,
min1.png,min2.png,min3.png,min4.png,allBlank.png,,,,,,,,,,,,0,0,0,0,,,,,,,,,,,,,,,,,"(0.75, -0.04)",images/min4.png,1,0.0565735152923,0.622843231657,[ 0.2109375  0.       ],,,,,,,,,,,,2018_Jul_08_1221,60.3423980887,sequenceLearningTask,001,160,
min1.png,min2.png,min3.png,min4.png,allBlank.png,,,,,,,,,,,,0,1,1,1,,,,,,,,,,,,,,,,,"(-0.75, -0.04)",images/min1.png,2,0.0584192579845,0.649833989795,[ 0.7546875   0.06388889],,,,,,,,,,,,2018_Jul_08_1221,60.3423980887,sequenceLearningTask,001,160,
min1.png,min2.png,min3.png,min4.png,allBlank.png,,,,,,,,,,,,0,1,1,1,,,,,,,,,,,,,,,,,"(0.25, -0.04)",images/min3.png,2,0.054879156989,0.516981941764,[-0.7265625  -0.04722222],,,,,,,,,,,,2018_Jul_08_1221,60.3423980887,sequenceLearningTask,001,160,
min1.png,min2.png,min3.png,min4.png,allBlank.png,,,,,,,,,,,,0,1,1,1,,,,,,,,,,,,,,,,,"(-0.25, -0.04)",images/min2.png,2,0.0570727970917,0.854599444312,[ 0.3109375  -0.01944444],,,,,,,,,,,,2018_Jul_08_1221,60.3423980887,sequenceLearningTask,001,160,
min1.png,min2.png,min3.png,min4.png,allBlank.png,,,,,,,,,,,,0,1,1,1,,,,,,,,,,,,,,,,,"(0.75, -0.04)",images/min4.png,2,0.0535745421657,0.489014363498,[-0.0984375  -0.06666667],,,,,,,,,,,,2018_Jul_08_1221,60.3423980887,sequenceLearningTask,001,160,
min1.png,min2.png,min3.png,min4.png,allBlank.png,,,,,,,,,,,,0,1,1,1,,,,,,,,,,,,,,,,,"(0.75, -0.04)",images/min4.png,2,0.0520578247961,0.640740660252,[ 0.7375     -0.06666667],,,,,,,,,,,,2018_Jul_08_1221,60.3423980887,sequenceLearningTask,001,160,
min1.png,min2.png,min3.png,min4.png,allBlank.png,,,,,,,,,,,,0,1,1,1,,,,,,,,,,,,,,,,,"(-0.25, -0.04)",images/min2.png,2,0.0576611044817,0.46943775611,[ 0.7609375   0.01111111],,,,,,,,,,,,2018_Jul_08_1221,60.3423980887,sequenceLearningTask,001,160,
min1.png,min2.png,min3.png,min4.png,allBlank.png,,,,,,,,,,,,0,1,1,1,,,,,,,,,,,,,,,,,"(0.25, -0.04)",images/min3.png,2,0.0568967971485,0.536044087843,[-0.221875    0.06944444],,,,,,,,,,,,2018_Jul_08_1221,60.3423980887,sequenceLearningTask,001,160,
min1.png,min2.png,min3.png,min4.png,allBlank.png,,,,,,,,,,,,0,1,1,1,,,,,,,,,,,,,,,,,"(0.75, -0.04)",images/min4.png,2,0.0587519760011,0.434320642264,[ 0.271875   -0.01111111],,,,,,,,,,,,2018_Jul_08_1221,60.3423980887,sequenceLearningTask,001,160,
min1.png,min2.png,min3.png,min4.png,allBlank.png,,,,,,,,,,,,0,2,2,2,,,,,,,,,,,,,,,,,"(-0.75, -0.04)",images/min1.png,3,0.0588709501317,0.613490209798,[ 0.7015625  -0.05277778],,,,,,,,,,,,2018_Jul_08_1221,60.3423980887,sequenceLearningTask,001,160,
min1.png,min2.png,min3.png,min4.png,allBlank.png,,,,,,,,,,,,0,2,2,2,,,,,,,,,,,,,,,,,"(0.25, -0.04)",images/min3.png,3,0.0587897194782,0.547283467837,[-0.8015625  -0.12222222],,,,,,,,,,,,2018_Jul_08_1221,60.3423980887,sequenceLearningTask,001,160,
min1.png,min2.png,min3.png,min4.png,allBlank.png,,,,,,,,,,,,0,2,2,2,,,,,,,,,,,,,,,,,"(-0.25, -0.04)",images/min2.png,3,0.054811464739,0.46566832182,[ 0.2984375  -0.05277778],,,,,,,,,,,,2018_Jul_08_1221,60.3423980887,sequenceLearningTask,001,160,
min1.png,min2.png,min3.png,min4.png,allBlank.png,,,,,,,,,,,,0,2,2,2,,,,,,,,,,,,,,,,,"(0.75, -0.04)",images/min4.png,3,0.0538867472205,0.516511788126,[-0.2515625  -0.00833333],,,,,,,,,,,,2018_Jul_08_1221,60.3423980887,sequenceLearningTask,001,160,
min1.png,min2.png,min3.png,min4.png,allBlank.png,,,,,,,,,,,,0,2,2,2,,,,,,,,,,,,,,,,,"(0.75, -0.04)",images/min4.png,3,0.0555618234212,0.655938602635,[ 0.765625    0.06388889],,,,,,,,,,,,2018_Jul_08_1221,60.3423980887,sequenceLearningTask,001,160,
min1.png,min2.png,min3.png,min4.png,allBlank.png,,,,,,,,,,,,0,2,2,2,,,,,,,,,,,,,,,,,"(-0.25, -0.04)",images/min2.png,3,0.0574161815457,0.600335343508,[ 0.753125    0.13055556],,,,,,,,,,,,2018_Jul_08_1221,60.3423980887,sequenceLearningTask,001,160,
min1.png,min2.png,min3.png,min4.png,allBlank.png,,,,,,,,,,,,0,2,2,2,,,,,,,,,,,,,,,,,"(0.25, -0.04)",images/min3.png,3,0.0506293126382,0.473704420961,[-0.2734375   0.03333333],,,,,,,,,,,,2018_Jul_08_1221,60.3423980887,sequenceLearningTask,001,160,
min1.png,min2.png,min3.png,min4.png,allBlank.png,,,,,,,,,,,,0,2,2,2,,,,,,,,,,,,,,,,,"(0.75, -0.04)",images/min4.png,3,0.0649361785036,0.609842621605,[ 0.275      -0.01388889],,,,,,,,,,,,2018_Jul_08_1221,60.3423980887,sequenceLearningTask,001,160,
min1.png,min2.png,min3.png,min4.png,allBlank.png,,,,,,,,,,,,0,3,3,3,,,,,,,,,,,,,,,,,"(-0.75, -0.04)",images/min1.png,4,0.0571400790941,0.719424525276,[ 0.7421875   0.11388889],,,,,,,,,,,,2018_Jul_08_1221,60.3423980887,sequenceLearningTask,001,160,
min1.png,min2.png,min3.png,min4.png,allBlank.png,,,,,,,,,,,,0,3,3,3,,,,,,,,,,,,,,,,,"(0.25, -0.04)",images/min3.png,4,0.0574826430529,0.548956902931,[-0.68125    -0.04722222],,,,,,,,,,,,2018_Jul_08_1221,60.3423980887,sequenceLearningTask,001,160,
min1.png,min2.png,min3.png,min4.png,allBlank.png,,,,,,,,,,,,0,3,3,3,,,,,,,,,,,,,,,,,"(-0.25, -0.04)",images/min2.png,4,0.057480591815,0.579045916209,[ 0.2953125  -0.14166667],,,,,,,,,,,,2018_Jul_08_1221,60.3423980887,sequenceLearningTask,001,160,
min1.png,min2.png,min3.png,min4.png,allBlank.png,,,,,,,,,,,,0,3,3,3,,,,,,,,,,,,,,,,,"(0.75, -0.04)",images/min4.png,4,0.0575917712413,0.486618056777,[-0.2046875  -0.11388889],,,,,,,,,,,,2018_Jul_08_1221,60.3423980887,sequenceLearningTask,001,160,
min1.png,min2.png,min3.png,min4.png,allBlank.png,,,,,,,,,,,,0,3,3,3,,,,,,,,,,,,,,,,,"(0.75, -0.04)",images/min4.png,4,0.0616184362443,0.666163419024,[ 0.6640625 -0.15     ],,,,,,,,,,,,2018_Jul_08_1221,60.3423980887,sequenceLearningTask,001,160,
min1.png,min2.png,min3.png,min4.png,allBlank.png,,,,,,,,,,,,0,3,3,3,,,,,,,,,,,,,,,,,"(-0.25, -0.04)",images/min2.png,4,0.0582654119935,0.500814973959,[ 0.7765625   0.11388889],,,,,,,,,,,,2018_Jul_08_1221,60.3423980887,sequenceLearningTask,001,160,
min1.png,min2.png,min3.png,min4.png,allBlank.png,,,,,,,,,,,,0,3,3,3,,,,,,,,,,,,,,,,,"(0.25, -0.04)",images/min3.png,4,0.0620783334598,0.474243087578,[-0.2515625  -0.04444444],,,,,,,,,,,,2018_Jul_08_1221,60.3423980887,sequenceLearningTask,001,160,
min1.png,min2.png,min3.png,min4.png,allBlank.png,,,,,,,,,,,,0,3,3,3,,,,,,,,,,,,,,,,,"(0.75, -0.04)",images/min4.png,4,0.0556356695015,0.480793648981,[ 0.2953125  -0.05555556],,,,,,,,,,,,2018_Jul_08_1221,60.3423980887,sequenceLearningTask,001,160,
min1.png,min2.png,min3.png,min4.png,allBlank.png,,,,,,,,,,,,0,4,4,4,,,,,,,,,,,,,,,,,"(-0.75, -0.04)",images/min1.png,5,0.0613431542879,0.642004249385,[ 0.6640625  -0.03611111],,,,,,,,,,,,2018_Jul_08_1221,60.3423980887,sequenceLearningTask,001,160,
min1.png,min2.png,min3.png,min4.png,allBlank.png,,,,,,,,,,,,0,4,4,4,,,,,,,,,,,,,,,,,"(0.25, -0.04)",images/min3.png,5,0.0589534117607,0.465679808985,[-0.7203125  -0.18055556],,,,,,,,,,,,2018_Jul_08_1221,60.3423980887,sequenceLearningTask,001,160,
min1.png,min2.png,min3.png,min4.png,allBlank.png,,,,,,,,,,,,0,4,4,4,,,,,,,,,,,,,,,,,"(-0.25, -0.04)",images/min2.png,5,0.0591043860186,0.53349516564,[ 0.2609375  -0.11388889],,,,,,,,,,,,2018_Jul_08_1221,60.3423980887,sequenceLearningTask,001,160,
min1.png,min2.png,min3.png,min4.png,allBlank.png,,,,,,,,,,,,0,4,4,4,,,,,,,,,,,,,,,,,"(0.75, -0.04)",images/min4.png,5,0.059963462525,0.449566995027,[-0.1921875  -0.20277778],,,,,,,,,,,,2018_Jul_08_1221,60.3423980887,sequenceLearningTask,001,160,
min1.png,min2.png,min3.png,min4.png,allBlank.png,,,,,,,,,,,,0,4,4,4,,,,,,,,,,,,,,,,,"(0.75, -0.04)",images/min4.png,5,0.0548286954872,0.467774577322,[ 0.7171875 -0.075    ],,,,,,,,,,,,2018_Jul_08_1221,60.3423980887,sequenceLearningTask,001,160,
min1.png,min2.png,min3.png,min4.png,allBlank.png,,,,,,,,,,,,0,4,4,4,,,,,,,,,,,,,,,,,"(-0.25, -0.04)",images/min2.png,5,0.0670896135271,0.725318266544,[ 0.76875 -0.05   ],,,,,,,,,,,,2018_Jul_08_1221,60.3423980887,sequenceLearningTask,001,160,
min1.png,min2.png,min3.png,min4.png,allBlank.png,,,,,,,,,,,,0,4,4,4,,,,,,,,,,,,,,,,,"(0.25, -0.04)",images/min3.png,5,0.0582531042164,0.461373759434,[-0.3703125  -0.14166667],,,,,,,,,,,,2018_Jul_08_1221,60.3423980887,sequenceLearningTask,001,160,
min1.png,min2.png,min3.png,min4.png,allBlank.png,,,,,,,,,,,,0,4,4,4,,,,,,,,,,,,,,,,,"(0.75, -0.04)",images/min4.png,5,0.0498453128384,0.620249591768,[ 0.2875     -0.10833333],,,,,,,,,,,,2018_Jul_08_1221,60.3423980887,sequenceLearningTask,001,160,
min1.png,min2.png,min3.png,min4.png,allBlank.png,,,,,,,,,,,,0,5,5,5,,,,,,,,,,,,,,,,,"(-0.75, -0.04)",images/min1.png,6,0.0563893101644,0.551591978758,[ 0.6828125   0.05833333],,,,,,,,,,,,2018_Jul_08_1221,60.3423980887,sequenceLearningTask,001,160,
min1.png,min2.png,min3.png,min4.png,allBlank.png,,,,,,,,,,,,0,5,5,5,,,,,,,,,,,,,,,,,"(0.25, -0.04)",images/min3.png,6,0.0592475654557,0.601312163635,[-0.703125   -0.13055556],,,,,,,,,,,,2018_Jul_08_1221,60.3423980887,sequenceLearningTask,001,160,
min1.png,min2.png,min3.png,min4.png,allBlank.png,,,,,,,,,,,,0,5,5,5,,,,,,,,,,,,,,,,,"(-0.25, -0.04)",images/min2.png,6,0.056181720458,0.472812523949,[ 0.234375  0.025   ],,,,,,,,,,,,2018_Jul_08_1221,60.3423980887,sequenceLearningTask,001,160,
min1.png,min2.png,min3.png,min4.png,allBlank.png,,,,,,,,,,,,0,5,5,5,,,,,,,,,,,,,,,,,"(0.75, -0.04)",images/min4.png,6,0.0577419250039,0.335752477637,[-0.2390625  -0.00833333],,,,,,,,,,,,2018_Jul_08_1221,60.3423980887,sequenceLearningTask,001,160,
min1.png,min2.png,min3.png,min4.png,allBlank.png,,,,,,,,,,,,0,5,5,5,,,,,,,,,,,,,,,,,"(0.75, -0.04)",images/min4.png,6,0.0581956683891,0.113422312425,[ 0.7828125   0.02777778],,,,,,,,,,,,2018_Jul_08_1221,60.3423980887,sequenceLearningTask,001,160,
min1.png,min2.png,min3.png,min4.png,allBlank.png,,,,,,,,,,,,0,5,5,5,,,,,,,,,,,,,,,,,"(-0.25, -0.04)",images/min2.png,6,0.0577300275909,0.478586470359,[ 0.7828125  -0.03055556],,,,,,,,,,,,2018_Jul_08_1221,60.3423980887,sequenceLearningTask,001,160,
min1.png,min2.png,min3.png,min4.png,allBlank.png,,,,,,,,,,,,0,5,5,5,,,,,,,,,,,,,,,,,"(0.25, -0.04)",images/min3.png,6,0.0596844883403,0.399979733396,[-0.26875    -0.00277778],,,,,,,,,,,,2018_Jul_08_1221,60.3423980887,sequenceLearningTask,001,160,
min1.png,min2.png,min3.png,min4.png,allBlank.png,,,,,,,,,,,,0,5,5,5,,,,,,,,,,,,,,,,,"(0.75, -0.04)",images/min4.png,6,0.0609833595809,0.584153196192,[ 0.1828125   0.00555556],,,,,,,,,,,,2018_Jul_08_1221,60.3423980887,sequenceLearningTask,001,160,
min1.png,min2.png,min3.png,min4.png,allBlank.png,,,,,,,,,,,,0,6,6,6,,,,,,,,,,,,,,,,,"(-0.75, -0.04)",images/min1.png,7,0.0569004894933,0.565310126985,[ 0.7609375   0.02222222],,,,,,,,,,,,2018_Jul_08_1221,60.3423980887,sequenceLearningTask,001,160,
min1.png,min2.png,min3.png,min4.png,allBlank.png,,,,,,,,,,,,0,6,6,6,,,,,,,,,,,,,,,,,"(0.25, -0.04)",images/min3.png,7,0.0572020277614,0.351510009612,[-0.7015625  -0.06388889],,,,,,,,,,,,2018_Jul_08_1221,60.3423980887,sequenceLearningTask,001,160,
min1.png,min2.png,min3.png,min4.png,allBlank.png,,,,,,,,,,,,0,6,6,6,,,,,,,,,,,,,,,,,"(-0.25, -0.04)",images/min2.png,7,0.0612894108053,0.413797984016,[ 0.2265625  -0.08611111],,,,,,,,,,,,2018_Jul_08_1221,60.3423980887,sequenceLearningTask,001,160,
min1.png,min2.png,min3.png,min4.png,allBlank.png,,,,,,,,,,,,0,6,6,6,,,,,,,,,,,,,,,,,"(0.75, -0.04)",images/min4.png,7,0.055420695222,0.268715787213,[-0.1671875  -0.05555556],,,,,,,,,,,,2018_Jul_08_1221,60.3423980887,sequenceLearningTask,001,160,
min1.png,min2.png,min3.png,min4.png,allBlank.png,,,,,,,,,,,,0,6,6,6,,,,,,,,,,,,,,,,,"(0.75, -0.04)",images/min4.png,7,0.0494198772358,0.0731212007813,[ 0.7671875  -0.01666667],,,,,,,,,,,,2018_Jul_08_1221,60.3423980887,sequenceLearningTask,001,160,
min1.png,min2.png,min3.png,min4.png,allBlank.png,,,,,,,,,,,,0,6,6,6,,,,,,,,,,,,,,,,,"(-0.25, -0.04)",images/min2.png,7,0.0611417185282,0.239937132341,[ 0.8015625   0.04166667],,,,,,,,,,,,2018_Jul_08_1221,60.3423980887,sequenceLearningTask,001,160,
min1.png,min2.png,min3.png,min4.png,allBlank.png,,,,,,,,,,,,0,6,6,6,,,,,,,,,,,,,,,,,"(0.25, -0.04)",images/min3.png,7,0.0579999762122,0.271768093575,[-0.1125     -0.04722222],,,,,,,,,,,,2018_Jul_08_1221,60.3423980887,sequenceLearningTask,001,160,
min1.png,min2.png,min3.png,min4.png,allBlank.png,,,,,,,,,,,,0,6,6,6,,,,,,,,,,,,,,,,,"(0.75, -0.04)",images/min4.png,7,0.0536943370244,1.02596306626,[ 0.2875     -0.01111111],,,,,,,,,,,,2018_Jul_08_1221,60.3423980887,sequenceLearningTask,001,160,
min1.png,min2.png,min3.png,min4.png,allBlank.png,,,,,,,,,,,,0,7,7,7,,,,,,,,,,,,,,,,,"(-0.75, -0.04)",images/min1.png,8,0.0522777221631,0.47196288337,[ 0.6609375 -0.025    ],,,,,,,,,,,,2018_Jul_08_1221,60.3423980887,sequenceLearningTask,001,160,
min1.png,min2.png,min3.png,min4.png,allBlank.png,,,,,,,,,,,,0,7,7,7,,,,,,,,,,,,,,,,,"(0.25, -0.04)",images/min3.png,8,0.0517456197413,0.590286527062,[-0.7015625 -0.075    ],,,,,,,,,,,,2018_Jul_08_1221,60.3423980887,sequenceLearningTask,001,160,
min1.png,min2.png,min3.png,min4.png,allBlank.png,,,,,,,,,,,,0,7,7,7,,,,,,,,,,,,,,,,,"(-0.25, -0.04)",images/min2.png,8,0.0523187478539,0.338538938086,[ 0.2171875  -0.19722222],,,,,,,,,,,,2018_Jul_08_1221,60.3423980887,sequenceLearningTask,001,160,
min1.png,min2.png,min3.png,min4.png,allBlank.png,,,,,,,,,,,,0,7,7,7,,,,,,,,,,,,,,,,,"(0.75, -0.04)",images/min4.png,8,0.0576516685542,0.00355774210766,[-0.1265625  -0.13333333],1,,,,,,,,,,,2018_Jul_08_1221,60.3423980887,sequenceLearningTask,001,160,
min1.png,min2.png,min3.png,min4.png,allBlank.png,,,,,,,,,,,,0,7,7,7,,,,,,,,,,,,,,,,,"(0.75, -0.04)",images/min4.png,8,0.0685714590363,0.426495825057,[ 0.7328125  -0.09722222],,,,,,,,,,,,2018_Jul_08_1221,60.3423980887,sequenceLearningTask,001,160,
min1.png,min2.png,min3.png,min4.png,allBlank.png,,,,,,,,,,,,0,7,7,7,,,,,,,,,,,,,,,,,"(-0.25, -0.04)",images/min2.png,8,0.0585464375326,0.733928724541,[ 0.7265625  0.025    ],,0.183683617041,1,,,,,,,,,2018_Jul_08_1221,60.3423980887,sequenceLearningTask,001,160,
min1.png,min2.png,min3.png,min4.png,allBlank.png,,,,,,,,,,,,0,7,7,7,,,,,,,,,,,,,,,,,"(0.25, -0.04)",images/min3.png,8,0.0591511551756,0.461268733838,[-0.1890625  -0.13888889],,,,,,,,,,,,2018_Jul_08_1221,60.3423980887,sequenceLearningTask,001,160,
min1.png,min2.png,min3.png,min4.png,allBlank.png,,,,,,,,,,,,0,7,7,7,,,,,,,,,,,,,,,,,"(0.75, -0.04)",images/min4.png,8,0.0588877707487,0.715638680733,[ 0.3015625   0.01111111],,,,,,,,,,,,2018_Jul_08_1221,60.3423980887,sequenceLearningTask,001,160,
min1.png,min2.png,min3.png,min4.png,allBlank.png,,,,,,,,,,,,0,8,8,8,,,,,,,,,,,,,,,,,"(-0.75, -0.04)",images/min1.png,9,0.0508976201527,0.723478267319,[ 0.6828125   0.06944444],,,,,,,,,,,,2018_Jul_08_1221,60.3423980887,sequenceLearningTask,001,160,
min1.png,min2.png,min3.png,min4.png,allBlank.png,,,,,,,,,,,,0,8,8,8,,,,,,,,,,,,,,,,,"(0.25, -0.04)",images/min3.png,9,0.0596873600734,0.502796101384,[-0.6890625 -0.15     ],,,,,,,,,,,,2018_Jul_08_1221,60.3423980887,sequenceLearningTask,001,160,
min1.png,min2.png,min3.png,min4.png,allBlank.png,,,,,,,,,,,,0,8,8,8,,,,,,,,,,,,,,,,,"(-0.25, -0.04)",images/min2.png,9,0.0537948497804,0.623449180042,[ 0.2453125  -0.00555556],,,,,,,,,,,,2018_Jul_08_1221,60.3423980887,sequenceLearningTask,001,160,
min1.png,min2.png,min3.png,min4.png,allBlank.png,,,,,,,,,,,,0,8,8,8,,,,,,,,,,,,,,,,,"(0.75, -0.04)",images/min4.png,9,0.0535388498101,0.270378145506,[-0.2515625  -0.13611111],,,,,,,,,,,,2018_Jul_08_1221,60.3423980887,sequenceLearningTask,001,160,
min1.png,min2.png,min3.png,min4.png,allBlank.png,,,,,,,,,,,,0,8,8,8,,,,,,,,,,,,,,,,,"(0.75, -0.04)",images/min4.png,9,0.0580717710545,0.720742678735,[ 0.55       -0.06666667],,,,,,,,,,,,2018_Jul_08_1221,60.3423980887,sequenceLearningTask,001,160,
min1.png,min2.png,min3.png,min4.png,allBlank.png,,,,,,,,,,,,0,8,8,8,,,,,,,,,,,,,,,,,"(-0.25, -0.04)",images/min2.png,9,0.0563971049851,0.469843909726,[ 0.6921875   0.13611111],,,,,,,,,,,,2018_Jul_08_1221,60.3423980887,sequenceLearningTask,001,160,
min1.png,min2.png,min3.png,min4.png,allBlank.png,,,,,,,,,,,,0,8,8,8,,,,,,,,,,,,,,,,,"(0.25, -0.04)",images/min3.png,9,0.0586104375543,0.416166393319,[-0.1921875  -0.01666667],,,,,,,,,,,,2018_Jul_08_1221,60.3423980887,sequenceLearningTask,001,160,
min1.png,min2.png,min3.png,min4.png,allBlank.png,,,,,,,,,,,,0,8,8,8,,,,,,,,,,,,,,,,,"(0.75, -0.04)",images/min4.png,9,0.0533169012051,0.973477754509,[ 0.240625    0.01944444],,0.175662286929,1,,,,,,,,,2018_Jul_08_1221,60.3423980887,sequenceLearningTask,001,160,
min1.png,min2.png,min3.png,min4.png,allBlank.png,,,,,,,,,,,,0,9,9,9,,,,,,,,,,,,,,,,,"(-0.75, -0.04)",images/min1.png,10,0.0560524899047,0.684837872861,[ 0.796875   -0.01944444],,,,,,,,,,,,2018_Jul_08_1221,60.3423980887,sequenceLearningTask,001,160,
min1.png,min2.png,min3.png,min4.png,allBlank.png,,,,,,,,,,,,0,9,9,9,,,,,,,,,,,,,,,,,"(0.25, -0.04)",images/min3.png,10,0.052599363029,0.5044149725,[-0.65625    -0.04166667],,,,,,,,,,,,2018_Jul_08_1221,60.3423980887,sequenceLearningTask,001,160,
min1.png,min2.png,min3.png,min4.png,allBlank.png,,,,,,,,,,,,0,9,9,9,,,,,,,,,,,,,,,,,"(-0.25, -0.04)",images/min2.png,10,0.0529345424147,0.484968006262,[ 0.34375     0.06944444],,,,,,,,,,,,2018_Jul_08_1221,60.3423980887,sequenceLearningTask,001,160,
min1.png,min2.png,min3.png,min4.png,allBlank.png,,,,,,,,,,,,0,9,9,9,,,,,,,,,,,,,,,,,"(0.75, -0.04)",images/min4.png,10,0.0574691045331,0.424171313178,[-0.2265625   0.05277778],,,,,,,,,,,,2018_Jul_08_1221,60.3423980887,sequenceLearningTask,001,160,
min1.png,min2.png,min3.png,min4.png,allBlank.png,,,,,,,,,,,,0,9,9,9,,,,,,,,,,,,,,,,,"(0.75, -0.04)",images/min4.png,10,0.0430645976448,0.418027315638,[ 0.6953125   0.06388889],,,,,,,,,,,,2018_Jul_08_1221,60.3423980887,sequenceLearningTask,001,160,
min1.png,min2.png,min3.png,min4.png,allBlank.png,,,,,,,,,,,,0,9,9,9,,,,,,,,,,,,,,,,,"(-0.25, -0.04)",images/min2.png,10,0.0612135133706,0.42977172113,[ 0.6953125   0.08611111],,,,,,,,,,,,2018_Jul_08_1221,60.3423980887,sequenceLearningTask,001,160,
min1.png,min2.png,min3.png,min4.png,allBlank.png,,,,,,,,,,,,0,9,9,9,,,,,,,,,,,,,,,,,"(0.25, -0.04)",images/min3.png,10,0.0471802882385,0.414473265875,[-0.2171875  -0.06388889],,,,,,,,,,,,2018_Jul_08_1221,60.3423980887,sequenceLearningTask,001,160,
min1.png,min2.png,min3.png,min4.png,allBlank.png,,,,,,,,,,,,0,9,9,9,,,,,,,,,,,,,,,,,"(0.75, -0.04)",images/min4.png,10,0.0625222307863,0.849736266769,[ 0.1859375   0.05555556],,,,,,,,,,,,2018_Jul_08_1221,60.3423980887,sequenceLearningTask,001,160,
min1.png,min2.png,min3.png,min4.png,allBlank.png,,,,,,,,,,,,0,0,0,0,,,,,,,,,,,,,,,,,"(-0.75, -0.04)",images/min1.png,1,0.0496602873318,0.825401917798,[-0.2109375  -0.05833333],,,,,,,,,,,,2018_Jul_08_1221,60.3423980887,sequenceLearningTask,001,160,
min1.png,min2.png,min3.png,min4.png,allBlank.png,,,,,,,,,,,,0,0,0,0,,,,,,,,,,,,,,,,,"(0.25, -0.04)",images/min3.png,1,0.0515261326218,0.452803506516,[-0.69375    -0.01944444],,,,,,,,,,,,2018_Jul_08_1221,60.3423980887,sequenceLearningTask,001,160,
min1.png,min2.png,min3.png,min4.png,allBlank.png,,,,,,,,,,,,0,0,0,0,,,,,,,,,,,,,,,,,"(-0.25, -0.04)",images/min2.png,1,0.0579019249417,0.368453592411,[ 0.2453125  -0.03333333],,,,,,,,,,,,2018_Jul_08_1221,60.3423980887,sequenceLearningTask,001,160,
min1.png,min2.png,min3.png,min4.png,allBlank.png,,,,,,,,,,,,0,0,0,0,,,,,,,,,,,,,,,,,"(0.75, -0.04)",images/min4.png,1,0.0533735166537,0.536512600491,[-0.2578125   0.06388889],,,,,,,,,,,,2018_Jul_08_1221,60.3423980887,sequenceLearningTask,001,160,
min1.png,min2.png,min3.png,min4.png,allBlank.png,,,,,,,,,,,,0,0,0,0,,,,,,,,,,,,,,,,,"(0.75, -0.04)",images/min4.png,1,0.0581681812182,0.197409970337,[ 0.671875    0.21388889],,,,,,,,,,,,2018_Jul_08_1221,60.3423980887,sequenceLearningTask,001,160,
min1.png,min2.png,min3.png,min4.png,allBlank.png,,,,,,,,,,,,0,0,0,0,,,,,,,,,,,,,,,,,"(-0.25, -0.04)",images/min2.png,1,0.0564184384421,0.57010807388,[ 0.8171875  -0.13888889],,,,,,,,,,,,2018_Jul_08_1221,60.3423980887,sequenceLearningTask,001,160,
min1.png,min2.png,min3.png,min4.png,allBlank.png,,,,,,,,,,,,0,0,0,0,,,,,,,,,,,,,,,,,"(0.25, -0.04)",images/min3.png,1,0.0582670529839,0.728571598534,[-0.2828125 -0.025    ],,,,,,,,,,,,2018_Jul_08_1221,60.3423980887,sequenceLearningTask,001,160,
min1.png,min2.png,min3.png,min4.png,allBlank.png,,,,,,,,,,,,0,0,0,0,,,,,,,,,,,,,,,,,"(0.75, -0.04)",images/min4.png,1,0.0539523881162,0.690108845127,[ 0.290625    0.06944444],,,,,,,,,,,,2018_Jul_08_1221,60.3423980887,sequenceLearningTask,001,160,
min1.png,min2.png,min3.png,min4.png,allBlank.png,,,,,,,,,,,,0,1,1,1,,,,,,,,,,,,,,,,,"(-0.75, -0.04)",images/min1.png,2,0.0553279772867,0.803415875416,[ 0.75625    -0.13055556],,0.319921509712,1,,,,,,,,,2018_Jul_08_1221,60.3423980887,sequenceLearningTask,001,160,
min1.png,min2.png,min3.png,min4.png,allBlank.png,,,,,,,,,,,,0,1,1,1,,,,,,,,,,,,,,,,,"(0.25, -0.04)",images/min3.png,2,0.0566531049553,0.64913040027,[-0.6578125  -0.06944444],,0.217318885145,1,,,,,,,,,2018_Jul_08_1221,60.3423980887,sequenceLearningTask,001,160,
min1.png,min2.png,min3.png,min4.png,allBlank.png,,,,,,,,,,,,0,1,1,1,,,,,,,,,,,,,,,,,"(-0.25, -0.04)",images/min2.png,2,0.0298133210745,0.0528549527517,[ 0.3453125  -0.07777778],,,,,,,,,,,,2018_Jul_08_1221,60.3423980887,sequenceLearningTask,001,160,
min1.png,min2.png,min3.png,min4.png,allBlank.png,,,,,,,,,,,,0,1,1,1,,,,,,,,,,,,,,,,,"(0.75, -0.04)",images/min4.png,2,0.0558609000873,0.27117773483,[-0.1984375  -0.06944444],,,,,,,,,,,,2018_Jul_08_1221,60.3423980887,sequenceLearningTask,001,160,
min1.png,min2.png,min3.png,min4.png,allBlank.png,,,,,,,,,,,,0,1,1,1,,,,,,,,,,,,,,,,,"(0.75, -0.04)",images/min4.png,2,0.0267347582849,0.116200157441,[ 0.69375     0.01944444],,,,,,,,,,,,2018_Jul_08_1221,60.3423980887,sequenceLearningTask,001,160,
min1.png,min2.png,min3.png,min4.png,allBlank.png,,,,,,,,,,,,0,1,1,1,,,,,,,,,,,,,,,,,"(-0.25, -0.04)",images/min2.png,2,0.0554526951164,0.656772243441,[ 0.7390625  -0.05277778],,0.22929016233,1,,,,,,,,,2018_Jul_08_1221,60.3423980887,sequenceLearningTask,001,160,
min1.png,min2.png,min3.png,min4.png,allBlank.png,,,,,,,,,,,,0,1,1,1,,,,,,,,,,,,,,,,,"(0.25, -0.04)",images/min3.png,2,0.0601246932056,0.161105985171,[-0.1984375  -0.01111111],,,,,,,,,,,,2018_Jul_08_1221,60.3423980887,sequenceLearningTask,001,160,
min1.png,min2.png,min3.png,min4.png,allBlank.png,,,,,,,,,,,,0,1,1,1,,,,,,,,,,,,,,,,,"(0.75, -0.04)",images/min4.png,2,0.0626194614451,0.54858644167,[ 0.2421875  -0.04722222],,,,,,,,,,,,2018_Jul_08_1221,60.3423980887,sequenceLearningTask,001,160,
min1.png,min2.png,min3.png,min4.png,allBlank.png,,,,,,,,,,,,0,2,2,2,,,,,,,,,,,,,,,,,"(-0.75, -0.04)",images/min1.png,3,0.0276566039538,0.040699470439,[ 0.728125   -0.04722222],,,,,,,,,,,,2018_Jul_08_1221,60.3423980887,sequenceLearningTask,001,160,
min1.png,min2.png,min3.png,min4.png,allBlank.png,,,,,,,,,,,,0,2,2,2,,,,,,,,,,,,,,,,,"(0.25, -0.04)",images/min3.png,3,0.0612135133706,0.446723098867,[-0.6921875  -0.13611111],,,,,,,,,,,,2018_Jul_08_1221,60.3423980887,sequenceLearningTask,001,160,
min1.png,min2.png,min3.png,min4.png,allBlank.png,,,,,,,,,,,,0,2,2,2,,,,,,,,,,,,,,,,,"(-0.25, -0.04)",images/min2.png,3,0.0597776165232,0.664784547756,[ 0.3046875  -0.13611111],,,,,,,,,,,,2018_Jul_08_1221,60.3423980887,sequenceLearningTask,001,160,
min1.png,min2.png,min3.png,min4.png,allBlank.png,,,,,,,,,,,,0,2,2,2,,,,,,,,,,,,,,,,,"(0.75, -0.04)",images/min4.png,3,0.0534215165535,0.360531544429,[ 0.734375 -0.125   ],,,,,,,,,,,,2018_Jul_08_1221,60.3423980887,sequenceLearningTask,001,160,
min1.png,min2.png,min3.png,min4.png,allBlank.png,,,,,,,,,,,,0,2,2,2,,,,,,,,,,,,,,,,,"(0.75, -0.04)",images/min4.png,3,0.0691433561733,0.199355405406,[ 0.7265625 -0.075    ],,,,,,,,,,,,2018_Jul_08_1221,60.3423980887,sequenceLearningTask,001,160,
min1.png,min2.png,min3.png,min4.png,allBlank.png,,,,,,,,,,,,0,2,2,2,,,,,,,,,,,,,,,,,"(-0.25, -0.04)",images/min2.png,3,0.0385603944305,0.452844942454,[ 0.7109375  -0.08055556],,,,,,,,,,,,2018_Jul_08_1221,60.3423980887,sequenceLearningTask,001,160,
min1.png,min2.png,min3.png,min4.png,allBlank.png,,,,,,,,,,,,0,2,2,2,,,,,,,,,,,,,,,,,"(0.25, -0.04)",images/min3.png,3,0.0392676763004,0.0999371898361,[-0.2203125  -0.12777778],,,,,,,,,,,,2018_Jul_08_1221,60.3423980887,sequenceLearningTask,001,160,
min1.png,min2.png,min3.png,min4.png,allBlank.png,,,,,,,,,,,,0,2,2,2,,,,,,,,,,,,,,,,,"(0.75, -0.04)",images/min4.png,3,0.0450334175257,0.594603243168,[ 0.2359375  -0.10277778],,,,,,,,,,,,2018_Jul_08_1221,60.3423980887,sequenceLearningTask,001,160,
min1.png,min2.png,min3.png,min4.png,allBlank.png,,,,,,,,,,,,0,3,3,3,,,,,,,,,,,,,,,,,"(-0.75, -0.04)",images/min1.png,4,0.0300258338684,0.0423618288478,[ 0.7671875  -0.05833333],,,,,,,,,,,,2018_Jul_08_1221,60.3423980887,sequenceLearningTask,001,160,
min1.png,min2.png,min3.png,min4.png,allBlank.png,,,,,,,,,,,,0,3,3,3,,,,,,,,,,,,,,,,,"(0.25, -0.04)",images/min3.png,4,0.0668089982355,0.390693173045,[-0.7703125  -0.21388889],,,,,,,,,,,,2018_Jul_08_1221,60.3423980887,sequenceLearningTask,001,160,
min1.png,min2.png,min3.png,min4.png,allBlank.png,,,,,,,,,,,,0,3,3,3,,,,,,,,,,,,,,,,,"(-0.25, -0.04)",images/min2.png,4,0.0568918741774,0.268517223187,[ 0.2203125  -0.14722222],,,,,,,,,,,,2018_Jul_08_1221,60.3423980887,sequenceLearningTask,001,160,
min1.png,min2.png,min3.png,min4.png,allBlank.png,,,,,,,,,,,,0,3,3,3,,,,,,,,,,,,,,,,,"(0.75, -0.04)",images/min4.png,4,0.0564512588317,0.603342521703,[-0.265625   -0.08333333],,0.186067205621,1,,,,,,,,,2018_Jul_08_1221,60.3423980887,sequenceLearningTask,001,160,
min1.png,min2.png,min3.png,min4.png,allBlank.png,,,,,,,,,,,,0,3,3,3,,,,,,,,,,,,,,,,,"(0.75, -0.04)",images/min4.png,4,0.0463683912531,0.0439634690993,[ 0.728125   -0.10833333],1,,,,,,,,,,,2018_Jul_08_1221,60.3423980887,sequenceLearningTask,001,160,
min1.png,min2.png,min3.png,min4.png,allBlank.png,,,,,,,,,,,,0,3,3,3,,,,,,,,,,,,,,,,,"(-0.25, -0.04)",images/min2.png,4,0.0535687984666,0.621042617015,[ 0.6984375  -0.01666667],,,,,,,,,,,,2018_Jul_08_1221,60.3423980887,sequenceLearningTask,001,160,
min1.png,min2.png,min3.png,min4.png,allBlank.png,,,,,,,,,,,,0,3,3,3,,,,,,,,,,,,,,,,,"(0.25, -0.04)",images/min3.png,4,0.0513739276212,0.272979580332,[-0.2921875  -0.12222222],,,,,,,,,,,,2018_Jul_08_1221,60.3423980887,sequenceLearningTask,001,160,
min1.png,min2.png,min3.png,min4.png,allBlank.png,,,,,,,,,,,,0,3,3,3,,,,,,,,,,,,,,,,,"(0.75, -0.04)",images/min4.png,4,0.0607880776515,0.864976055338,[ 0.2296875  -0.14722222],,,,,,,,,,,,2018_Jul_08_1221,60.3423980887,sequenceLearningTask,001,160,
min1.png,min2.png,min3.png,min4.png,allBlank.png,,,,,,,,,,,,0,4,4,4,,,,,,,,,,,,,,,,,"(-0.75, -0.04)",images/min1.png,5,0.0527917732252,0.450243507628,[ 0.7109375  -0.09444444],,,,,,,,,,,,2018_Jul_08_1221,60.3423980887,sequenceLearningTask,001,160,
min1.png,min2.png,min3.png,min4.png,allBlank.png,,,,,,,,,,,,0,4,4,4,,,,,,,,,,,,,,,,,"(0.25, -0.04)",images/min3.png,5,0.059676283272,0.514385019778,[-0.6984375  -0.20277778],,,,,,,,,,,,2018_Jul_08_1221,60.3423980887,sequenceLearningTask,001,160,
min1.png,min2.png,min3.png,min4.png,allBlank.png,,,,,,,,,,,,0,4,4,4,,,,,,,,,,,,,,,,,"(-0.25, -0.04)",images/min2.png,5,0.0548098236322,0.720601140172,[ 0.3015625  -0.04444444],,0.287680292153,1,,,,,,,,,2018_Jul_08_1221,60.3423980887,sequenceLearningTask,001,160,
min1.png,min2.png,min3.png,min4.png,allBlank.png,,,,,,,,,,,,0,4,4,4,,,,,,,,,,,,,,,,,"(0.75, -0.04)",images/min4.png,5,0.0571749508381,0.246231693891,[-0.1953125  -0.10555556],,,,,,,,,,,,2018_Jul_08_1221,60.3423980887,sequenceLearningTask,001,160,
min1.png,min2.png,min3.png,min4.png,allBlank.png,,,,,,,,,,,,0,4,4,4,,,,,,,,,,,,,,,,,"(0.75, -0.04)",images/min4.png,5,0.0260927072959,0.0259437841596,[ 0.6609375  -0.14722222],1,,,,,,,,,,,2018_Jul_08_1221,60.3423980887,sequenceLearningTask,001,160,
min1.png,min2.png,min3.png,min4.png,allBlank.png,,,,,,,,,,,,0,4,4,4,,,,,,,,,,,,,,,,,"(-0.25, -0.04)",images/min2.png,5,0.0573554636212,0.540327983559,[ 0.6984375  -0.09722222],,,,,,,,,,,,2018_Jul_08_1221,60.3423980887,sequenceLearningTask,001,160,
min1.png,min2.png,min3.png,min4.png,allBlank.png,,,,,,,,,,,,0,4,4,4,,,,,,,,,,,,,,,,,"(0.25, -0.04)",images/min3.png,5,0.056525515276,0.554348080303,[-0.2046875  -0.13055556],,,,,,,,,,,,2018_Jul_08_1221,60.3423980887,sequenceLearningTask,001,160,
min1.png,min2.png,min3.png,min4.png,allBlank.png,,,,,,,,,,,,0,4,4,4,,,,,,,,,,,,,,,,,"(0.75, -0.04)",images/min4.png,5,0.0601140265353,0.382928253151,[ 0.2953125  -0.13333333],,,,,,,,,,,,2018_Jul_08_1221,60.3423980887,sequenceLearningTask,001,160,
min1.png,min2.png,min3.png,min4.png,allBlank.png,,,,,,,,,,,,0,5,5,5,,,,,,,,,,,,,,,,,"(-0.75, -0.04)",images/min1.png,6,0.0248824513983,1.08700057969,[ 0.7765625  -0.06111111],,0.519561222754,1,,,,,,,,,2018_Jul_08_1221,60.3423980887,sequenceLearningTask,001,160,
min1.png,min2.png,min3.png,min4.png,allBlank.png,,,,,,,,,,,,0,5,5,5,,,,,,,,,,,,,,,,,"(0.25, -0.04)",images/min3.png,6,0.0553595670499,0.251655281405,[-0.6484375  -0.18055556],,,,,,,,,,,,2018_Jul_08_1221,60.3423980887,sequenceLearningTask,001,160,
min1.png,min2.png,min3.png,min4.png,allBlank.png,,,,,,,,,,,,0,5,5,5,,,,,,,,,,,,,,,,,"(-0.25, -0.04)",images/min2.png,6,0.0392422403675,0.815828588442,[ 0.3140625  -0.11944444],,0.464448629995,1,,,,,,,,,2018_Jul_08_1221,60.3423980887,sequenceLearningTask,001,160,
min1.png,min2.png,min3.png,min4.png,allBlank.png,,,,,,,,,,,,0,5,5,5,,,,,,,,,,,,,,,,,"(0.75, -0.04)",images/min4.png,6,0.063238127972,0.26155886706,[ 0.6921875  -0.14722222],,,,,,,,,,,,2018_Jul_08_1221,60.3423980887,sequenceLearningTask,001,160,
min1.png,min2.png,min3.png,min4.png,allBlank.png,,,,,,,,,,,,0,5,5,5,,,,,,,,,,,,,,,,,"(0.75, -0.04)",images/min4.png,6,0.0544881827664,0.203448942164,[ 0.684375   -0.13333333],,,,,,,,,,,,2018_Jul_08_1221,60.3423980887,sequenceLearningTask,001,160,
min1.png,min2.png,min3.png,min4.png,allBlank.png,,,,,,,,,,,,0,5,5,5,,,,,,,,,,,,,,,,,"(-0.25, -0.04)",images/min2.png,6,0.0542518751463,0.540051060496,[ 0.6890625  -0.13611111],,,,,,,,,,,,2018_Jul_08_1221,60.3423980887,sequenceLearningTask,001,160,
min1.png,min2.png,min3.png,min4.png,allBlank.png,,,,,,,,,,,,0,5,5,5,,,,,,,,,,,,,,,,,"(0.25, -0.04)",images/min3.png,6,0.0556504387641,0.258492611931,[-0.21875 -0.075  ],,,,,,,,,,,,2018_Jul_08_1221,60.3423980887,sequenceLearningTask,001,160,
min1.png,min2.png,min3.png,min4.png,allBlank.png,,,,,,,,,,,,0,5,5,5,,,,,,,,,,,,,,,,,"(0.75, -0.04)",images/min4.png,6,0.0533841833239,0.708053863375,[ 0.2875     -0.05833333],,0.148492246866,1,,,,,,,,,2018_Jul_08_1221,60.3423980887,sequenceLearningTask,001,160,
min1.png,min2.png,min3.png,min4.png,allBlank.png,,,,,,,,,,,,0,6,6,6,,,,,,,,,,,,,,,,,"(-0.75, -0.04)",images/min1.png,7,0.0553411055589,0.403516142163,[ 0.7109375 -0.025    ],,,,,,,,,,,,2018_Jul_08_1221,60.3423980887,sequenceLearningTask,001,160,
min1.png,min2.png,min3.png,min4.png,allBlank.png,,,,,,,,,,,,0,6,6,6,,,,,,,,,,,,,,,,,"(0.25, -0.04)",images/min3.png,7,0.0617706413614,0.599629292497,[-0.734375   -0.13611111],,,,,,,,,,,,2018_Jul_08_1221,60.3423980887,sequenceLearningTask,001,160,
min1.png,min2.png,min3.png,min4.png,allBlank.png,,,,,,,,,,,,0,6,6,6,,,,,,,,,,,,,,,,,"(-0.25, -0.04)",images/min2.png,7,0.0581673608394,0.182651822455,[ 0.3265625   0.00833333],,,,,,,,,,,,2018_Jul_08_1221,60.3423980887,sequenceLearningTask,001,160,
min1.png,min2.png,min3.png,min4.png,allBlank.png,,,,,,,,,,,,0,6,6,6,,,,,,,,,,,,,,,,,"(0.75, -0.04)",images/min4.png,7,0.060162026668,0.0980963699985,[-0.3015625 -0.125    ],,,,,,,,,,,,2018_Jul_08_1221,60.3423980887,sequenceLearningTask,001,160,
min1.png,min2.png,min3.png,min4.png,allBlank.png,,,,,,,,,,,,0,6,6,6,,,,,,,,,,,,,,,,,"(0.75, -0.04)",images/min4.png,7,0.0550042850664,0.587036477053,[ 0.6578125  -0.03333333],,,,,,,,,,,,2018_Jul_08_1221,60.3423980887,sequenceLearningTask,001,160,
min1.png,min2.png,min3.png,min4.png,allBlank.png,,,,,,,,,,,,0,6,6,6,,,,,,,,,,,,,,,,,"(-0.25, -0.04)",images/min2.png,7,0.0555765926838,0.552919157781,[ 0.7390625  -0.06944444],,,,,,,,,,,,2018_Jul_08_1221,60.3423980887,sequenceLearningTask,001,160,
min1.png,min2.png,min3.png,min4.png,allBlank.png,,,,,,,,,,,,0,6,6,6,,,,,,,,,,,,,,,,,"(0.25, -0.04)",images/min3.png,7,0.0547212084057,0.453260942246,[-0.2234375  -0.13055556],,,,,,,,,,,,2018_Jul_08_1221,60.3423980887,sequenceLearningTask,001,160,
min1.png,min2.png,min3.png,min4.png,allBlank.png,,,,,,,,,,,,0,6,6,6,,,,,,,,,,,,,,,,,"(0.75, -0.04)",images/min4.png,7,0.0580643864814,0.730288520921,[ 0.2390625  -0.14166667],,,,,,,,,,,,2018_Jul_08_1221,60.3423980887,sequenceLearningTask,001,160,
min1.png,min2.png,min3.png,min4.png,allBlank.png,,,,,,,,,,,,0,7,7,7,,,,,,,,,,,,,,,,,"(-0.75, -0.04)",images/min1.png,8,0.0590978218243,0.26511783991,[ 0.8109375  -0.13611111],,,,,,,,,,,,2018_Jul_08_1221,60.3423980887,sequenceLearningTask,001,160,
min1.png,min2.png,min3.png,min4.png,allBlank.png,,,,,,,,,,,,0,7,7,7,,,,,,,,,,,,,,,,,"(0.25, -0.04)",images/min3.png,8,0.0561534127919,0.698824738851,[-0.6109375  -0.31944444],,,,,,,,,,,,2018_Jul_08_1221,60.3423980887,sequenceLearningTask,001,160,
min1.png,min2.png,min3.png,min4.png,allBlank.png,,,,,,,,,,,,0,7,7,7,,,,,,,,,,,,,,,,,"(-0.25, -0.04)",images/min2.png,8,0.0552352594677,0.571420073276,[ 0.2921875 -0.125    ],,,,,,,,,,,,2018_Jul_08_1221,60.3423980887,sequenceLearningTask,001,160,
min1.png,min2.png,min3.png,min4.png,allBlank.png,,,,,,,,,,,,0,7,7,7,,,,,,,,,,,,,,,,,"(0.75, -0.04)",images/min4.png,8,0.0519380299374,0.357271237997,[-0.2328125  -0.21944444],,,,,,,,,,,,2018_Jul_08_1221,60.3423980887,sequenceLearningTask,001,160,
min1.png,min2.png,min3.png,min4.png,allBlank.png,,,,,,,,,,,,0,7,7,7,,,,,,,,,,,,,,,,,"(0.75, -0.04)",images/min4.png,8,0.0586444886867,0.996509539895,[ 0.684375   -0.00277778],,,,,,,,,,,,2018_Jul_08_1221,60.3423980887,sequenceLearningTask,001,160,
min1.png,min2.png,min3.png,min4.png,allBlank.png,,,,,,,,,,,,0,7,7,7,,,,,,,,,,,,,,,,,"(-0.25, -0.04)",images/min2.png,8,0.0550526954466,0.585837708437,[ 0.7015625  -0.14722222],,,,,,,,,,,,2018_Jul_08_1221,60.3423980887,sequenceLearningTask,001,160,
min1.png,min2.png,min3.png,min4.png,allBlank.png,,,,,,,,,,,,0,7,7,7,,,,,,,,,,,,,,,,,"(0.25, -0.04)",images/min3.png,8,0.0513283890905,0.35843882733,[-0.1671875  -0.08611111],,,,,,,,,,,,2018_Jul_08_1221,60.3423980887,sequenceLearningTask,001,160,
min1.png,min2.png,min3.png,min4.png,allBlank.png,,,,,,,,,,,,0,7,7,7,,,,,,,,,,,,,,,,,"(0.75, -0.04)",images/min4.png,8,0.0529017219087,0.521879990934,[ 0.35       -0.06666667],,,,,,,,,,,,2018_Jul_08_1221,60.3423980887,sequenceLearningTask,001,160,
min1.png,min2.png,min3.png,min4.png,allBlank.png,,,,,,,,,,,,0,8,8,8,,,,,,,,,,,,,,,,,"(-0.75, -0.04)",images/min1.png,9,0.0525915682083,0.572166329366,[ 0.728125   -0.13055556],,,,,,,,,,,,2018_Jul_08_1221,60.3423980887,sequenceLearningTask,001,160,
min1.png,min2.png,min3.png,min4.png,allBlank.png,,,,,,,,,,,,0,8,8,8,,,,,,,,,,,,,,,,,"(0.25, -0.04)",images/min3.png,9,0.0550206954358,0.421580955153,[-0.665625   -0.26944444],,,,,,,,,,,,2018_Jul_08_1221,60.3423980887,sequenceLearningTask,001,160,
min1.png,min2.png,min3.png,min4.png,allBlank.png,,,,,,,,,,,,0,8,8,8,,,,,,,,,,,,,,,,,"(-0.25, -0.04)",images/min2.png,9,0.0561636692146,0.814574845368,[ 0.2453125  -0.11388889],,,,,,,,,,,,2018_Jul_08_1221,60.3423980887,sequenceLearningTask,001,160,
min1.png,min2.png,min3.png,min4.png,allBlank.png,,,,,,,,,,,,0,8,8,8,,,,,,,,,,,,,,,,,"(0.75, -0.04)",images/min4.png,9,0.0569312587613,0.620887129917,[-0.2328125 -0.275    ],,,,,,,,,,,,2018_Jul_08_1221,60.3423980887,sequenceLearningTask,001,160,
min1.png,min2.png,min3.png,min4.png,allBlank.png,,,,,,,,,,,,0,8,8,8,,,,,,,,,,,,,,,,,"(0.75, -0.04)",images/min4.png,9,0.056109515368,0.620430514682,[ 0.7609375  -0.17777778],,,,,,,,,,,,2018_Jul_08_1221,60.3423980887,sequenceLearningTask,001,160,
min1.png,min2.png,min3.png,min4.png,allBlank.png,,,,,,,,,,,,0,8,8,8,,,,,,,,,,,,,,,,,"(-0.25, -0.04)",images/min2.png,9,0.0574202841381,0.74987292313,[ 0.8328125   0.06944444],,,,,,,,,,,,2018_Jul_08_1221,60.3423980887,sequenceLearningTask,001,160,
min1.png,min2.png,min3.png,min4.png,allBlank.png,,,,,,,,,,,,0,8,8,8,,,,,,,,,,,,,,,,,"(0.25, -0.04)",images/min3.png,9,0.0488865440711,0.626766922418,[-0.2546875  -0.10833333],,,,,,,,,,,,2018_Jul_08_1221,60.3423980887,sequenceLearningTask,001,160,
min1.png,min2.png,min3.png,min4.png,allBlank.png,,,,,,,,,,,,0,8,8,8,,,,,,,,,,,,,,,,,"(0.75, -0.04)",images/min4.png,9,0.0604492060374,0.699842994916,[ 0.2109375  -0.14722222],,,,,,,,,,,,2018_Jul_08_1221,60.3423980887,sequenceLearningTask,001,160,
min1.png,min2.png,min3.png,min4.png,allBlank.png,,,,,,,,,,,,0,9,9,9,,,,,,,,,,,,,,,,,"(-0.75, -0.04)",images/min1.png,10,0.0600680778734,1.68839233299,[ 0.7203125  0.125    ],,0.32556048187,1,,,,,,,,,2018_Jul_08_1221,60.3423980887,sequenceLearningTask,001,160,
min1.png,min2.png,min3.png,min4.png,allBlank.png,,,,,,,,,,,,0,9,9,9,,,,,,,,,,,,,,,,,"(0.25, -0.04)",images/min3.png,10,0.0528204912553,0.65233245038,[-0.690625   -0.14444444],,,,,,,,,,,,2018_Jul_08_1221,60.3423980887,sequenceLearningTask,001,160,
min1.png,min2.png,min3.png,min4.png,allBlank.png,,,,,,,,,,,,0,9,9,9,,,,,,,,,,,,,,,,,"(-0.25, -0.04)",images/min2.png,10,0.0543199777603,0.636752969469,[ 0.271875  0.      ],,,,,,,,,,,,2018_Jul_08_1221,60.3423980887,sequenceLearningTask,001,160,
min1.png,min2.png,min3.png,min4.png,allBlank.png,,,,,,,,,,,,0,9,9,9,,,,,,,,,,,,,,,,,"(0.75, -0.04)",images/min4.png,10,0.057875258266,0.178573875455,[-0.1734375 -0.075    ],,,,,,,,,,,,2018_Jul_08_1221,60.3423980887,sequenceLearningTask,001,160,
min1.png,min2.png,min3.png,min4.png,allBlank.png,,,,,,,,,,,,0,9,9,9,,,,,,,,,,,,,,,,,"(0.75, -0.04)",images/min4.png,10,0.0213144527515,0.105751751573,[ 0.65        0.05555556],,,,,,,,,,,,2018_Jul_08_1221,60.3423980887,sequenceLearningTask,001,160,
min1.png,min2.png,min3.png,min4.png,allBlank.png,,,,,,,,,,,,0,9,9,9,,,,,,,,,,,,,,,,,"(-0.25, -0.04)",images/min2.png,10,0.0490387490718,0.491512823966,[ 0.71875     0.00833333],,,,,,,,,,,,2018_Jul_08_1221,60.3423980887,sequenceLearningTask,001,160,
min1.png,min2.png,min3.png,min4.png,allBlank.png,,,,,,,,,,,,0,9,9,9,,,,,,,,,,,,,,,,,"(0.25, -0.04)",images/min3.png,10,0.053706644685,0.537430753931,[-0.1546875   0.04166667],,0.298319057096,1,,,,,,,,,2018_Jul_08_1221,60.3423980887,sequenceLearningTask,001,160,
min1.png,min2.png,min3.png,min4.png,allBlank.png,,,,,,,,,,,,0,9,9,9,,,,,,,,,,,,,,,,,"(0.75, -0.04)",images/min4.png,10,0.0552787465276,0.440168434754,[ 0.3484375  -0.00555556],,,,,,,,,,,,2018_Jul_08_1221,60.3423980887,sequenceLearningTask,001,160,
min1.png,min2.png,min3.png,min4.png,images/allBlank.png,"['num_7', 'num_4', 'num_1', 'num_0']",['num_7'],num_7,[1],'num_7',images/min1.png,"[(0.45, 0.79)]",,,,,0,-1,-1,0,0,0,0,0,,,,,,,,,,,,,"(-0.25, 0.04)",images/min2.png,1,0.0560381308896,1.18714166677,[ 0.690625    0.10833333],,,,,,,,['num_7'],,,,2018_Jul_08_1221,60.3423980887,sequenceLearningTask,001,160,
min1.png,min2.png,min3.png,min4.png,images/allBlank.png,"['num_7', 'num_4', 'num_1', 'num_0']",['num_7'],num_7,[1],'num_7',images/min1.png,"[(0.45, 0.79)]",,,,,0,-1,-1,0,0,0,0,0,,,,,,,,,,,,,"(0.25, 0.04)",images/min3.png,1,0.0567749510519,0.417350803153,[-0.3546875  -0.10833333],,,,,,,,['num_7'],,,,2018_Jul_08_1221,60.3423980887,sequenceLearningTask,001,160,
min1.png,min2.png,min3.png,min4.png,images/allBlank.png,"['num_7', 'num_4', 'num_1', 'num_0']",['num_7'],num_7,[1],'num_7',images/min1.png,"[(0.45, 0.79)]",,,,,0,-1,-1,0,0,0,0,0,,,,,,,,,,,,,"(-0.75, 0.04)",images/min1.png,1,0.0648196657421,0.441395101021,[ 0.1265625   0.07777778],,,,,,,,['num_7'],,,,2018_Jul_08_1221,60.3423980887,sequenceLearningTask,001,160,
min1.png,min2.png,min3.png,min4.png,images/allBlank.png,"['num_7', 'num_4', 'num_1', 'num_0']",['num_7'],num_7,[1],'num_7',images/min1.png,"[(0.45, 0.79)]",,,,,0,-1,-1,0,0,0,0,0,,,,,,,,,,,,,"(-0.25, 0.04)",images/min2.png,1,0.0615224363282,0.597979241866,[-0.7046875   0.03333333],,,,,,,,['num_7'],,,,2018_Jul_08_1221,60.3423980887,sequenceLearningTask,001,160,
min1.png,min2.png,min3.png,min4.png,images/allBlank.png,"['num_7', 'num_4', 'num_1', 'num_0']",['num_4'],num_4,[2],'num_4',images/min2.png,"[(0.45, 0.79)]",,,,,0,-1,-1,0,0,1,1,1,,,,,,,,,,,,,"(0.75, 0.04)",images/min4.png,2,0.0646071530646,0.322511867736,[-0.15       -0.06111111],,,,,,,,['num_4'],,,,2018_Jul_08_1221,60.3423980887,sequenceLearningTask,001,160,
min1.png,min2.png,min3.png,min4.png,images/allBlank.png,"['num_7', 'num_4', 'num_1', 'num_0']",['num_4'],num_4,[2],'num_4',images/min2.png,"[(0.45, 0.79)]",,,,,0,-1,-1,0,0,1,1,1,,,,,,,,,,,,,"(0.75, 0.04)",images/min4.png,2,0.0603380266111,0.199708225788,[ 0.7234375   0.05833333],,,,,,,,['num_4'],,,,2018_Jul_08_1221,60.3423980887,sequenceLearningTask,001,160,
min1.png,min2.png,min3.png,min4.png,images/allBlank.png,"['num_7', 'num_4', 'num_1', 'num_0']",['num_4'],num_4,[2],'num_4',images/min2.png,"[(0.45, 0.79)]",,,,,0,-1,-1,0,0,1,1,1,,,,,,,,,,,,,"(0.25, 0.04)",images/min3.png,2,0.0583815145073,0.69589017611,[ 0.7703125  -0.00833333],,,,,,,,['num_4'],,,,2018_Jul_08_1221,60.3423980887,sequenceLearningTask,001,160,
min1.png,min2.png,min3.png,min4.png,images/allBlank.png,"['num_7', 'num_4', 'num_1', 'num_0']",['num_4'],num_4,[2],'num_4',images/min2.png,"[(0.45, 0.79)]",,,,,0,-1,-1,0,0,1,1,1,,,,,,,,,,,,,"(0.25, 0.04)",images/min3.png,2,0.0606116674608,0.983450673404,[ 0.2125      0.03611111],,0.364941388718,1,,,,,['num_4'],,,,2018_Jul_08_1221,60.3423980887,sequenceLearningTask,001,160,
min1.png,min2.png,min3.png,min4.png,images/allBlank.png,"['num_7', 'num_4', 'num_1', 'num_0']",['num_0'],num_0,[4],'num_0',images/min4.png,"[(0.45, 0.79)]",,,,,0,-1,-1,0,0,2,2,3,,,,,,,,,,,,,"(-0.75, 0.04)",images/min1.png,3,0.0605070521124,0.609172673081,[ 0.1890625   0.08055556],,0.305151464534,1,,,,,['num_0'],,,,2018_Jul_08_1221,60.3423980887,sequenceLearningTask,001,160,
min1.png,min2.png,min3.png,min4.png,images/allBlank.png,"['num_7', 'num_4', 'num_1', 'num_0']",['num_0'],num_0,[4],'num_0',images/min4.png,"[(0.45, 0.79)]",,,,,0,-1,-1,0,0,2,2,3,,,,,,,,,,,,,"(-0.25, 0.04)",images/min2.png,3,0.0612020262051,0.613432363723,[-0.7078125   0.05833333],,,,,,,,['num_0'],,,,2018_Jul_08_1221,60.3423980887,sequenceLearningTask,001,160,
min1.png,min2.png,min3.png,min4.png,images/allBlank.png,"['num_7', 'num_4', 'num_1', 'num_0']",['num_0'],num_0,[4],'num_0',images/min4.png,"[(0.45, 0.79)]",,,,,0,-1,-1,0,0,2,2,3,,,,,,,,,,,,,"(0.75, 0.04)",images/min4.png,3,0.06022766768,0.766201121616,[-0.2671875   0.01388889],,,,,,,,['num_0'],,,,2018_Jul_08_1221,60.3423980887,sequenceLearningTask,001,160,
min1.png,min2.png,min3.png,min4.png,images/allBlank.png,"['num_7', 'num_4', 'num_1', 'num_0']",['num_0'],num_0,[4],'num_0',images/min4.png,"[(0.45, 0.79)]",,,,,0,-1,-1,0,0,2,2,3,,,,,,,,,,,,,"(-0.25, 0.04)",images/min2.png,3,0.0583006941015,0.53508695995,[ 0.7265625   0.22777778],,,,,,,,['num_0'],,,,2018_Jul_08_1221,60.3423980887,sequenceLearningTask,001,160,
min1.png,min2.png,min3.png,min4.png,images/allBlank.png,"['num_7', 'num_4', 'num_1', 'num_0']",['num_1'],num_1,[3],'num_1',images/min3.png,"[(0.45, 0.79)]",,,,,0,-1,-1,0,0,3,3,2,,,,,,,,,,,,,"(0.25, 0.04)",images/min3.png,4,0.0598920779303,0.428794080508,[-0.365625   -0.11666667],,,,,,,,['num_1'],,,,2018_Jul_08_1221,60.3423980887,sequenceLearningTask,001,160,
min1.png,min2.png,min3.png,min4.png,images/allBlank.png,"['num_7', 'num_4', 'num_1', 'num_0']",['num_1'],num_1,[3],'num_1',images/min3.png,"[(0.45, 0.79)]",,,,,0,-1,-1,0,0,3,3,2,,,,,,,,,,,,,"(0.25, 0.04)",images/min3.png,4,0.0690748435445,0.522160606342,[ 0.3234375   0.01388889],,,,,,,,['num_1'],,,,2018_Jul_08_1221,60.3423980887,sequenceLearningTask,001,160,
min1.png,min2.png,min3.png,min4.png,images/allBlank.png,"['num_7', 'num_4', 'num_1', 'num_0']",['num_1'],num_1,[3],'num_1',images/min3.png,"[(0.45, 0.79)]",,,,,0,-1,-1,0,0,3,3,2,,,,,,,,,,,,,"(0.75, 0.04)",images/min4.png,4,0.0632623329293,0.961574579822,[ 0.3328125  -0.00555556],,,,,,,,['num_1'],,,,2018_Jul_08_1221,60.3423980887,sequenceLearningTask,001,160,
min1.png,min2.png,min3.png,min4.png,images/allBlank.png,"['num_7', 'num_4', 'num_1', 'num_0']",['num_1'],num_1,[3],'num_1',images/min3.png,"[(0.45, 0.79)]",,,,,0,-1,-1,0,0,3,3,2,,,,,,,,,,,,,"(-0.25, 0.04)",images/min2.png,4,0.061021513422,0.478404316469,[ 0.575       0.18888889],,,,,,,,['num_1'],,,,2018_Jul_08_1221,60.3423980887,sequenceLearningTask,001,160,
min1.png,min2.png,min3.png,min4.png,images/allBlank.png,"['num_7', 'num_4', 'num_1', 'num_0']",['num_7'],num_7,[1],'num_7',images/min1.png,"[(0.45, 0.79)]",,,,,0,-1,-1,0,1,0,4,0,,,,,,,,,,,,,"(-0.25, 0.04)",images/min2.png,5,0.055072797928,0.679648541613,[-0.184375    0.05833333],,,,,,,,['num_7'],,,,2018_Jul_08_1221,60.3423980887,sequenceLearningTask,001,160,
min1.png,min2.png,min3.png,min4.png,images/allBlank.png,"['num_7', 'num_4', 'num_1', 'num_0']",['num_7'],num_7,[1],'num_7',images/min1.png,"[(0.45, 0.79)]",,,,,0,-1,-1,0,1,0,4,0,,,,,,,,,,,,,"(-0.75, 0.04)",images/min1.png,5,0.064933717018,0.761025328771,[-0.20625     0.08333333],,,,,,,,['num_7'],,,,2018_Jul_08_1221,60.3423980887,sequenceLearningTask,001,160,
min1.png,min2.png,min3.png,min4.png,images/allBlank.png,"['num_7', 'num_4', 'num_1', 'num_0']",['num_7'],num_7,[1],'num_7',images/min1.png,"[(0.45, 0.79)]",,,,,0,-1,-1,0,1,0,4,0,,,,,,,,,,,,,"(-0.75, 0.04)",images/min1.png,5,0.063565102173,0.747878667549,[-0.7171875  -0.05277778],,,,,,,,['num_7'],,,,2018_Jul_08_1221,60.3423980887,sequenceLearningTask,001,160,
min1.png,min2.png,min3.png,min4.png,images/allBlank.png,"['num_7', 'num_4', 'num_1', 'num_0']",['num_7'],num_7,[1],'num_7',images/min1.png,"[(0.45, 0.79)]",,,,,0,-1,-1,0,1,0,4,0,,,,,,,,,,,,,"(0.75, 0.04)",images/min4.png,5,0.0593751551351,0.700238481979,[-0.6640625  -0.06388889],,,,,,,,['num_7'],,,,2018_Jul_08_1221,60.3423980887,sequenceLearningTask,001,160,
min1.png,min2.png,min3.png,min4.png,images/allBlank.png,"['num_7', 'num_4', 'num_1', 'num_0']",['num_0'],num_0,[4],'num_0',images/min4.png,"[(0.45, 0.79)]",,,,,0,-1,-1,0,1,1,5,3,,,,,,,,,,,,,"(-0.75, 0.04)",images/min1.png,6,0.0548451057402,0.771771991043,[ 0.7         0.11111111],,0.182340027764,1,,,,,['num_0'],,,,2018_Jul_08_1221,60.3423980887,sequenceLearningTask,001,160,
min1.png,min2.png,min3.png,min4.png,images/allBlank.png,"['num_7', 'num_4', 'num_1', 'num_0']",['num_0'],num_0,[4],'num_0',images/min4.png,"[(0.45, 0.79)]",,,,,0,-1,-1,0,1,1,5,3,,,,,,,,,,,,,"(-0.25, 0.04)",images/min2.png,6,0.0558440797031,0.604539649445,[-0.6921875  -0.08055556],,,,,,,,['num_0'],,,,2018_Jul_08_1221,60.3423980887,sequenceLearningTask,001,160,
min1.png,min2.png,min3.png,min4.png,images/allBlank.png,"['num_7', 'num_4', 'num_1', 'num_0']",['num_0'],num_0,[4],'num_0',images/min4.png,"[(0.45, 0.79)]",,,,,0,-1,-1,0,1,1,5,3,,,,,,,,,,,,,"(-0.75, 0.04)",images/min1.png,6,0.0606346417917,0.732617955771,[-0.2578125  -0.05555556],,,,,,,,['num_0'],,,,2018_Jul_08_1221,60.3423980887,sequenceLearningTask,001,160,
min1.png,min2.png,min3.png,min4.png,images/allBlank.png,"['num_7', 'num_4', 'num_1', 'num_0']",['num_0'],num_0,[4],'num_0',images/min4.png,"[(0.45, 0.79)]",,,,,0,-1,-1,0,1,1,5,3,,,,,,,,,,,,,"(0.25, 0.04)",images/min3.png,6,0.0595589498989,0.609949288191,[-0.6953125  -0.08611111],,,,,,,,['num_0'],,,,2018_Jul_08_1221,60.3423980887,sequenceLearningTask,001,160,
min1.png,min2.png,min3.png,min4.png,images/allBlank.png,"['num_7', 'num_4', 'num_1', 'num_0']",['num_1'],num_1,[3],'num_1',images/min3.png,"[(0.45, 0.79)]",,,,,0,-1,-1,0,1,2,6,2,,,,,,,,,,,,,"(-0.25, 0.04)",images/min2.png,7,0.0693205869757,0.703740839497,[ 0.2125     -0.05833333],,,,,,,,['num_1'],,,,2018_Jul_08_1221,60.3423980887,sequenceLearningTask,001,160,
min1.png,min2.png,min3.png,min4.png,images/allBlank.png,"['num_7', 'num_4', 'num_1', 'num_0']",['num_1'],num_1,[3],'num_1',images/min3.png,"[(0.45, 0.79)]",,,,,0,-1,-1,0,1,2,6,2,,,,,,,,,,,,,"(-0.75, 0.04)",images/min1.png,7,0.063702537911,3.29117567546,[-0.1578125 -0.1      ],,,,,,,,['num_1'],,,,2018_Jul_08_1221,60.3423980887,sequenceLearningTask,001,160,
min1.png,min2.png,min3.png,min4.png,images/allBlank.png,"['num_7', 'num_4', 'num_1', 'num_0']",['num_1'],num_1,[3],'num_1',images/min3.png,"[(0.45, 0.79)]",,,,,0,-1,-1,0,1,2,6,2,,,,,,,,,,,,,"(0.25, 0.04)",images/min3.png,7,0.0619253078476,0.744120720308,[-0.665625   -0.06666667],,,,,,,,['num_1'],,,,2018_Jul_08_1221,60.3423980887,sequenceLearningTask,001,160,
min1.png,min2.png,min3.png,min4.png,images/allBlank.png,"['num_7', 'num_4', 'num_1', 'num_0']",['num_1'],num_1,[3],'num_1',images/min3.png,"[(0.45, 0.79)]",,,,,0,-1,-1,0,1,2,6,2,,,,,,,,,,,,,"(0.75, 0.04)",images/min4.png,7,0.0559876692714,0.684802180622,[ 0.1921875  -0.05277778],,,,,,,,['num_1'],,,,2018_Jul_08_1221,60.3423980887,sequenceLearningTask,001,160,
min1.png,min2.png,min3.png,min4.png,images/allBlank.png,"['num_7', 'num_4', 'num_1', 'num_0']",['num_4'],num_4,[2],'num_4',images/min2.png,"[(0.45, 0.79)]",,,,,0,-1,-1,0,1,3,7,1,,,,,,,,,,,,,"(0.25, 0.04)",images/min3.png,8,0.0600299240323,0.591563654714,[ 0.6265625  0.       ],,,,,,,,['num_4'],,,,2018_Jul_08_1221,60.3423980887,sequenceLearningTask,001,160,
min1.png,min2.png,min3.png,min4.png,images/allBlank.png,"['num_7', 'num_4', 'num_1', 'num_0']",['num_4'],num_4,[2],'num_4',images/min2.png,"[(0.45, 0.79)]",,,,,0,-1,-1,0,1,3,7,1,,,,,,,,,,,,,"(0.25, 0.04)",images/min3.png,8,0.0517013120698,0.588863348123,[ 0.1703125   0.06111111],,,,,,,,['num_4'],,,,2018_Jul_08_1221,60.3423980887,sequenceLearningTask,001,160,
min1.png,min2.png,min3.png,min4.png,images/allBlank.png,"['num_7', 'num_4', 'num_1', 'num_0']",['num_4'],num_4,[2],'num_4',images/min2.png,"[(0.45, 0.79)]",,,,,0,-1,-1,0,1,3,7,1,,,,,,,,,,,,,"(0.75, 0.04)",images/min4.png,8,0.0562284897314,0.706332428148,[ 0.0609375   0.01388889],,,,,,,,['num_4'],,,,2018_Jul_08_1221,60.3423980887,sequenceLearningTask,001,160,
min1.png,min2.png,min3.png,min4.png,images/allBlank.png,"['num_7', 'num_4', 'num_1', 'num_0']",['num_4'],num_4,[2],'num_4',images/min2.png,"[(0.45, 0.79)]",,,,,0,-1,-1,0,1,3,7,1,,,,,,,,,,,,,"(0.25, 0.04)",images/min3.png,8,0.0574645918095,0.852526419563,[ 0.6828125   0.01388889],,,,,,,,['num_4'],,,,2018_Jul_08_1221,60.3423980887,sequenceLearningTask,001,160,
min1.png,min2.png,min3.png,min4.png,images/allBlank.png,"['num_7', 'num_4', 'num_1', 'num_0']",['num_0'],num_0,[4],'num_0',images/min4.png,"[(0.45, 0.79)]",,,,,0,-1,-1,0,2,0,8,3,,,,,,,,,,,,,"(0.75, 0.04)",images/min4.png,9,0.0558092078427,0.786316805636,[ 0.2671875  -0.04166667],,,,,,,,['num_0'],,,,2018_Jul_08_1221,60.3423980887,sequenceLearningTask,001,160,
min1.png,min2.png,min3.png,min4.png,images/allBlank.png,"['num_7', 'num_4', 'num_1', 'num_0']",['num_0'],num_0,[4],'num_0',images/min4.png,"[(0.45, 0.79)]",,,,,0,-1,-1,0,2,0,8,3,,,,,,,,,,,,,"(0.25, 0.04)",images/min3.png,9,0.0589406937361,0.554572900641,[ 0.6828125   0.08333333],,,,,,,,['num_0'],,,,2018_Jul_08_1221,60.3423980887,sequenceLearningTask,001,160,
min1.png,min2.png,min3.png,min4.png,images/allBlank.png,"['num_7', 'num_4', 'num_1', 'num_0']",['num_0'],num_0,[4],'num_0',images/min4.png,"[(0.45, 0.79)]",,,,,0,-1,-1,0,2,0,8,3,,,,,,,,,,,,,"(-0.25, 0.04)",images/min2.png,9,0.0563232589047,0.597934934078,[ 0.228125    0.08888889],,,,,,,,['num_0'],,,,2018_Jul_08_1221,60.3423980887,sequenceLearningTask,001,160,
min1.png,min2.png,min3.png,min4.png,images/allBlank.png,"['num_7', 'num_4', 'num_1', 'num_0']",['num_0'],num_0,[4],'num_0',images/min4.png,"[(0.45, 0.79)]",,,,,0,-1,-1,0,2,0,8,3,,,,,,,,,,,,,"(-0.75, 0.04)",images/min1.png,9,0.0675043825759,0.74146102916,[-0.15       -0.05277778],,,,,,,,['num_0'],,,,2018_Jul_08_1221,60.3423980887,sequenceLearningTask,001,160,
min1.png,min2.png,min3.png,min4.png,images/allBlank.png,"['num_7', 'num_4', 'num_1', 'num_0']",['num_4'],num_4,[2],'num_4',images/min2.png,"[(0.45, 0.79)]",,,,,0,-1,-1,0,2,1,9,1,,,,,,,,,,,,,"(0.25, 0.04)",images/min3.png,10,0.0623429487459,0.49319364375,[-0.596875   -0.00555556],,,,,,,,['num_4'],,,,2018_Jul_08_1221,60.3423980887,sequenceLearningTask,001,160,
min1.png,min2.png,min3.png,min4.png,images/allBlank.png,"['num_7', 'num_4', 'num_1', 'num_0']",['num_4'],num_4,[2],'num_4',images/min2.png,"[(0.45, 0.79)]",,,,,0,-1,-1,0,2,1,9,1,,,,,,,,,,,,,"(0.75, 0.04)",images/min4.png,10,0.0653193577891,0.560337821371,[ 0.2890625   0.13888889],,,,,,,,['num_4'],,,,2018_Jul_08_1221,60.3423980887,sequenceLearningTask,001,160,
min1.png,min2.png,min3.png,min4.png,images/allBlank.png,"['num_7', 'num_4', 'num_1', 'num_0']",['num_4'],num_4,[2],'num_4',images/min2.png,"[(0.45, 0.79)]",,,,,0,-1,-1,0,2,1,9,1,,,,,,,,,,,,,"(-0.25, 0.04)",images/min2.png,10,0.062182538677,0.596441191155,[ 0.696875    0.06944444],,,,,,,,['num_4'],,,,2018_Jul_08_1221,60.3423980887,sequenceLearningTask,001,160,
min1.png,min2.png,min3.png,min4.png,images/allBlank.png,"['num_7', 'num_4', 'num_1', 'num_0']",['num_4'],num_4,[2],'num_4',images/min2.png,"[(0.45, 0.79)]",,,,,0,-1,-1,0,2,1,9,1,,,,,,,,,,,,,"(0.25, 0.04)",images/min3.png,10,0.0596065396676,0.467469756841,[-0.1828125   0.20277778],,,,,,,,['num_4'],,,,2018_Jul_08_1221,60.3423980887,sequenceLearningTask,001,160,
min1.png,min2.png,min3.png,min4.png,images/allBlank.png,"['num_7', 'num_4', 'num_1', 'num_0']",['num_7'],num_7,[1],'num_7',images/min1.png,"[(0.45, 0.79)]",,,,,0,-1,-1,0,2,2,10,0,,,,,,,,,,,,,"(0.75, 0.04)",images/min4.png,11,0.0539564907085,0.434720231919,[ 0.3328125   0.15277778],,,,,,,,['num_7'],,,,2018_Jul_08_1221,60.3423980887,sequenceLearningTask,001,160,
min1.png,min2.png,min3.png,min4.png,images/allBlank.png,"['num_7', 'num_4', 'num_1', 'num_0']",['num_7'],num_7,[1],'num_7',images/min1.png,"[(0.45, 0.79)]",,,,,0,-1,-1,0,2,2,10,0,,,,,,,,,,,,,"(-0.25, 0.04)",images/min2.png,11,0.0572467457969,0.536608190043,[ 0.6609375   0.28055556],,,,,,,,['num_7'],,,,2018_Jul_08_1221,60.3423980887,sequenceLearningTask,001,160,
min1.png,min2.png,min3.png,min4.png,images/allBlank.png,"['num_7', 'num_4', 'num_1', 'num_0']",['num_7'],num_7,[1],'num_7',images/min1.png,"[(0.45, 0.79)]",,,,,0,-1,-1,0,2,2,10,0,,,,,,,,,,,,,"(-0.25, 0.04)",images/min2.png,11,0.0733956622425,0.70110740466,[-0.0921875   0.06388889],,,,,,,,['num_7'],,,,2018_Jul_08_1221,60.3423980887,sequenceLearningTask,001,160,
min1.png,min2.png,min3.png,min4.png,images/allBlank.png,"['num_7', 'num_4', 'num_1', 'num_0']",['num_7'],num_7,[1],'num_7',images/min1.png,"[(0.45, 0.79)]",,,,,0,-1,-1,0,2,2,10,0,,,,,,,,,,,,,"(-0.75, 0.04)",images/min1.png,11,0.0555802849121,1.70436319825,[-0.1390625   0.00277778],,0.98743672308,1,,,,,['num_7'],,,,2018_Jul_08_1221,60.3423980887,sequenceLearningTask,001,160,
min1.png,min2.png,min3.png,min4.png,images/allBlank.png,"['num_7', 'num_4', 'num_1', 'num_0']",['num_1'],num_1,[3],'num_1',images/min3.png,"[(0.45, 0.79)]",,,,,0,-1,-1,0,2,3,11,2,,,,,,,,,,,,,"(0.75, 0.04)",images/min4.png,12,0.0595745396568,0.475502984365,[-0.7109375  -0.14166667],,,,,,,,['num_1'],,,,2018_Jul_08_1221,60.3423980887,sequenceLearningTask,001,160,
min1.png,min2.png,min3.png,min4.png,images/allBlank.png,"['num_7', 'num_4', 'num_1', 'num_0']",['num_1'],num_1,[3],'num_1',images/min3.png,"[(0.45, 0.79)]",,,,,0,-1,-1,0,2,3,11,2,,,,,,,,,,,,,"(-0.25, 0.04)",images/min2.png,12,0.0629304356407,0.560533923912,[ 0.7359375   0.01944444],,,,,,,,['num_1'],,,,2018_Jul_08_1221,60.3423980887,sequenceLearningTask,001,160,
min1.png,min2.png,min3.png,min4.png,images/allBlank.png,"['num_7', 'num_4', 'num_1', 'num_0']",['num_1'],num_1,[3],'num_1',images/min3.png,"[(0.45, 0.79)]",,,,,0,-1,-1,0,2,3,11,2,,,,,,,,,,,,,"(0.25, 0.04)",images/min3.png,12,0.0608426417457,0.547072185902,[-0.1578125  -0.13055556],,,,,,,,['num_1'],,,,2018_Jul_08_1221,60.3423980887,sequenceLearningTask,001,160,
min1.png,min2.png,min3.png,min4.png,images/allBlank.png,"['num_7', 'num_4', 'num_1', 'num_0']",['num_1'],num_1,[3],'num_1',images/min3.png,"[(0.45, 0.79)]",,,,,0,-1,-1,0,2,3,11,2,,,,,,,,,,,,,"(-0.25, 0.04)",images/min2.png,12,0.0609636673471,0.464670988848,[ 0.303125   -0.06388889],,,,,,,,['num_1'],,,,2018_Jul_08_1221,60.3423980887,sequenceLearningTask,001,160,
min1.png,min2.png,min3.png,min4.png,images/allBlank.png,"['num_7', 'num_4', 'num_1', 'num_0']",['num_0'],num_0,[4],'num_0',images/min4.png,"[(0.45, 0.79)]",,,,,0,-1,-1,0,3,0,12,3,,,,,,,,,,,,,"(0.25, 0.04)",images/min3.png,13,0.0554637720343,0.479425034137,[-0.309375    0.00833333],,,,,,,,['num_0'],,,,2018_Jul_08_1221,60.3423980887,sequenceLearningTask,001,160,
min1.png,min2.png,min3.png,min4.png,images/allBlank.png,"['num_7', 'num_4', 'num_1', 'num_0']",['num_0'],num_0,[4],'num_0',images/min4.png,"[(0.45, 0.79)]",,,,,0,-1,-1,0,3,0,12,3,,,,,,,,,,,,,"(0.25, 0.04)",images/min3.png,13,0.0563417203957,0.580456787487,[ 0.2078125   0.04166667],,,,,,,,['num_0'],,,,2018_Jul_08_1221,60.3423980887,sequenceLearningTask,001,160,
min1.png,min2.png,min3.png,min4.png,images/allBlank.png,"['num_7', 'num_4', 'num_1', 'num_0']",['num_0'],num_0,[4],'num_0',images/min4.png,"[(0.45, 0.79)]",,,,,0,-1,-1,0,3,0,12,3,,,,,,,,,,,,,"(0.75, 0.04)",images/min4.png,13,0.0569841817487,0.58687565662,[ 0.2140625  0.175    ],,,,,,,,['num_0'],,,,2018_Jul_08_1221,60.3423980887,sequenceLearningTask,001,160,
min1.png,min2.png,min3.png,min4.png,images/allBlank.png,"['num_7', 'num_4', 'num_1', 'num_0']",['num_0'],num_0,[4],'num_0',images/min4.png,"[(0.45, 0.79)]",,,,,0,-1,-1,0,3,0,12,3,,,,,,,,,,,,,"(-0.25, 0.04)",images/min2.png,13,0.0579938223818,0.452355916961,[ 0.5296875   0.09166667],,,,,,,,['num_0'],,,,2018_Jul_08_1221,60.3423980887,sequenceLearningTask,001,160,
min1.png,min2.png,min3.png,min4.png,images/allBlank.png,"['num_7', 'num_4', 'num_1', 'num_0']",['num_7'],num_7,[1],'num_7',images/min1.png,"[(0.45, 0.79)]",,,,,0,-1,-1,0,3,1,13,0,,,,,,,,,,,,,"(0.25, 0.04)",images/min3.png,14,0.0564032589318,0.45020822552,[-0.165625    0.01944444],,,,,,,,['num_7'],,,,2018_Jul_08_1221,60.3423980887,sequenceLearningTask,001,160,
min1.png,min2.png,min3.png,min4.png,images/allBlank.png,"['num_7', 'num_4', 'num_1', 'num_0']",['num_7'],num_7,[1],'num_7',images/min1.png,"[(0.45, 0.79)]",,,,,0,-1,-1,0,3,1,13,0,,,,,,,,,,,,,"(-0.75, 0.04)",images/min1.png,14,0.0696360740112,0.616581080481,[ 0.2         0.12777778],,,,,,,,['num_7'],,,,2018_Jul_08_1221,60.3423980887,sequenceLearningTask,001,160,
min1.png,min2.png,min3.png,min4.png,images/allBlank.png,"['num_7', 'num_4', 'num_1', 'num_0']",['num_7'],num_7,[1],'num_7',images/min1.png,"[(0.45, 0.79)]",,,,,0,-1,-1,0,3,1,13,0,,,,,,,,,,,,,"(0.25, 0.04)",images/min3.png,14,0.0611893082969,0.425178492209,[-0.7625     -0.09166667],,,,,,,,['num_7'],,,,2018_Jul_08_1221,60.3423980887,sequenceLearningTask,001,160,
min1.png,min2.png,min3.png,min4.png,images/allBlank.png,"['num_7', 'num_4', 'num_1', 'num_0']",['num_7'],num_7,[1],'num_7',images/min1.png,"[(0.45, 0.79)]",,,,,0,-1,-1,0,3,1,13,0,,,,,,,,,,,,,"(-0.25, 0.04)",images/min2.png,14,0.0601263343124,0.632350099622,[ 0.23125     0.04722222],,,,,,,,['num_7'],,,,2018_Jul_08_1221,60.3423980887,sequenceLearningTask,001,160,
min1.png,min2.png,min3.png,min4.png,images/allBlank.png,"['num_7', 'num_4', 'num_1', 'num_0']",['num_1'],num_1,[3],'num_1',images/min3.png,"[(0.45, 0.79)]",,,,,0,-1,-1,0,3,2,14,2,,,,,,,,,,,,,"(0.75, 0.04)",images/min4.png,15,0.0524873629911,0.638578609796,[-0.2265625   0.03611111],,,,,,,,['num_1'],,,,2018_Jul_08_1221,60.3423980887,sequenceLearningTask,001,160,
min1.png,min2.png,min3.png,min4.png,images/allBlank.png,"['num_7', 'num_4', 'num_1', 'num_0']",['num_1'],num_1,[3],'num_1',images/min3.png,"[(0.45, 0.79)]",,,,,0,-1,-1,0,3,2,14,2,,,,,,,,,,,,,"(-0.25, 0.04)",images/min2.png,15,0.0570206945995,0.41901849478,[ 0.646875    0.25833333],,,,,,,,['num_1'],,,,2018_Jul_08_1221,60.3423980887,sequenceLearningTask,001,160,
min1.png,min2.png,min3.png,min4.png,images/allBlank.png,"['num_7', 'num_4', 'num_1', 'num_0']",['num_1'],num_1,[3],'num_1',images/min3.png,"[(0.45, 0.79)]",,,,,0,-1,-1,0,3,2,14,2,,,,,,,,,,,,,"(-0.75, 0.04)",images/min1.png,15,0.0599080780521,0.697817559936,[-0.2296875   0.05277778],,,,,,,,['num_1'],,,,2018_Jul_08_1221,60.3423980887,sequenceLearningTask,001,160,
min1.png,min2.png,min3.png,min4.png,images/allBlank.png,"['num_7', 'num_4', 'num_1', 'num_0']",['num_1'],num_1,[3],'num_1',images/min3.png,"[(0.45, 0.79)]",,,,,0,-1,-1,0,3,2,14,2,,,,,,,,,,,,,"(-0.25, 0.04)",images/min2.png,15,0.0549382339232,0.624289795174,[-0.6125     -0.10833333],,,,,,,,['num_1'],,,,2018_Jul_08_1221,60.3423980887,sequenceLearningTask,001,160,
min1.png,min2.png,min3.png,min4.png,images/allBlank.png,"['num_7', 'num_4', 'num_1', 'num_0']",['num_4'],num_4,[2],'num_4',images/min2.png,"[(0.45, 0.79)]",,,,,0,-1,-1,0,3,3,15,1,,,,,,,,,,,,,"(-0.75, 0.04)",images/min1.png,16,0.0519794658758,0.770823478699,[-0.1453125   0.11666667],,,,,,,,['num_4'],,,,2018_Jul_08_1221,60.3423980887,sequenceLearningTask,001,160,
min1.png,min2.png,min3.png,min4.png,images/allBlank.png,"['num_7', 'num_4', 'num_1', 'num_0']",['num_4'],num_4,[2],'num_4',images/min2.png,"[(0.45, 0.79)]",,,,,0,-1,-1,0,3,3,15,1,,,,,,,,,,,,,"(-0.25, 0.04)",images/min2.png,16,0.0614141286351,0.581775350962,[-0.6671875  -0.09722222],,,,,,,,['num_4'],,,,2018_Jul_08_1221,60.3423980887,sequenceLearningTask,001,160,
min1.png,min2.png,min3.png,min4.png,images/allBlank.png,"['num_7', 'num_4', 'num_1', 'num_0']",['num_4'],num_4,[2],'num_4',images/min2.png,"[(0.45, 0.79)]",,,,,0,-1,-1,0,3,3,15,1,,,,,,,,,,,,,"(-0.75, 0.04)",images/min1.png,16,0.0629493074957,0.778955167625,[-0.1734375   0.02777778],,,,,,,,['num_4'],,,,2018_Jul_08_1221,60.3423980887,sequenceLearningTask,001,160,
min1.png,min2.png,min3.png,min4.png,images/allBlank.png,"['num_7', 'num_4', 'num_1', 'num_0']",['num_4'],num_4,[2],'num_4',images/min2.png,"[(0.45, 0.79)]",,,,,0,-1,-1,0,3,3,15,1,,,,,,,,,,,,,"(0.75, 0.04)",images/min4.png,16,0.0551462337608,0.691534895799,[-0.6296875  -0.06944444],,,,,,,,['num_4'],,,,2018_Jul_08_1221,60.3423980887,sequenceLearningTask,001,160,
min1.png,min2.png,min3.png,min4.png,images/allBlank.png,"['num_7', 'num_4', 'num_1', 'num_0']",['num_4'],num_4,[2],'num_4',images/min2.png,"[(0.45, 0.79)]",,,,,0,-1,-1,0,4,0,16,1,,,,,,,,,,,,,"(-0.75, 0.04)",images/min1.png,17,0.0652188450331,0.585697400733,[ 0.634375    0.28055556],,,,,,,,['num_4'],,,,2018_Jul_08_1221,60.3423980887,sequenceLearningTask,001,160,
min1.png,min2.png,min3.png,min4.png,images/allBlank.png,"['num_7', 'num_4', 'num_1', 'num_0']",['num_4'],num_4,[2],'num_4',images/min2.png,"[(0.45, 0.79)]",,,,,0,-1,-1,0,4,0,16,1,,,,,,,,,,,,,"(-0.25, 0.04)",images/min2.png,17,0.0686805872247,0.502239383641,[-0.6453125  -0.05555556],,,,,,,,['num_4'],,,,2018_Jul_08_1221,60.3423980887,sequenceLearningTask,001,160,
min1.png,min2.png,min3.png,min4.png,images/allBlank.png,"['num_7', 'num_4', 'num_1', 'num_0']",['num_4'],num_4,[2],'num_4',images/min2.png,"[(0.45, 0.79)]",,,,,0,-1,-1,0,4,0,16,1,,,,,,,,,,,,,"(-0.25, 0.04)",images/min2.png,17,0.053218439687,0.634131432162,[-0.1453125  -0.01388889],,,,,,,,['num_4'],,,,2018_Jul_08_1221,60.3423980887,sequenceLearningTask,001,160,
min1.png,min2.png,min3.png,min4.png,images/allBlank.png,"['num_7', 'num_4', 'num_1', 'num_0']",['num_4'],num_4,[2],'num_4',images/min2.png,"[(0.45, 0.79)]",,,,,0,-1,-1,0,4,0,16,1,,,,,,,,,,,,,"(0.25, 0.04)",images/min3.png,17,0.0665226394776,0.522118760156,[-0.0796875   0.01388889],,,,,,,,['num_4'],,,,2018_Jul_08_1221,60.3423980887,sequenceLearningTask,001,160,
min1.png,min2.png,min3.png,min4.png,images/allBlank.png,"['num_7', 'num_4', 'num_1', 'num_0']",['num_1'],num_1,[3],'num_1',images/min3.png,"[(0.45, 0.79)]",,,,,0,-1,-1,0,4,1,17,2,,,,,,,,,,,,,"(-0.25, 0.04)",images/min2.png,18,0.0516549531603,0.420142186573,[ 0.2875      0.01388889],,,,,,,,['num_1'],,,,2018_Jul_08_1221,60.3423980887,sequenceLearningTask,001,160,
min1.png,min2.png,min3.png,min4.png,images/allBlank.png,"['num_7', 'num_4', 'num_1', 'num_0']",['num_1'],num_1,[3],'num_1',images/min3.png,"[(0.45, 0.79)]",,,,,0,-1,-1,0,4,1,17,2,,,,,,,,,,,,,"(-0.75, 0.04)",images/min1.png,18,0.0656935115112,0.661568549112,[-0.2859375  -0.06388889],,,,,,,,['num_1'],,,,2018_Jul_08_1221,60.3423980887,sequenceLearningTask,001,160,
min1.png,min2.png,min3.png,min4.png,images/allBlank.png,"['num_7', 'num_4', 'num_1', 'num_0']",['num_1'],num_1,[3],'num_1',images/min3.png,"[(0.45, 0.79)]",,,,,0,-1,-1,0,4,1,17,2,,,,,,,,,,,,,"(0.75, 0.04)",images/min4.png,18,0.0616660258966,0.662611010252,[-0.6796875  -0.03888889],,,,,,,,['num_1'],,,,2018_Jul_08_1221,60.3423980887,sequenceLearningTask,001,160,
min1.png,min2.png,min3.png,min4.png,images/allBlank.png,"['num_7', 'num_4', 'num_1', 'num_0']",['num_1'],num_1,[3],'num_1',images/min3.png,"[(0.45, 0.79)]",,,,,0,-1,-1,0,4,1,17,2,,,,,,,,,,,,,"(-0.75, 0.04)",images/min1.png,18,0.0621981283184,0.594712371356,[ 0.678125    0.13055556],,,,,,,,['num_1'],,,,2018_Jul_08_1221,60.3423980887,sequenceLearningTask,001,160,
min1.png,min2.png,min3.png,min4.png,images/allBlank.png,"['num_7', 'num_4', 'num_1', 'num_0']",['num_7'],num_7,[1],'num_7',images/min1.png,"[(0.45, 0.79)]",,,,,0,-1,-1,0,4,2,18,0,,,,,,,,,,,,,"(0.75, 0.04)",images/min4.png,19,0.0623581283726,0.809711257578,[-0.7609375   0.00555556],,,,,,,,['num_7'],,,,2018_Jul_08_1221,60.3423980887,sequenceLearningTask,001,160,
min1.png,min2.png,min3.png,min4.png,images/allBlank.png,"['num_7', 'num_4', 'num_1', 'num_0']",['num_7'],num_7,[1],'num_7',images/min1.png,"[(0.45, 0.79)]",,,,,0,-1,-1,0,4,2,18,0,,,,,,,,,,,,,"(-0.75, 0.04)",images/min1.png,19,0.0815540177282,0.390473685926,[ 0.7109375   0.13888889],,,,,,,,['num_7'],,,,2018_Jul_08_1221,60.3423980887,sequenceLearningTask,001,160,
min1.png,min2.png,min3.png,min4.png,images/allBlank.png,"['num_7', 'num_4', 'num_1', 'num_0']",['num_7'],num_7,[1],'num_7',images/min1.png,"[(0.45, 0.79)]",,,,,0,-1,-1,0,4,2,18,0,,,,,,,,,,,,,"(0.25, 0.04)",images/min3.png,19,0.0766260199016,0.611766723334,[-0.5578125   0.11944444],,,,,,,,['num_7'],,,,2018_Jul_08_1221,60.3423980887,sequenceLearningTask,001,160,
min1.png,min2.png,min3.png,min4.png,images/allBlank.png,"['num_7', 'num_4', 'num_1', 'num_0']",['num_7'],num_7,[1],'num_7',images/min1.png,"[(0.45, 0.79)]",,,,,0,-1,-1,0,4,2,18,0,,,,,,,,,,,,,"(-0.75, 0.04)",images/min1.png,19,0.0583441811614,0.731546776718,[ 0.240625   -0.06388889],,,,,,,,['num_7'],,,,2018_Jul_08_1221,60.3423980887,sequenceLearningTask,001,160,
min1.png,min2.png,min3.png,min4.png,images/allBlank.png,"['num_7', 'num_4', 'num_1', 'num_0']",['num_0'],num_0,[4],'num_0',images/min4.png,"[(0.45, 0.79)]",,,,,0,-1,-1,0,4,3,19,3,,,,,,,,,,,,,"(0.75, 0.04)",images/min4.png,20,0.0866416054778,0.63300650951,[-0.709375   -0.14722222],,,,,,,,['num_0'],,,,2018_Jul_08_1221,60.3423980887,sequenceLearningTask,001,160,
min1.png,min2.png,min3.png,min4.png,images/allBlank.png,"['num_7', 'num_4', 'num_1', 'num_0']",['num_0'],num_0,[4],'num_0',images/min4.png,"[(0.45, 0.79)]",,,,,0,-1,-1,0,4,3,19,3,,,,,,,,,,,,,"(-0.25, 0.04)",images/min2.png,20,0.0569698228501,0.478183188476,[ 0.6546875   0.14722222],,,,,,,,['num_0'],,,,2018_Jul_08_1221,60.3423980887,sequenceLearningTask,001,160,
min1.png,min2.png,min3.png,min4.png,images/allBlank.png,"['num_7', 'num_4', 'num_1', 'num_0']",['num_0'],num_0,[4],'num_0',images/min4.png,"[(0.45, 0.79)]",,,,,0,-1,-1,0,4,3,19,3,,,,,,,,,,,,,"(0.25, 0.04)",images/min3.png,20,0.0694555612281,1.00399999833,[-0.1359375   0.07777778],,,,,,,,['num_0'],,,,2018_Jul_08_1221,60.3423980887,sequenceLearningTask,001,160,
min1.png,min2.png,min3.png,min4.png,images/allBlank.png,"['num_7', 'num_4', 'num_1', 'num_0']",['num_0'],num_0,[4],'num_0',images/min4.png,"[(0.45, 0.79)]",,,,,0,-1,-1,0,4,3,19,3,,,,,,,,,,,,,"(0.75, 0.04)",images/min4.png,20,0.0545431571081,0.501627281425,[ 0.3         0.13333333],,,,,,,,['num_0'],,,,2018_Jul_08_1221,60.3423980887,sequenceLearningTask,001,160,
min1.png,min2.png,min3.png,min4.png,allBlank.png,"['num_7', 'num_4', 'num_1', 'num_0']",['num_0'],num_0,[4],'num_0',images/min4.png,"[(0.45, 0.79)]",,,,,0,0,0,0,4,3,19,3,,,,,,,,,,,,,"(-0.75, -0.04)",images/min1.png,1,0.0361025492894,0.686198282638,[ 0.64375     0.19166667],,,,,,,,['num_0'],,,,2018_Jul_08_1221,60.3423980887,sequenceLearningTask,001,160,
min1.png,min2.png,min3.png,min4.png,allBlank.png,"['num_7', 'num_4', 'num_1', 'num_0']",['num_0'],num_0,[4],'num_0',images/min4.png,"[(0.45, 0.79)]",,,,,0,0,0,0,4,3,19,3,,,,,,,,,,,,,"(0.25, -0.04)",images/min3.png,1,0.0597620267654,0.334088478354,[-0.5875 -0.125 ],,,,,,,,['num_0'],,,,2018_Jul_08_1221,60.3423980887,sequenceLearningTask,001,160,
min1.png,min2.png,min3.png,min4.png,allBlank.png,"['num_7', 'num_4', 'num_1', 'num_0']",['num_0'],num_0,[4],'num_0',images/min4.png,"[(0.45, 0.79)]",,,,,0,0,0,0,4,3,19,3,,,,,,,,,,,,,"(-0.25, -0.04)",images/min2.png,1,0.0643047940684,0.395770094008,[ 0.2109375   0.06388889],,,,,,,,['num_0'],,,,2018_Jul_08_1221,60.3423980887,sequenceLearningTask,001,160,
min1.png,min2.png,min3.png,min4.png,allBlank.png,"['num_7', 'num_4', 'num_1', 'num_0']",['num_0'],num_0,[4],'num_0',images/min4.png,"[(0.45, 0.79)]",,,,,0,0,0,0,4,3,19,3,,,,,,,,,,,,,"(0.75, -0.04)",images/min4.png,1,0.0556081823306,0.567994843936,[-0.2671875  -0.06944444],,,,,,,,['num_0'],,,,2018_Jul_08_1221,60.3423980887,sequenceLearningTask,001,160,
min1.png,min2.png,min3.png,min4.png,allBlank.png,"['num_7', 'num_4', 'num_1', 'num_0']",['num_0'],num_0,[4],'num_0',images/min4.png,"[(0.45, 0.79)]",,,,,0,0,0,0,4,3,19,3,,,,,,,,,,,,,"(0.75, -0.04)",images/min4.png,1,0.0634494099068,0.778910859954,[ 0.6484375   0.06944444],,,,,,,,['num_0'],,,,2018_Jul_08_1221,60.3423980887,sequenceLearningTask,001,160,
min1.png,min2.png,min3.png,min4.png,allBlank.png,"['num_7', 'num_4', 'num_1', 'num_0']",['num_0'],num_0,[4],'num_0',images/min4.png,"[(0.45, 0.79)]",,,,,0,0,0,0,4,3,19,3,,,,,,,,,,,,,"(-0.25, -0.04)",images/min2.png,1,0.0516410045093,0.625974307186,[ 0.5828125   0.00277778],,,,,,,,['num_0'],,,,2018_Jul_08_1221,60.3423980887,sequenceLearningTask,001,160,
min1.png,min2.png,min3.png,min4.png,allBlank.png,"['num_7', 'num_4', 'num_1', 'num_0']",['num_0'],num_0,[4],'num_0',images/min4.png,"[(0.45, 0.79)]",,,,,0,0,0,0,4,3,19,3,,,,,,,,,,,,,"(0.25, -0.04)",images/min3.png,1,0.0590695142746,0.383841483505,[-0.2640625  -0.08611111],,,,,,,,['num_0'],,,,2018_Jul_08_1221,60.3423980887,sequenceLearningTask,001,160,
min1.png,min2.png,min3.png,min4.png,allBlank.png,"['num_7', 'num_4', 'num_1', 'num_0']",['num_0'],num_0,[4],'num_0',images/min4.png,"[(0.45, 0.79)]",,,,,0,0,0,0,4,3,19,3,,,,,,,,,,,,,"(0.75, -0.04)",images/min4.png,1,0.0499749538722,1.1779716193,[ 0.1125      0.03888889],,,,,,,,['num_0'],,,,2018_Jul_08_1221,60.3423980887,sequenceLearningTask,001,160,
min1.png,min2.png,min3.png,min4.png,allBlank.png,"['num_7', 'num_4', 'num_1', 'num_0']",['num_0'],num_0,[4],'num_0',images/min4.png,"[(0.45, 0.79)]",,,,,0,1,1,1,4,3,19,3,,,,,,,,,,,,,"(-0.75, -0.04)",images/min1.png,2,0.0553817208856,0.730661854148,[ 0.6859375   0.06388889],,,,,,,,['num_0'],,,,2018_Jul_08_1221,60.3423980887,sequenceLearningTask,001,160,
min1.png,min2.png,min3.png,min4.png,allBlank.png,"['num_7', 'num_4', 'num_1', 'num_0']",['num_0'],num_0,[4],'num_0',images/min4.png,"[(0.45, 0.79)]",,,,,0,1,1,1,4,3,19,3,,,,,,,,,,,,,"(0.25, -0.04)",images/min3.png,2,0.0609501289437,0.583029094152,[-0.5671875  -0.13055556],,,,,,,,['num_0'],,,,2018_Jul_08_1221,60.3423980887,sequenceLearningTask,001,160,
min1.png,min2.png,min3.png,min4.png,allBlank.png,"['num_7', 'num_4', 'num_1', 'num_0']",['num_0'],num_0,[4],'num_0',images/min4.png,"[(0.45, 0.79)]",,,,,0,1,1,1,4,3,19,3,,,,,,,,,,,,,"(-0.25, -0.04)",images/min2.png,2,0.0609817185905,0.847472062567,[ 0.2953125   0.03611111],,0.346057293937,1,,,,,['num_0'],,,,2018_Jul_08_1221,60.3423980887,sequenceLearningTask,001,160,
min1.png,min2.png,min3.png,min4.png,allBlank.png,"['num_7', 'num_4', 'num_1', 'num_0']",['num_0'],num_0,[4],'num_0',images/min4.png,"[(0.45, 0.79)]",,,,,0,1,1,1,4,3,19,3,,,,,,,,,,,,,"(0.75, -0.04)",images/min4.png,2,0.0572131046792,0.499029128696,[-0.221875   -0.20277778],,,,,,,,['num_0'],,,,2018_Jul_08_1221,60.3423980887,sequenceLearningTask,001,160,
min1.png,min2.png,min3.png,min4.png,allBlank.png,"['num_7', 'num_4', 'num_1', 'num_0']",['num_0'],num_0,[4],'num_0',images/min4.png,"[(0.45, 0.79)]",,,,,0,1,1,1,4,3,19,3,,,,,,,,,,,,,"(0.75, -0.04)",images/min4.png,2,0.0568274639081,0.579462736612,[ 0.609375   -0.05555556],,,,,,,,['num_0'],,,,2018_Jul_08_1221,60.3423980887,sequenceLearningTask,001,160,
min1.png,min2.png,min3.png,min4.png,allBlank.png,"['num_7', 'num_4', 'num_1', 'num_0']",['num_0'],num_0,[4],'num_0',images/min4.png,"[(0.45, 0.79)]",,,,,0,1,1,1,4,3,19,3,,,,,,,,,,,,,"(-0.25, -0.04)",images/min2.png,2,0.0555987464031,0.422012955067,[ 0.6703125   0.15277778],,,,,,,,['num_0'],,,,2018_Jul_08_1221,60.3423980887,sequenceLearningTask,001,160,
min1.png,min2.png,min3.png,min4.png,allBlank.png,"['num_7', 'num_4', 'num_1', 'num_0']",['num_0'],num_0,[4],'num_0',images/min4.png,"[(0.45, 0.79)]",,,,,0,1,1,1,4,3,19,3,,,,,,,,,,,,,"(0.25, -0.04)",images/min3.png,2,0.0559162846766,0.435872231494,[-0.2296875  -0.06944444],,,,,,,,['num_0'],,,,2018_Jul_08_1221,60.3423980887,sequenceLearningTask,001,160,
min1.png,min2.png,min3.png,min4.png,allBlank.png,"['num_7', 'num_4', 'num_1', 'num_0']",['num_0'],num_0,[4],'num_0',images/min4.png,"[(0.45, 0.79)]",,,,,0,1,1,1,4,3,19,3,,,,,,,,,,,,,"(0.75, -0.04)",images/min4.png,2,0.0587142322911,0.583055350464,[ 0.2546875   0.01666667],,,,,,,,['num_0'],,,,2018_Jul_08_1221,60.3423980887,sequenceLearningTask,001,160,
min1.png,min2.png,min3.png,min4.png,allBlank.png,"['num_7', 'num_4', 'num_1', 'num_0']",['num_0'],num_0,[4],'num_0',images/min4.png,"[(0.45, 0.79)]",,,,,0,2,2,2,4,3,19,3,,,,,,,,,,,,,"(-0.75, -0.04)",images/min1.png,3,0.0495782360667,1.27875106514,[ 0.6203125   0.03888889],,,,,,,,['num_0'],,,,2018_Jul_08_1221,60.3423980887,sequenceLearningTask,001,160,
min1.png,min2.png,min3.png,min4.png,allBlank.png,"['num_7', 'num_4', 'num_1', 'num_0']",['num_0'],num_0,[4],'num_0',images/min4.png,"[(0.45, 0.79)]",,,,,0,2,2,2,4,3,19,3,,,,,,,,,,,,,"(0.25, -0.04)",images/min3.png,3,0.0601287959144,0.411316754413,[-0.55       -0.03611111],,,,,,,,['num_0'],,,,2018_Jul_08_1221,60.3423980887,sequenceLearningTask,001,160,
min1.png,min2.png,min3.png,min4.png,allBlank.png,"['num_7', 'num_4', 'num_1', 'num_0']",['num_0'],num_0,[4],'num_0',images/min4.png,"[(0.45, 0.79)]",,,,,0,2,2,2,4,3,19,3,,,,,,,,,,,,,"(-0.25, -0.04)",images/min2.png,3,0.0558777207043,0.669981673826,[ 0.253125    0.01388889],,,,,,,,['num_0'],,,,2018_Jul_08_1221,60.3423980887,sequenceLearningTask,001,160,
min1.png,min2.png,min3.png,min4.png,allBlank.png,"['num_7', 'num_4', 'num_1', 'num_0']",['num_0'],num_0,[4],'num_0',images/min4.png,"[(0.45, 0.79)]",,,,,0,2,2,2,4,3,19,3,,,,,,,,,,,,,"(0.75, -0.04)",images/min4.png,3,0.0514822353143,0.609368775622,[-0.1171875  -0.01666667],,,,,,,,['num_0'],,,,2018_Jul_08_1221,60.3423980887,sequenceLearningTask,001,160,
min1.png,min2.png,min3.png,min4.png,allBlank.png,"['num_7', 'num_4', 'num_1', 'num_0']",['num_0'],num_0,[4],'num_0',images/min4.png,"[(0.45, 0.79)]",,,,,0,2,2,2,4,3,19,3,,,,,,,,,,,,,"(0.75, -0.04)",images/min4.png,3,0.057200386771,0.986632210668,[ 0.55        0.24166667],,0.531218243646,1,,,,,['num_0'],,,,2018_Jul_08_1221,60.3423980887,sequenceLearningTask,001,160,
min1.png,min2.png,min3.png,min4.png,allBlank.png,"['num_7', 'num_4', 'num_1', 'num_0']",['num_0'],num_0,[4],'num_0',images/min4.png,"[(0.45, 0.79)]",,,,,0,2,2,2,4,3,19,3,,,,,,,,,,,,,"(-0.25, -0.04)",images/min2.png,3,0.0547150545754,0.502016204293,[ 0.5578125   0.14166667],,,,,,,,['num_0'],,,,2018_Jul_08_1221,60.3423980887,sequenceLearningTask,001,160,
min1.png,min2.png,min3.png,min4.png,allBlank.png,"['num_7', 'num_4', 'num_1', 'num_0']",['num_0'],num_0,[4],'num_0',images/min4.png,"[(0.45, 0.79)]",,,,,0,2,2,2,4,3,19,3,,,,,,,,,,,,,"(0.25, -0.04)",images/min3.png,3,0.0542637725594,0.437183000147,[-0.1234375  -0.04444444],,,,,,,,['num_0'],,,,2018_Jul_08_1221,60.3423980887,sequenceLearningTask,001,160,
min1.png,min2.png,min3.png,min4.png,allBlank.png,"['num_7', 'num_4', 'num_1', 'num_0']",['num_0'],num_0,[4],'num_0',images/min4.png,"[(0.45, 0.79)]",,,,,0,2,2,2,4,3,19,3,,,,,,,,,,,,,"(0.75, -0.04)",images/min4.png,3,0.0556028489955,0.535576805938,[ 0.28125     0.06388889],,,,,,,,['num_0'],,,,2018_Jul_08_1221,60.3423980887,sequenceLearningTask,001,160,
min1.png,min2.png,min3.png,min4.png,allBlank.png,"['num_7', 'num_4', 'num_1', 'num_0']",['num_0'],num_0,[4],'num_0',images/min4.png,"[(0.45, 0.79)]",,,,,0,3,3,3,4,3,19,3,,,,,,,,,,,,,"(-0.75, -0.04)",images/min1.png,4,0.0610650005983,0.663510291837,[ 0.571875    0.13333333],,,,,,,,['num_0'],,,,2018_Jul_08_1221,60.3423980887,sequenceLearningTask,001,160,
min1.png,min2.png,min3.png,min4.png,allBlank.png,"['num_7', 'num_4', 'num_1', 'num_0']",['num_0'],num_0,[4],'num_0',images/min4.png,"[(0.45, 0.79)]",,,,,0,3,3,3,4,3,19,3,,,,,,,,,,,,,"(0.25, -0.04)",images/min3.png,4,0.0522092094179,0.470897447783,[-0.596875   -0.26388889],,,,,,,,['num_0'],,,,2018_Jul_08_1221,60.3423980887,sequenceLearningTask,001,160,
min1.png,min2.png,min3.png,min4.png,allBlank.png,"['num_7', 'num_4', 'num_1', 'num_0']",['num_0'],num_0,[4],'num_0',images/min4.png,"[(0.45, 0.79)]",,,,,0,3,3,3,4,3,19,3,,,,,,,,,,,,,"(-0.25, -0.04)",images/min2.png,4,0.0525300296722,0.441317562596,[ 0.25625    -0.04166667],,,,,,,,['num_0'],,,,2018_Jul_08_1221,60.3423980887,sequenceLearningTask,001,160,
min1.png,min2.png,min3.png,min4.png,allBlank.png,"['num_7', 'num_4', 'num_1', 'num_0']",['num_0'],num_0,[4],'num_0',images/min4.png,"[(0.45, 0.79)]",,,,,0,3,3,3,4,3,19,3,,,,,,,,,,,,,"(0.75, -0.04)",images/min4.png,4,0.0529193629045,0.792719264515,[-0.1484375  -0.23888889],,,,,,,,['num_0'],,,,2018_Jul_08_1221,60.3423980887,sequenceLearningTask,001,160,
min1.png,min2.png,min3.png,min4.png,allBlank.png,"['num_7', 'num_4', 'num_1', 'num_0']",['num_0'],num_0,[4],'num_0',images/min4.png,"[(0.45, 0.79)]",,,,,0,3,3,3,4,3,19,3,,,,,,,,,,,,,"(0.75, -0.04)",images/min4.png,4,0.0575798738282,0.970683499239,[ 0.6140625   0.19722222],,0.584306632169,1,,,,,['num_0'],,,,2018_Jul_08_1221,60.3423980887,sequenceLearningTask,001,160,
min1.png,min2.png,min3.png,min4.png,allBlank.png,"['num_7', 'num_4', 'num_1', 'num_0']",['num_0'],num_0,[4],'num_0',images/min4.png,"[(0.45, 0.79)]",,,,,0,3,3,3,4,3,19,3,,,,,,,,,,,,,"(-0.25, -0.04)",images/min2.png,4,0.057202438009,0.469238781952,[ 0.6015625   0.08055556],,,,,,,,['num_0'],,,,2018_Jul_08_1221,60.3423980887,sequenceLearningTask,001,160,
min1.png,min2.png,min3.png,min4.png,allBlank.png,"['num_7', 'num_4', 'num_1', 'num_0']",['num_0'],num_0,[4],'num_0',images/min4.png,"[(0.45, 0.79)]",,,,,0,3,3,3,4,3,19,3,,,,,,,,,,,,,"(0.25, -0.04)",images/min3.png,4,0.0579240787774,0.451462789206,[-0.0734375  0.       ],,,,,,,,['num_0'],,,,2018_Jul_08_1221,60.3423980887,sequenceLearningTask,001,160,
min1.png,min2.png,min3.png,min4.png,allBlank.png,"['num_7', 'num_4', 'num_1', 'num_0']",['num_0'],num_0,[4],'num_0',images/min4.png,"[(0.45, 0.79)]",,,,,0,3,3,3,4,3,19,3,,,,,,,,,,,,,"(0.75, -0.04)",images/min4.png,4,0.0519675684627,0.742529336479,[ 0.3234375   0.16111111],,,,,,,,['num_0'],,,,2018_Jul_08_1221,60.3423980887,sequenceLearningTask,001,160,
min1.png,min2.png,min3.png,min4.png,allBlank.png,"['num_7', 'num_4', 'num_1', 'num_0']",['num_0'],num_0,[4],'num_0',images/min4.png,"[(0.45, 0.79)]",,,,,0,4,4,4,4,3,19,3,,,,,,,,,,,,,"(-0.75, -0.04)",images/min1.png,5,0.0571577200899,0.794182238285,[ 0.6203125   0.07777778],,,,,,,,['num_0'],,,,2018_Jul_08_1221,60.3423980887,sequenceLearningTask,001,160,
min1.png,min2.png,min3.png,min4.png,allBlank.png,"['num_7', 'num_4', 'num_1', 'num_0']",['num_0'],num_0,[4],'num_0',images/min4.png,"[(0.45, 0.79)]",,,,,0,4,4,4,4,3,19,3,,,,,,,,,,,,,"(0.25, -0.04)",images/min3.png,5,0.0515802865848,0.593072987394,[-0.5953125  -0.28611111],,,,,,,,['num_0'],,,,2018_Jul_08_1221,60.3423980887,sequenceLearningTask,001,160,
min1.png,min2.png,min3.png,min4.png,allBlank.png,"['num_7', 'num_4', 'num_1', 'num_0']",['num_0'],num_0,[4],'num_0',images/min4.png,"[(0.45, 0.79)]",,,,,0,4,4,4,4,3,19,3,,,,,,,,,,,,,"(-0.25, -0.04)",images/min2.png,5,0.0533312602201,0.537033625878,[ 0.3609375   0.10833333],,,,,,,,['num_0'],,,,2018_Jul_08_1221,60.3423980887,sequenceLearningTask,001,160,
min1.png,min2.png,min3.png,min4.png,allBlank.png,"['num_7', 'num_4', 'num_1', 'num_0']",['num_0'],num_0,[4],'num_0',images/min4.png,"[(0.45, 0.79)]",,,,,0,4,4,4,4,3,19,3,,,,,,,,,,,,,"(0.75, -0.04)",images/min4.png,5,0.0600163856288,0.551735568559,[-0.1078125  -0.03611111],,,,,,,,['num_0'],,,,2018_Jul_08_1221,60.3423980887,sequenceLearningTask,001,160,
min1.png,min2.png,min3.png,min4.png,allBlank.png,"['num_7', 'num_4', 'num_1', 'num_0']",['num_0'],num_0,[4],'num_0',images/min4.png,"[(0.45, 0.79)]",,,,,0,4,4,4,4,3,19,3,,,,,,,,,,,,,"(0.75, -0.04)",images/min4.png,5,0.0629411024274,0.522871170077,[ 0.7125      0.21111111],,,,,,,,['num_0'],,,,2018_Jul_08_1221,60.3423980887,sequenceLearningTask,001,160,
min1.png,min2.png,min3.png,min4.png,allBlank.png,"['num_7', 'num_4', 'num_1', 'num_0']",['num_0'],num_0,[4],'num_0',images/min4.png,"[(0.45, 0.79)]",,,,,0,4,4,4,4,3,19,3,,,,,,,,,,,,,"(-0.25, -0.04)",images/min2.png,5,0.0601981291547,0.566789100878,[ 0.7921875   0.14166667],,,,,,,,['num_0'],,,,2018_Jul_08_1221,60.3423980887,sequenceLearningTask,001,160,
min1.png,min2.png,min3.png,min4.png,allBlank.png,"['num_7', 'num_4', 'num_1', 'num_0']",['num_0'],num_0,[4],'num_0',images/min4.png,"[(0.45, 0.79)]",,,,,0,4,4,4,4,3,19,3,,,,,,,,,,,,,"(0.25, -0.04)",images/min3.png,5,0.0598461292684,0.452147096628,[-0.1203125 -0.175    ],,,,,,,,['num_0'],,,,2018_Jul_08_1221,60.3423980887,sequenceLearningTask,001,160,
min1.png,min2.png,min3.png,min4.png,allBlank.png,"['num_7', 'num_4', 'num_1', 'num_0']",['num_0'],num_0,[4],'num_0',images/min4.png,"[(0.45, 0.79)]",,,,,0,4,4,4,4,3,19,3,,,,,,,,,,,,,"(0.75, -0.04)",images/min4.png,5,0.0587491041515,0.527529219398,[ 0.328125   -0.06111111],,,,,,,,['num_0'],,,,2018_Jul_08_1221,60.3423980887,sequenceLearningTask,001,160,
min1.png,min2.png,min3.png,min4.png,allBlank.png,"['num_7', 'num_4', 'num_1', 'num_0']",['num_0'],num_0,[4],'num_0',images/min4.png,"[(0.45, 0.79)]",,,,,0,5,5,5,4,3,19,3,,,,,,,,,,,,,"(-0.75, -0.04)",images/min1.png,6,0.0608451033477,0.747224308783,[ 0.7203125   0.03055556],,,,,,,,['num_0'],,,,2018_Jul_08_1221,60.3423980887,sequenceLearningTask,001,160,
min1.png,min2.png,min3.png,min4.png,allBlank.png,"['num_7', 'num_4', 'num_1', 'num_0']",['num_0'],num_0,[4],'num_0',images/min4.png,"[(0.45, 0.79)]",,,,,0,5,5,5,4,3,19,3,,,,,,,,,,,,,"(0.25, -0.04)",images/min3.png,6,0.0596118730027,0.66527972708,[-0.5765625  -0.22777778],,,,,,,,['num_0'],,,,2018_Jul_08_1221,60.3423980887,sequenceLearningTask,001,160,
min1.png,min2.png,min3.png,min4.png,allBlank.png,"['num_7', 'num_4', 'num_1', 'num_0']",['num_0'],num_0,[4],'num_0',images/min4.png,"[(0.45, 0.79)]",,,,,0,5,5,5,4,3,19,3,,,,,,,,,,,,,"(-0.25, -0.04)",images/min2.png,6,0.0569833611371,0.635667431634,[ 0.371875    0.08611111],,,,,,,,['num_0'],,,,2018_Jul_08_1221,60.3423980887,sequenceLearningTask,001,160,
min1.png,min2.png,min3.png,min4.png,allBlank.png,"['num_7', 'num_4', 'num_1', 'num_0']",['num_0'],num_0,[4],'num_0',images/min4.png,"[(0.45, 0.79)]",,,,,0,5,5,5,4,3,19,3,,,,,,,,,,,,,"(0.75, -0.04)",images/min4.png,6,0.05725413037,0.689666999038,[-0.1421875  -0.20277778],,,,,,,,['num_0'],,,,2018_Jul_08_1221,60.3423980887,sequenceLearningTask,001,160,
min1.png,min2.png,min3.png,min4.png,allBlank.png,"['num_7', 'num_4', 'num_1', 'num_0']",['num_0'],num_0,[4],'num_0',images/min4.png,"[(0.45, 0.79)]",,,,,0,5,5,5,4,3,19,3,,,,,,,,,,,,,"(0.75, -0.04)",images/min4.png,6,0.0607527955435,1.13201348437,[ 0.6359375   0.01388889],,0.701067199581,1,,,,,['num_0'],,,,2018_Jul_08_1221,60.3423980887,sequenceLearningTask,001,160,
min1.png,min2.png,min3.png,min4.png,allBlank.png,"['num_7', 'num_4', 'num_1', 'num_0']",['num_0'],num_0,[4],'num_0',images/min4.png,"[(0.45, 0.79)]",,,,,0,5,5,5,4,3,19,3,,,,,,,,,,,,,"(-0.25, -0.04)",images/min2.png,6,0.0534793626284,0.637353174505,[ 0.6078125   0.18611111],,,,,,,,['num_0'],,,,2018_Jul_08_1221,60.3423980887,sequenceLearningTask,001,160,
min1.png,min2.png,min3.png,min4.png,allBlank.png,"['num_7', 'num_4', 'num_1', 'num_0']",['num_0'],num_0,[4],'num_0',images/min4.png,"[(0.45, 0.79)]",,,,,0,5,5,5,4,3,19,3,,,,,,,,,,,,,"(0.25, -0.04)",images/min3.png,6,0.0584487966262,0.553075875738,[-0.1234375  -0.00277778],,,,,,,,['num_0'],,,,2018_Jul_08_1221,60.3423980887,sequenceLearningTask,001,160,
min1.png,min2.png,min3.png,min4.png,allBlank.png,"['num_7', 'num_4', 'num_1', 'num_0']",['num_0'],num_0,[4],'num_0',images/min4.png,"[(0.45, 0.79)]",,,,,0,5,5,5,4,3,19,3,,,,,,,,,,,,,"(0.75, -0.04)",images/min4.png,6,0.0605349495308,0.579285916174,[ 0.3015625   0.15833333],,,,,,,,['num_0'],,,,2018_Jul_08_1221,60.3423980887,sequenceLearningTask,001,160,
min1.png,min2.png,min3.png,min4.png,allBlank.png,"['num_7', 'num_4', 'num_1', 'num_0']",['num_0'],num_0,[4],'num_0',images/min4.png,"[(0.45, 0.79)]",,,,,0,6,6,6,4,3,19,3,,,,,,,,,,,,,"(-0.75, -0.04)",images/min1.png,7,0.0611597697716,0.647579221521,[ 0.6171875   0.07222222],,,,,,,,['num_0'],,,,2018_Jul_08_1221,60.3423980887,sequenceLearningTask,001,160,
min1.png,min2.png,min3.png,min4.png,allBlank.png,"['num_7', 'num_4', 'num_1', 'num_0']",['num_0'],num_0,[4],'num_0',images/min4.png,"[(0.45, 0.79)]",,,,,0,6,6,6,4,3,19,3,,,,,,,,,,,,,"(0.25, -0.04)",images/min3.png,7,0.0557365925051,0.55333392683,[-0.5828125 -0.275    ],,,,,,,,['num_0'],,,,2018_Jul_08_1221,60.3423980887,sequenceLearningTask,001,160,
min1.png,min2.png,min3.png,min4.png,allBlank.png,"['num_7', 'num_4', 'num_1', 'num_0']",['num_0'],num_0,[4],'num_0',images/min4.png,"[(0.45, 0.79)]",,,,,0,6,6,6,4,3,19,3,,,,,,,,,,,,,"(-0.25, -0.04)",images/min2.png,7,0.0508894150844,0.626755435136,[ 0.221875  0.075   ],,,,,,,,['num_0'],,,,2018_Jul_08_1221,60.3423980887,sequenceLearningTask,001,160,
min1.png,min2.png,min3.png,min4.png,allBlank.png,"['num_7', 'num_4', 'num_1', 'num_0']",['num_0'],num_0,[4],'num_0',images/min4.png,"[(0.45, 0.79)]",,,,,0,6,6,6,4,3,19,3,,,,,,,,,,,,,"(0.75, -0.04)",images/min4.png,7,0.0526247989619,0.539651470841,[-0.1609375   0.14722222],,,,,,,,['num_0'],,,,2018_Jul_08_1221,60.3423980887,sequenceLearningTask,001,160,
min1.png,min2.png,min3.png,min4.png,allBlank.png,"['num_7', 'num_4', 'num_1', 'num_0']",['num_0'],num_0,[4],'num_0',images/min4.png,"[(0.45, 0.79)]",,,,,0,6,6,6,4,3,19,3,,,,,,,,,,,,,"(0.75, -0.04)",images/min4.png,7,0.0540668495232,0.658955216757,[ 0.6546875   0.22777778],,,,,,,,['num_0'],,,,2018_Jul_08_1221,60.3423980887,sequenceLearningTask,001,160,
min1.png,min2.png,min3.png,min4.png,allBlank.png,"['num_7', 'num_4', 'num_1', 'num_0']",['num_0'],num_0,[4],'num_0',images/min4.png,"[(0.45, 0.79)]",,,,,0,6,6,6,4,3,19,3,,,,,,,,,,,,,"(-0.25, -0.04)",images/min2.png,7,0.0494387489744,0.50389435736,[ 0.7109375   0.06944444],,,,,,,,['num_0'],,,,2018_Jul_08_1221,60.3423980887,sequenceLearningTask,001,160,
min1.png,min2.png,min3.png,min4.png,allBlank.png,"['num_7', 'num_4', 'num_1', 'num_0']",['num_0'],num_0,[4],'num_0',images/min4.png,"[(0.45, 0.79)]",,,,,0,6,6,6,4,3,19,3,,,,,,,,,,,,,"(0.25, -0.04)",images/min3.png,7,0.056299053831,0.687375307782,[-0.1109375   0.03611111],,,,,,,,['num_0'],,,,2018_Jul_08_1221,60.3423980887,sequenceLearningTask,001,160,
min1.png,min2.png,min3.png,min4.png,allBlank.png,"['num_7', 'num_4', 'num_1', 'num_0']",['num_0'],num_0,[4],'num_0',images/min4.png,"[(0.45, 0.79)]",,,,,0,6,6,6,4,3,19,3,,,,,,,,,,,,,"(0.75, -0.04)",images/min4.png,7,0.0558124899399,0.753232921707,[ 0.2953125   0.11388889],,,,,,,,['num_0'],,,,2018_Jul_08_1221,60.3423980887,sequenceLearningTask,001,160,
min1.png,min2.png,min3.png,min4.png,allBlank.png,"['num_7', 'num_4', 'num_1', 'num_0']",['num_0'],num_0,[4],'num_0',images/min4.png,"[(0.45, 0.79)]",,,,,0,7,7,7,4,3,19,3,,,,,,,,,,,,,"(-0.75, -0.04)",images/min1.png,8,0.0571938226931,0.715140629676,[ 0.65625     0.02222222],,,,,,,,['num_0'],,,,2018_Jul_08_1221,60.3423980887,sequenceLearningTask,001,160,
min1.png,min2.png,min3.png,min4.png,allBlank.png,"['num_7', 'num_4', 'num_1', 'num_0']",['num_0'],num_0,[4],'num_0',images/min4.png,"[(0.45, 0.79)]",,,,,0,7,7,7,4,3,19,3,,,,,,,,,,,,,"(0.25, -0.04)",images/min3.png,8,0.0527363886358,1.14427358191,[-0.6109375  -0.29444444],,,,,,,,['num_0'],,,,2018_Jul_08_1221,60.3423980887,sequenceLearningTask,001,160,
min1.png,min2.png,min3.png,min4.png,allBlank.png,"['num_7', 'num_4', 'num_1', 'num_0']",['num_0'],num_0,[4],'num_0',images/min4.png,"[(0.45, 0.79)]",,,,,0,7,7,7,4,3,19,3,,,,,,,,,,,,,"(-0.25, -0.04)",images/min2.png,8,0.0604799751891,0.576658635167,[ 0.2140625   0.13055556],,,,,,,,['num_0'],,,,2018_Jul_08_1221,60.3423980887,sequenceLearningTask,001,160,
min1.png,min2.png,min3.png,min4.png,allBlank.png,"['num_7', 'num_4', 'num_1', 'num_0']",['num_0'],num_0,[4],'num_0',images/min4.png,"[(0.45, 0.79)]",,,,,0,7,7,7,4,3,19,3,,,,,,,,,,,,,"(0.75, -0.04)",images/min4.png,8,0.0564098230097,0.520720196655,[-0.1515625  -0.22777778],,,,,,,,['num_0'],,,,2018_Jul_08_1221,60.3423980887,sequenceLearningTask,001,160,
min1.png,min2.png,min3.png,min4.png,allBlank.png,"['num_7', 'num_4', 'num_1', 'num_0']",['num_0'],num_0,[4],'num_0',images/min4.png,"[(0.45, 0.79)]",,,,,0,7,7,7,4,3,19,3,,,,,,,,,,,,,"(0.75, -0.04)",images/min4.png,8,0.0607052057749,0.748458359507,[ 0.7390625   0.06944444],,,,,,,,['num_0'],,,,2018_Jul_08_1221,60.3423980887,sequenceLearningTask,001,160,
min1.png,min2.png,min3.png,min4.png,allBlank.png,"['num_7', 'num_4', 'num_1', 'num_0']",['num_0'],num_0,[4],'num_0',images/min4.png,"[(0.45, 0.79)]",,,,,0,7,7,7,4,3,19,3,,,,,,,,,,,,,"(-0.25, -0.04)",images/min2.png,8,0.059410026879,0.613582107355,[ 0.6359375   0.05555556],,,,,,,,['num_0'],,,,2018_Jul_08_1221,60.3423980887,sequenceLearningTask,001,160,
min1.png,min2.png,min3.png,min4.png,allBlank.png,"['num_7', 'num_4', 'num_1', 'num_0']",['num_0'],num_0,[4],'num_0',images/min4.png,"[(0.45, 0.79)]",,,,,0,7,7,7,4,3,19,3,,,,,,,,,,,,,"(0.25, -0.04)",images/min3.png,8,0.0606555648847,0.498472000589,[-0.225      -0.09166667],,,,,,,,['num_0'],,,,2018_Jul_08_1221,60.3423980887,sequenceLearningTask,001,160,
min1.png,min2.png,min3.png,min4.png,allBlank.png,"['num_7', 'num_4', 'num_1', 'num_0']",['num_0'],num_0,[4],'num_0',images/min4.png,"[(0.45, 0.79)]",,,,,0,7,7,7,4,3,19,3,,,,,,,,,,,,,"(0.75, -0.04)",images/min4.png,8,0.0213185553439,0.389573583729,[ 0.35625     0.00277778],,,,,,,,['num_0'],,,,2018_Jul_08_1221,60.3423980887,sequenceLearningTask,001,160,
min1.png,min2.png,min3.png,min4.png,allBlank.png,"['num_7', 'num_4', 'num_1', 'num_0']",['num_0'],num_0,[4],'num_0',images/min4.png,"[(0.45, 0.79)]",,,,,0,8,8,8,4,3,19,3,,,,,,,,,,,,,"(-0.75, -0.04)",images/min1.png,9,0.0590522835264,0.879700562218,[ 0.6703125   0.05833333],,,,,,,,['num_0'],,,,2018_Jul_08_1221,60.3423980887,sequenceLearningTask,001,160,
min1.png,min2.png,min3.png,min4.png,allBlank.png,"['num_7', 'num_4', 'num_1', 'num_0']",['num_0'],num_0,[4],'num_0',images/min4.png,"[(0.45, 0.79)]",,,,,0,8,8,8,4,3,19,3,,,,,,,,,,,,,"(0.25, -0.04)",images/min3.png,9,0.0538014138583,0.568807151285,[-0.5625     -0.14722222],,,,,,,,['num_0'],,,,2018_Jul_08_1221,60.3423980887,sequenceLearningTask,001,160,
min1.png,min2.png,min3.png,min4.png,allBlank.png,"['num_7', 'num_4', 'num_1', 'num_0']",['num_0'],num_0,[4],'num_0',images/min4.png,"[(0.45, 0.79)]",,,,,0,8,8,8,4,3,19,3,,,,,,,,,,,,,"(-0.25, -0.04)",images/min2.png,9,0.0316270639887,0.471642062883,[ 0.334375  0.075   ],,,,,,,,['num_0'],,,,2018_Jul_08_1221,60.3423980887,sequenceLearningTask,001,160,
min1.png,min2.png,min3.png,min4.png,allBlank.png,"['num_7', 'num_4', 'num_1', 'num_0']",['num_0'],num_0,[4],'num_0',images/min4.png,"[(0.45, 0.79)]",,,,,0,8,8,8,4,3,19,3,,,,,,,,,,,,,"(0.75, -0.04)",images/min4.png,9,0.0338838835014,0.827236993937,[-0.16875    -0.12777778],,,,,,,,['num_0'],,,,2018_Jul_08_1221,60.3423980887,sequenceLearningTask,001,160,
min1.png,min2.png,min3.png,min4.png,allBlank.png,"['num_7', 'num_4', 'num_1', 'num_0']",['num_0'],num_0,[4],'num_0',images/min4.png,"[(0.45, 0.79)]",,,,,0,8,8,8,4,3,19,3,,,,,,,,,,,,,"(0.75, -0.04)",images/min4.png,9,0.057789104525,1.32220048318,[ 0.6203125   0.18888889],,0.93022279779,1,,,,,['num_0'],,,,2018_Jul_08_1221,60.3423980887,sequenceLearningTask,001,160,
min1.png,min2.png,min3.png,min4.png,allBlank.png,"['num_7', 'num_4', 'num_1', 'num_0']",['num_0'],num_0,[4],'num_0',images/min4.png,"[(0.45, 0.79)]",,,,,0,8,8,8,4,3,19,3,,,,,,,,,,,,,"(-0.25, -0.04)",images/min2.png,9,0.0571913610911,0.535582139273,[ 0.5984375   0.10833333],,,,,,,,['num_0'],,,,2018_Jul_08_1221,60.3423980887,sequenceLearningTask,001,160,
min1.png,min2.png,min3.png,min4.png,allBlank.png,"['num_7', 'num_4', 'num_1', 'num_0']",['num_0'],num_0,[4],'num_0',images/min4.png,"[(0.45, 0.79)]",,,,,0,8,8,8,4,3,19,3,,,,,,,,,,,,,"(0.25, -0.04)",images/min3.png,9,0.0550920800306,0.571177201578,[-0.1140625  -0.02777778],,,,,,,,['num_0'],,,,2018_Jul_08_1221,60.3423980887,sequenceLearningTask,001,160,
min1.png,min2.png,min3.png,min4.png,allBlank.png,"['num_7', 'num_4', 'num_1', 'num_0']",['num_0'],num_0,[4],'num_0',images/min4.png,"[(0.45, 0.79)]",,,,,0,8,8,8,4,3,19,3,,,,,,,,,,,,,"(0.75, -0.04)",images/min4.png,9,0.0552574131871,0.622943744413,[ 0.3078125   0.09722222],,,,,,,,['num_0'],,,,2018_Jul_08_1221,60.3423980887,sequenceLearningTask,001,160,
min1.png,min2.png,min3.png,min4.png,allBlank.png,"['num_7', 'num_4', 'num_1', 'num_0']",['num_0'],num_0,[4],'num_0',images/min4.png,"[(0.45, 0.79)]",,,,,0,9,9,9,4,3,19,3,,,,,,,,,,,,,"(-0.75, -0.04)",images/min1.png,10,0.0525923887035,0.773227990489,[ 0.7140625   0.05833333],,,,,,,,['num_0'],,,,2018_Jul_08_1221,60.3423980887,sequenceLearningTask,001,160,
min1.png,min2.png,min3.png,min4.png,allBlank.png,"['num_7', 'num_4', 'num_1', 'num_0']",['num_0'],num_0,[4],'num_0',images/min4.png,"[(0.45, 0.79)]",,,,,0,9,9,9,4,3,19,3,,,,,,,,,,,,,"(0.25, -0.04)",images/min3.png,10,0.0622276668437,0.448824020918,[-0.5984375  -0.35277778],,,,,,,,['num_0'],,,,2018_Jul_08_1221,60.3423980887,sequenceLearningTask,001,160,
min1.png,min2.png,min3.png,min4.png,allBlank.png,"['num_7', 'num_4', 'num_1', 'num_0']",['num_0'],num_0,[4],'num_0',images/min4.png,"[(0.45, 0.79)]",,,,,0,9,9,9,4,3,19,3,,,,,,,,,,,,,"(-0.25, -0.04)",images/min2.png,10,0.0589895142475,0.683050796739,[ 0.2625      0.06111111],,,,,,,,['num_0'],,,,2018_Jul_08_1221,60.3423980887,sequenceLearningTask,001,160,
min1.png,min2.png,min3.png,min4.png,allBlank.png,"['num_7', 'num_4', 'num_1', 'num_0']",['num_0'],num_0,[4],'num_0',images/min4.png,"[(0.45, 0.79)]",,,,,0,9,9,9,4,3,19,3,,,,,,,,,,,,,"(0.75, -0.04)",images/min4.png,10,0.0558469515527,0.538727984065,[-0.1515625 -0.05     ],,,,,,,,['num_0'],,,,2018_Jul_08_1221,60.3423980887,sequenceLearningTask,001,160,
min1.png,min2.png,min3.png,min4.png,allBlank.png,"['num_7', 'num_4', 'num_1', 'num_0']",['num_0'],num_0,[4],'num_0',images/min4.png,"[(0.45, 0.79)]",,,,,0,9,9,9,4,3,19,3,,,,,,,,,,,,,"(0.75, -0.04)",images/min4.png,10,0.0543573111063,0.705721556675,[ 0.5921875   0.21666667],,,,,,,,['num_0'],,,,2018_Jul_08_1221,60.3423980887,sequenceLearningTask,001,160,
min1.png,min2.png,min3.png,min4.png,allBlank.png,"['num_7', 'num_4', 'num_1', 'num_0']",['num_0'],num_0,[4],'num_0',images/min4.png,"[(0.45, 0.79)]",,,,,0,9,9,9,4,3,19,3,,,,,,,,,,,,,"(-0.25, -0.04)",images/min2.png,10,0.0568229510682,0.686652026023,[ 0.690625    0.20277778],,,,,,,,['num_0'],,,,2018_Jul_08_1221,60.3423980887,sequenceLearningTask,001,160,
min1.png,min2.png,min3.png,min4.png,allBlank.png,"['num_7', 'num_4', 'num_1', 'num_0']",['num_0'],num_0,[4],'num_0',images/min4.png,"[(0.45, 0.79)]",,,,,0,9,9,9,4,3,19,3,,,,,,,,,,,,,"(0.25, -0.04)",images/min3.png,10,0.0597899241839,0.00414645986166,[-0.225      -0.06388889],1,,,,,,,['num_0'],,,,2018_Jul_08_1221,60.3423980887,sequenceLearningTask,001,160,
min1.png,min2.png,min3.png,min4.png,allBlank.png,"['num_7', 'num_4', 'num_1', 'num_0']",['num_0'],num_0,[4],'num_0',images/min4.png,"[(0.45, 0.79)]",,,,,0,9,9,9,4,3,19,3,,,,,,,,,,,,,"(0.75, -0.04)",images/min4.png,10,0.0516446967376,0.601511548157,[ 0.2734375   0.12222222],,,,,,,,['num_0'],,,,2018_Jul_08_1221,60.3423980887,sequenceLearningTask,001,160,
min1.png,min2.png,min3.png,min4.png,allBlank.png,"['num_7', 'num_4', 'num_1', 'num_0']",['num_0'],num_0,[4],'num_0',images/min4.png,"[(0.45, 0.79)]",,,,,0,9,9,9,4,3,19,3,0,-1,-1,0,,,,,,,,,,,,,,,,,,,,,,['num_0'],,,,2018_Jul_08_1221,60.3423980887,sequenceLearningTask,001,160,
min1.png,min2.png,min3.png,min4.png,allBlank.png,"['num_7', 'num_4', 'num_1', 'num_0']",['num_0'],num_0,[4],'num_0',images/min4.png,"[(0.45, 0.79)]",,,,,0,9,9,9,4,3,19,3,0,-1,-1,0,,,,,,,,,,,,,,,,,,['1'],,,,['num_0'],,,,2018_Jul_08_1221,60.3423980887,sequenceLearningTask,001,160,
min1.png,min2.png,min3.png,min4.png,allBlank.png,"['num_7', 'num_4', 'num_1', 'num_0']",['num_0'],num_0,[4],'num_0',images/min4.png,"[(0.45, 0.79)]",,,,,0,9,9,9,4,3,19,3,0,-1,-1,0,,,,,,,,,,,,,,,,,,['1'],,,,['num_0'],,,,2018_Jul_08_1221,60.3423980887,sequenceLearningTask,001,160,
min1.png,min2.png,min3.png,min4.png,allBlank.png,"['num_7', 'num_4', 'num_1', 'num_0']",['num_0'],num_0,[4],'num_0',images/min4.png,"[(0.45, 0.79)]",,,,,0,9,9,9,4,3,19,3,0,-1,-1,0,,,,,,,,,,,,,,,,,,['1'],,,,['num_0'],,,,2018_Jul_08_1221,60.3423980887,sequenceLearningTask,001,160,
min1.png,min2.png,min3.png,min4.png,allBlank.png,"['num_7', 'num_4', 'num_1', 'num_0']",['num_0'],num_0,[4],'num_0',images/min4.png,"[(0.45, 0.79)]",,,,,0,9,9,9,4,3,19,3,0,-1,-1,0,,,,,,,,,,,,,,,,,,['2'],,,,['num_0'],,,,2018_Jul_08_1221,60.3423980887,sequenceLearningTask,001,160,
min1.png,min2.png,min3.png,min4.png,allBlank.png,"['num_7', 'num_4', 'num_1', 'num_0']",['num_0'],num_0,[4],'num_0',images/min4.png,"[(0.45, 0.79)]",0,0,0,0,0,9,9,9,4,3,19,3,0,-1,-1,0,,,,,,,,,,,,,,,,,,,return,1.80695187405,,['num_0'],,,,2018_Jul_08_1221,60.3423980887,sequenceLearningTask,001,160,
